time,seconds_elapsed,z,y,x
1761315810936159200,0.0661591796875,-0.9847564697265625,-0.0019378662109375,-0.0157623291015625
1761315810946208300,0.076208251953125,-0.9846038818359375,-0.0022735595703125,-0.0156402587890625
1761315810956252400,0.08625244140625,-0.9853668212890625,-0.0021209716796875,-0.0161895751953125
1761315810966299400,0.09629931640625,-0.98541259765625,-0.002227783203125,-0.015594482421875
1761315810976346400,0.106346435546875,-0.9861907958984375,-0.0026092529296875,-0.0158843994140625
1761315810986393000,0.11639306640625,-0.9854278564453125,-0.0029754638671875,-0.0161285400390625
1761315810996441000,0.126441162109375,-0.98486328125,-0.0027923583984375,-0.0156707763671875
1761315811006488300,0.13648828125,-0.9858245849609375,-0.0023956298828125,-0.0154266357421875
1761315811016535300,0.146535400390625,-0.98529052734375,-0.0015411376953125,-0.015960693359375
1761315811026582300,0.156582275390625,-0.98492431640625,-0.0019378662109375,-0.01507568359375
1761315811036629200,0.166629150390625,-0.9855804443359375,-0.0022125244140625,-0.01544189453125
1761315811046676200,0.17667626953125,-0.9855804443359375,-0.0025787353515625,-0.0154571533203125
1761315811056724200,0.18672412109375,-0.9857330322265625,-0.0033111572265625,-0.015045166015625
1761315811066771200,0.196771240234375,-0.985687255859375,-0.0020904541015625,-0.01568603515625
1761315811076818200,0.206818115234375,-0.98480224609375,-0.0025787353515625,-0.0155487060546875
1761315811086865200,0.216865234375,-0.9854583740234375,-0.0023345947265625,-0.01568603515625
1761315811096912100,0.226912109375,-0.9856719970703125,-0.001953125,-0.0159454345703125
1761315811106960400,0.23696044921875,-0.985626220703125,-0.00244140625,-0.0152435302734375
1761315811117007400,0.24700732421875,-0.98602294921875,-0.0017852783203125,-0.016265869140625
1761315811127054300,0.257054443359375,-0.9858856201171875,-0.0020294189453125,-0.0161590576171875
1761315811137101000,0.26710107421875,-0.98565673828125,-0.00262451171875,-0.0164337158203125
1761315811147148000,0.27714794921875,-0.9865570068359375,-0.0023040771484375,-0.014923095703125
1761315811157196300,0.2871962890625,-0.985015869140625,-0.0016632080078125,-0.0155181884765625
1761315811167243300,0.2972431640625,-0.986419677734375,-0.0024871826171875,-0.01556396484375
1761315811177290200,0.307290283203125,-0.9854888916015625,-0.00238037109375,-0.01654052734375
1761315811187337200,0.317337158203125,-0.9854583740234375,-0.00213623046875,-0.0153350830078125
1761315811197384200,0.32738427734375,-0.98577880859375,-0.00213623046875,-0.0155029296875
1761315811207431400,0.337431396484375,-0.98468017578125,-0.0028533935546875,-0.0157928466796875
1761315811217479200,0.347479248046875,-0.984710693359375,-0.002716064453125,-0.0161285400390625
1761315811227526100,0.357526123046875,-0.985443115234375,-0.002655029296875,-0.0155792236328125
1761315811237573000,0.367572998046875,-0.9856719970703125,-0.00201416015625,-0.0161590576171875
1761315811247620400,0.377620361328125,-0.9857025146484375,-0.0027313232421875,-0.0154266357421875
1761315811257667300,0.387667236328125,-0.9854888916015625,-0.002166748046875,-0.0154266357421875
1761315811267715300,0.39771533203125,-0.985107421875,-0.002227783203125,-0.016204833984375
1761315811277762000,0.407761962890625,-0.9864501953125,-0.0023345947265625,-0.0164031982421875
1761315811287809000,0.41780908203125,-0.9857635498046875,-0.00213623046875,-0.0154571533203125
1761315811297856300,0.427856201171875,-0.985595703125,-0.0018768310546875,-0.016632080078125
1761315811307903200,0.4379033203125,-0.9855804443359375,-0.0020751953125,-0.016021728515625
1761315811317951200,0.447951171875,-0.985595703125,-0.0029449462890625,-0.0153350830078125
1761315811327998200,0.457998291015625,-0.98553466796875,-0.0020294189453125,-0.015655517578125
1761315811338045200,0.468045166015625,-0.985687255859375,-0.0022735595703125,-0.0160064697265625
1761315811348092400,0.478092529296875,-0.9863739013671875,-0.0023040771484375,-0.015838623046875
1761315811358139400,0.488139404296875,-0.9858856201171875,-0.0025634765625,-0.0160064697265625
1761315811368187100,0.498187255859375,-0.98590087890625,-0.0028228759765625,-0.01666259765625
1761315811378234000,0.508234130859375,-0.9850616455078125,-0.0026092529296875,-0.0166015625
1761315811388281300,0.51828125,-0.98553466796875,-0.0026702880859375,-0.0159454345703125
1761315811398328300,0.528328369140625,-0.986785888671875,-0.003021240234375,-0.0160675048828125
1761315811408375300,0.538375244140625,-0.9858551025390625,-0.0025482177734375,-0.0159759521484375
1761315811418422300,0.54842236328125,-0.986480712890625,-0.0019378662109375,-0.0152587890625
1761315811428470000,0.558469970703125,-0.9858856201171875,-0.0022125244140625,-0.0165557861328125
1761315811438517200,0.568517333984375,-0.9846343994140625,-0.002197265625,-0.0169830322265625
1761315811448564200,0.578564208984375,-0.9849395751953125,-0.002410888671875,-0.0159759521484375
1761315811458611200,0.588611083984375,-0.98541259765625,-0.0013275146484375,-0.016143798828125
1761315811468658200,0.598658203125,-0.985504150390625,-0.0020904541015625,-0.0157012939453125
1761315811478706200,0.6087060546875,-0.9851226806640625,-0.0020294189453125,-0.0150909423828125
1761315811488753400,0.61875341796875,-0.984832763671875,-0.001922607421875,-0.015625
1761315811498800400,0.62880029296875,-0.985198974609375,-0.001953125,-0.0169525146484375
1761315811508847400,0.638847412109375,-0.98626708984375,-0.0021209716796875,-0.016754150390625
1761315811518894000,0.64889404296875,-0.9862518310546875,-0.0027618408203125,-0.016143798828125
1761315811528942300,0.6589423828125,-0.985137939453125,-0.0024871826171875,-0.0159912109375
1761315811538989300,0.6689892578125,-0.9853668212890625,-0.00213623046875,-0.0161590576171875
1761315811549036300,0.679036376953125,-0.9864959716796875,-0.0023193359375,-0.01593017578125
1761315811559083300,0.689083251953125,-0.98602294921875,-0.001983642578125,-0.015533447265625
1761315811569130200,0.699130126953125,-0.9857940673828125,-0.002349853515625,-0.016510009765625
1761315811579178200,0.70917822265625,-0.98541259765625,-0.0026702880859375,-0.016143798828125
1761315811589225200,0.71922509765625,-0.9852752685546875,-0.0024871826171875,-0.0160369873046875
1761315811599272200,0.729272216796875,-0.9853057861328125,-0.0023345947265625,-0.0163116455078125
1761315811609319200,0.739319091796875,-0.98651123046875,-0.0027008056640625,-0.01605224609375
1761315811619366100,0.7493662109375,-0.9853668212890625,-0.0019378662109375,-0.0167236328125
1761315811629414400,0.759414306640625,-0.986541748046875,-0.0027313232421875,-0.0158233642578125
1761315811639461400,0.76946142578125,-0.9838714599609375,-0.00244140625,-0.0156097412109375
1761315811649508400,0.77950830078125,-0.987396240234375,-0.0023345947265625,-0.0137939453125
1761315811659555000,0.78955517578125,-0.9864349365234375,-0.0020751953125,-0.0153350830078125
1761315811669602000,0.79960205078125,-0.9850006103515625,-0.0019989013671875,-0.016754150390625
1761315811679650300,0.809650390625,-0.9849853515625,-0.0014190673828125,-0.016571044921875
1761315811689697300,0.819697265625,-0.983917236328125,-0.0011749267578125,-0.0155792236328125
1761315811699744300,0.829744140625,-0.986114501953125,-0.0025787353515625,-0.0160064697265625
1761315811709791200,0.839791259765625,-0.985748291015625,-0.0037994384765625,-0.015472412109375
1761315811719838200,0.849838134765625,-0.9865570068359375,-0.002288818359375,-0.015960693359375
1761315811729886200,0.85988623046875,-0.9862518310546875,-0.0024871826171875,-0.0153656005859375
1761315811739933200,0.86993310546875,-0.9859771728515625,-0.0025787353515625,-0.01580810546875
1761315811749980200,0.879980224609375,-0.9859161376953125,-0.001922607421875,-0.0169830322265625
1761315811760027100,0.890027099609375,-0.9853515625,-0.0028533935546875,-0.01617431640625
1761315811770074000,0.90007421875,-0.98577880859375,-0.003173828125,-0.0151824951171875
1761315811780122400,0.910122314453125,-0.9858856201171875,-0.002777099609375,-0.0155487060546875
1761315811790169300,0.92016943359375,-0.98590087890625,-0.0023345947265625,-0.01611328125
1761315811800216300,0.93021630859375,-0.9860992431640625,-0.0022125244140625,-0.0157012939453125
1761315811810263000,0.940262939453125,-0.9857177734375,-0.0023956298828125,-0.015838623046875
1761315811820310000,0.95031005859375,-0.9856109619140625,-0.0023193359375,-0.0157012939453125
1761315811830358300,0.960358154296875,-0.9854736328125,-0.002044677734375,-0.015106201171875
1761315811840405200,0.9704052734375,-0.9861602783203125,-0.0026397705078125,-0.015838623046875
1761315811850452200,0.9804521484375,-0.9861297607421875,-0.002838134765625,-0.0145111083984375
1761315811860499200,0.990499267578125,-0.985748291015625,-0.0027008056640625,-0.0153656005859375
1761315811870546400,1.00054638671875,-0.9852447509765625,-0.00225830078125,-0.016693115234375
1761315811880590000,1.010590087890625,-0.9856109619140625,-0.001800537109375,-0.0159912109375
1761315811890636800,1.02063671875,-0.985198974609375,-0.001678466796875,-0.015045166015625
1761315811900683800,1.030683837890625,-0.985504150390625,-0.002532958984375,-0.0158233642578125
1761315811910730800,1.040730712890625,-0.9853057861328125,-0.002593994140625,-0.0160675048828125
1761315811920778000,1.050778076171875,-0.9859466552734375,-0.0018310546875,-0.0150604248046875
1761315811930826000,1.060825927734375,-0.9862823486328125,-0.0025787353515625,-0.0155029296875
1761315811940873000,1.070873046875,-0.9858856201171875,-0.00225830078125,-0.015716552734375
1761315811950920000,1.080919921875,-0.98565673828125,-0.00164794921875,-0.0162353515625
1761315811960967000,1.090966796875,-0.9853515625,-0.0020294189453125,-0.016143798828125
1761315811971014100,1.10101416015625,-0.985565185546875,-0.0027008056640625,-0.015045166015625
1761315811981062000,1.111061767578125,-0.985443115234375,-0.0031585693359375,-0.015960693359375
1761315811991108900,1.12110888671875,-0.9849853515625,-0.002410888671875,-0.0162506103515625
1761315812001155800,1.13115576171875,-0.9860687255859375,-0.00274658203125,-0.0155029296875
1761315812011203000,1.141203125,-0.986358642578125,-0.0017547607421875,-0.0160675048828125
1761315812021250000,1.15125,-0.985748291015625,-0.002197265625,-0.0162353515625
1761315812031298000,1.161298095703125,-0.9855499267578125,-0.0032958984375,-0.0164794921875
1761315812041344800,1.1713447265625,-0.9859771728515625,-0.0023040771484375,-0.015960693359375
1761315812051391700,1.181391845703125,-0.9853515625,-0.0023193359375,-0.0160064697265625
1761315812061439000,1.19143896484375,-0.98516845703125,-0.00250244140625,-0.01593017578125
1761315812071486000,1.20148583984375,-0.9862518310546875,-0.0028839111328125,-0.0161590576171875
1761315812081534000,1.211533935546875,-0.98602294921875,-0.0020751953125,-0.0155487060546875
1761315812091581000,1.221580810546875,-0.9859466552734375,-0.002471923828125,-0.015594482421875
1761315812101628000,1.2316279296875,-0.986480712890625,-0.0021820068359375,-0.016021728515625
1761315812111675100,1.241675048828125,-0.985382080078125,-0.0023193359375,-0.01544189453125
1761315812121721900,1.251721923828125,-0.985137939453125,-0.00323486328125,-0.0161285400390625
1761315812131769900,1.261769775390625,-0.9864959716796875,-0.0028076171875,-0.015655517578125
1761315812141816800,1.27181689453125,-0.9840087890625,-0.002105712890625,-0.0159149169921875
1761315812151864000,1.281864013671875,-0.9846954345703125,-0.0020751953125,-0.016357421875
1761315812161911000,1.2919111328125,-0.985687255859375,-0.002410888671875,-0.01531982421875
1761315812171958000,1.3019580078125,-0.9850921630859375,-0.0024871826171875,-0.0159912109375
1761315812182005800,1.312005859375,-0.9858551025390625,-0.0025482177734375,-0.01556396484375
1761315812192052700,1.322052734375,-0.9860687255859375,-0.001739501953125,-0.014404296875
1761315812202100000,1.332099853515625,-0.9857177734375,-0.0023040771484375,-0.0157012939453125
1761315812212147000,1.34214697265625,-0.985565185546875,-0.0020751953125,-0.016326904296875
1761315812222194000,1.35219384765625,-0.98602294921875,-0.0021820068359375,-0.0161895751953125
1761315812232242000,1.362241943359375,-0.9862518310546875,-0.0023193359375,-0.0159759521484375
1761315812242289000,1.372288818359375,-0.9851531982421875,-0.0028076171875,-0.0164947509765625
1761315812252336000,1.382336181640625,-0.9854888916015625,-0.003204345703125,-0.015380859375
1761315812262383000,1.392383056640625,-0.9869842529296875,-0.00238037109375,-0.0145721435546875
1761315812272429800,1.402429931640625,-0.98663330078125,-0.00244140625,-0.0152130126953125
1761315812282477800,1.412477783203125,-0.9855804443359375,-0.0020599365234375,-0.01580810546875
1761315812292525000,1.422525146484375,-0.984954833984375,-0.00213623046875,-0.0165863037109375
1761315812302572000,1.432572021484375,-0.9860076904296875,-0.0021820068359375,-0.0162811279296875
1761315812312619000,1.442618896484375,-0.9857940673828125,-0.003082275390625,-0.0144805908203125
1761315812322667000,1.4526669921875,-0.986053466796875,-0.0023651123046875,-0.0156402587890625
1761315812332713700,1.462713623046875,-0.98602294921875,-0.0023193359375,-0.0157928466796875
1761315812342761000,1.472760986328125,-0.98651123046875,-0.002044677734375,-0.0154266357421875
1761315812352808000,1.482807861328125,-0.986236572265625,-0.001861572265625,-0.0153961181640625
1761315812362855000,1.49285498046875,-0.9847869873046875,-0.0023345947265625,-0.015838623046875
1761315812372903000,1.50290283203125,-0.9853363037109375,-0.00189208984375,-0.015777587890625
1761315812382950000,1.512949951171875,-0.9848785400390625,-0.002838134765625,-0.0153961181640625
1761315812392997000,1.5229970703125,-0.985565185546875,-0.0019989013671875,-0.01556396484375
1761315812403044000,1.533044189453125,-0.986083984375,-0.001739501953125,-0.0166168212890625
1761315812413091000,1.543091064453125,-0.9848175048828125,-0.0014801025390625,-0.0156707763671875
1761315812423138800,1.553138916015625,-0.985198974609375,-0.0027008056640625,-0.0159912109375
1761315812433186000,1.56318603515625,-0.9852752685546875,-0.00201416015625,-0.0157318115234375
1761315812443233000,1.57323291015625,-0.9849395751953125,-0.002410888671875,-0.0157470703125
1761315812453280000,1.583280029296875,-0.98577880859375,-0.002532958984375,-0.015838623046875
1761315812463327000,1.593326904296875,-0.9862060546875,-0.001739501953125,-0.0153961181640625
1761315812473374700,1.603374755859375,-0.98553466796875,-0.0028076171875,-0.01654052734375
1761315812483422000,1.613421875,-0.9857025146484375,-0.0024566650390625,-0.015472412109375
1761315812493469000,1.623468994140625,-0.986053466796875,-0.00164794921875,-0.0158843994140625
1761315812503516000,1.633515869140625,-0.9862518310546875,-0.002532958984375,-0.01641845703125
1761315812513563000,1.64356298828125,-0.9860992431640625,-0.002105712890625,-0.0157470703125
1761315812523611000,1.65361083984375,-0.9860687255859375,-0.002349853515625,-0.015167236328125
1761315812533658000,1.663658203125,-0.985687255859375,-0.0018463134765625,-0.016571044921875
1761315812543705000,1.673705078125,-0.985687255859375,-0.002410888671875,-0.016021728515625
1761315812553752000,1.683751953125,-0.986114501953125,-0.0019683837890625,-0.0162353515625
1761315812563798800,1.693798828125,-0.9867706298828125,-0.0023040771484375,-0.0164794921875
1761315812573847000,1.703846923828125,-0.98492431640625,-0.00189208984375,-0.01568603515625
1761315812583894000,1.71389404296875,-0.9858245849609375,-0.002197265625,-0.015960693359375
1761315812593941000,1.72394091796875,-0.98516845703125,-0.0020904541015625,-0.0163421630859375
1761315812603988000,1.733988037109375,-0.984893798828125,-0.00201416015625,-0.0161895751953125
1761315812614035000,1.744034912109375,-0.9872894287109375,-0.0028533935546875,-0.0156707763671875
1761315812624083000,1.7540830078125,-0.9860382080078125,-0.002960205078125,-0.0155792236328125
1761315812634130000,1.7641298828125,-0.9857025146484375,-0.0032501220703125,-0.0159912109375
1761315812644177000,1.774177001953125,-0.9853668212890625,-0.00311279296875,-0.015777587890625
1761315812654224000,1.784223876953125,-0.9857330322265625,-0.002960205078125,-0.0158843994140625
1761315812664270800,1.794270751953125,-0.985687255859375,-0.0026702880859375,-0.014984130859375
1761315812674319000,1.804319091796875,-0.9864349365234375,-0.0029449462890625,-0.0164031982421875
1761315812684366000,1.814365966796875,-0.986602783203125,-0.0020904541015625,-0.0166168212890625
1761315812694413000,1.8244130859375,-0.984954833984375,-0.00262451171875,-0.0160675048828125
1761315812704460000,1.8344599609375,-0.984832763671875,-0.0023956298828125,-0.016510009765625
1761315812714506800,1.8445068359375,-0.985137939453125,-0.0026397705078125,-0.015594482421875
1761315812724555000,1.854554931640625,-0.986175537109375,-0.0018310546875,-0.0161285400390625
1761315812734602000,1.86460205078125,-0.9864349365234375,-0.002471923828125,-0.01556396484375
1761315812744649000,1.87464892578125,-0.9859161376953125,-0.00347900390625,-0.0152435302734375
1761315812754696000,1.884696044921875,-0.986297607421875,-0.00177001953125,-0.0158538818359375
1761315812764743000,1.894742919921875,-0.9859466552734375,-0.00164794921875,-0.0161285400390625
1761315812774791000,1.904791015625,-0.9858551025390625,-0.00250244140625,-0.0158843994140625
1761315812784838000,1.914837890625,-0.9857025146484375,-0.0024261474609375,-0.01568603515625
1761315812794884900,1.924884765625,-0.9855499267578125,-0.002166748046875,-0.0152435302734375
1761315812804931800,1.934931884765625,-0.9854583740234375,-0.0021209716796875,-0.015167236328125
1761315812814980000,1.94497998046875,-0.985626220703125,-0.00274658203125,-0.016265869140625
1761315812825027000,1.955027099609375,-0.9857635498046875,-0.002227783203125,-0.0159454345703125
1761315812835074000,1.965073974609375,-0.9868316650390625,-0.0017242431640625,-0.0163421630859375
1761315812845121000,1.97512109375,-0.9856719970703125,-0.002410888671875,-0.0161895751953125
1761315812855167700,1.985167724609375,-0.9857940673828125,-0.0022430419921875,-0.015289306640625
1761315812865216000,1.995216064453125,-0.9856719970703125,-0.00164794921875,-0.014801025390625
1761315812875263200,2.00526318359375,-0.984832763671875,-0.00189208984375,-0.015869140625
1761315812885310500,2.015310546875,-0.9850006103515625,-0.002532958984375,-0.0150909423828125
1761315812895357400,2.025357421875,-0.9852142333984375,-0.001800537109375,-0.015472412109375
1761315812905404400,2.035404296875,-0.9849700927734375,-0.0018463134765625,-0.015106201171875
1761315812915452200,2.0454521484375,-0.985565185546875,-0.002716064453125,-0.016326904296875
1761315812925499100,2.0554990234375,-0.98651123046875,-0.0025177001953125,-0.0164031982421875
1761315812935546400,2.06554638671875,-0.9857940673828125,-0.002227783203125,-0.0162506103515625
1761315812945593300,2.07559326171875,-0.985870361328125,-0.00201416015625,-0.015411376953125
1761315812955640300,2.085640380859375,-0.986083984375,-0.00250244140625,-0.01605224609375
1761315812965688300,2.095688232421875,-0.985870361328125,-0.0023193359375,-0.015533447265625
1761315812975735600,2.105735595703125,-0.98516845703125,-0.001922607421875,-0.016265869140625
1761315812985782300,2.1157822265625,-0.985931396484375,-0.002288818359375,-0.016082763671875
1761315812995829200,2.125829345703125,-0.9856109619140625,-0.0030975341796875,-0.01483154296875
1761315813005876200,2.135876220703125,-0.986358642578125,-0.0018463134765625,-0.01580810546875
1761315813015924200,2.14592431640625,-0.9853363037109375,-0.001953125,-0.0162506103515625
1761315813025971500,2.155971435546875,-0.98675537109375,-0.0025787353515625,-0.015533447265625
1761315813036018400,2.166018310546875,-0.9863433837890625,-0.0022735595703125,-0.015106201171875
1761315813046065400,2.1760654296875,-0.9853515625,-0.0031585693359375,-0.015289306640625
1761315813056112400,2.1861123046875,-0.98486328125,-0.002532958984375,-0.0154876708984375
1761315813066160000,2.19616015625,-0.9851837158203125,-0.0024871826171875,-0.016021728515625
1761315813076207400,2.206207275390625,-0.9860076904296875,-0.002288818359375,-0.0163421630859375
1761315813086254300,2.21625439453125,-0.9860382080078125,-0.0025177001953125,-0.0159454345703125
1761315813096301300,2.22630126953125,-0.9860382080078125,-0.00238037109375,-0.0152587890625
1761315813106348300,2.236348388671875,-0.9860687255859375,-0.00262451171875,-0.0153350830078125
1761315813116396500,2.246396484375,-0.9864349365234375,-0.0022430419921875,-0.0152740478515625
1761315813126443300,2.256443359375,-0.98583984375,-0.002685546875,-0.0153656005859375
1761315813136490200,2.266490234375,-0.986175537109375,-0.0025177001953125,-0.0150909423828125
1761315813146537200,2.276537109375,-0.9855499267578125,-0.002777099609375,-0.0162811279296875
1761315813156584200,2.286584228515625,-0.9858551025390625,-0.002960205078125,-0.0161895751953125
1761315813166632400,2.296632568359375,-0.9857635498046875,-0.002655029296875,-0.01483154296875
1761315813176679400,2.306679443359375,-0.9867095947265625,-0.002288818359375,-0.0161285400390625
1761315813186726400,2.316726318359375,-0.98583984375,-0.0020751953125,-0.0156097412109375
1761315813196773400,2.3267734375,-0.9860992431640625,-0.0024871826171875,-0.0158233642578125
1761315813206821000,2.336821044921875,-0.98602294921875,-0.0020599365234375,-0.0157318115234375
1761315813216868400,2.346868408203125,-0.98614501953125,-0.0023956298828125,-0.01629638671875
1761315813226915300,2.356915283203125,-0.985748291015625,-0.00225830078125,-0.0157623291015625
1761315813236962300,2.36696240234375,-0.986663818359375,-0.0018310546875,-0.0164642333984375
1761315813247009300,2.37700927734375,-0.9864959716796875,-0.0023956298828125,-0.0162200927734375
1761315813257057500,2.3870576171875,-0.986297607421875,-0.0021514892578125,-0.01611328125
1761315813267104500,2.3971044921875,-0.986724853515625,-0.002288818359375,-0.016387939453125
1761315813277151200,2.407151123046875,-0.9856719970703125,-0.0016326904296875,-0.01605224609375
1761315813287198200,2.4171982421875,-0.9859771728515625,-0.00238037109375,-0.0162200927734375
1761315813297245200,2.4272451171875,-0.9852447509765625,-0.001800537109375,-0.015655517578125
1761315813307293400,2.43729345703125,-0.9861907958984375,-0.002410888671875,-0.0164337158203125
1761315813317340400,2.44734033203125,-0.9851531982421875,-0.0023651123046875,-0.0171661376953125
1761315813327387400,2.457387451171875,-0.9851837158203125,-0.002288818359375,-0.01568603515625
1761315813337434400,2.467434326171875,-0.986541748046875,-0.002227783203125,-0.0155487060546875
1761315813347481300,2.4774814453125,-0.98651123046875,-0.0027618408203125,-0.0159454345703125
1761315813357529300,2.487529296875,-0.9867095947265625,-0.003387451171875,-0.0160675048828125
1761315813367576300,2.497576416015625,-0.9859771728515625,-0.0028228759765625,-0.01593017578125
1761315813377623300,2.507623291015625,-0.9865570068359375,-0.0023956298828125,-0.0154571533203125
1761315813387670300,2.517670166015625,-0.9857635498046875,-0.001953125,-0.0155029296875
1761315813397717200,2.52771728515625,-0.985687255859375,-0.002227783203125,-0.015655517578125
1761315813407765500,2.537765625,-0.986480712890625,-0.002777099609375,-0.0156097412109375
1761315813417812200,2.547812255859375,-0.9859619140625,-0.0027008056640625,-0.0145721435546875
1761315813427859200,2.557859130859375,-0.985107421875,-0.002227783203125,-0.0160369873046875
1761315813437906200,2.56790625,-0.9853973388671875,-0.0025482177734375,-0.0163421630859375
1761315813447953200,2.577953125,-0.985992431640625,-0.0020751953125,-0.01513671875
1761315813458001400,2.58800146484375,-0.98516845703125,-0.0023345947265625,-0.0153961181640625
1761315813468048400,2.59804833984375,-0.98565673828125,-0.0027618408203125,-0.01470947265625
1761315813478095400,2.608095458984375,-0.98602294921875,-0.0022125244140625,-0.01580810546875
1761315813488142300,2.618142333984375,-0.98590087890625,-0.002197265625,-0.0162506103515625
1761315813498189300,2.628189208984375,-0.9853973388671875,-0.0021209716796875,-0.0155029296875
1761315813508237300,2.6382373046875,-0.9858856201171875,-0.00225830078125,-0.015472412109375
1761315813518284300,2.6482841796875,-0.9870147705078125,-0.001983642578125,-0.015869140625
1761315813528331300,2.658331298828125,-0.986297607421875,-0.0030670166015625,-0.0162506103515625
1761315813538378200,2.668378173828125,-0.9855499267578125,-0.0030975341796875,-0.01513671875
1761315813548425200,2.67842529296875,-0.985076904296875,-0.0025634765625,-0.0162200927734375
1761315813558473500,2.688473388671875,-0.9860382080078125,-0.0020751953125,-0.01513671875
1761315813568520200,2.698520263671875,-0.98602294921875,-0.0027008056640625,-0.0159759521484375
1761315813578567200,2.708567138671875,-0.9856109619140625,-0.0025787353515625,-0.015777587890625
1761315813588614100,2.7186142578125,-0.9864349365234375,-0.002410888671875,-0.0157928466796875
1761315813598661400,2.728661376953125,-0.98651123046875,-0.0022735595703125,-0.0155181884765625
1761315813608709400,2.73870947265625,-0.986175537109375,-0.001556396484375,-0.0155181884765625
1761315813618756400,2.74875634765625,-0.9859771728515625,-0.0026397705078125,-0.0155181884765625
1761315813628803300,2.75880322265625,-0.98590087890625,-0.002532958984375,-0.01544189453125
1761315813638850300,2.768850341796875,-0.9856414794921875,-0.0022125244140625,-0.015777587890625
1761315813648897500,2.7788974609375,-0.9866485595703125,-0.002593994140625,-0.0149078369140625
1761315813658945300,2.7889453125,-0.9862213134765625,-0.0021514892578125,-0.01568603515625
1761315813668992300,2.7989921875,-0.9864654541015625,-0.0021514892578125,-0.0162353515625
1761315813679039200,2.809039306640625,-0.98565673828125,-0.0020599365234375,-0.0159912109375
1761315813689086200,2.819086181640625,-0.9854278564453125,-0.001617431640625,-0.0157928466796875
1761315813699133400,2.829133544921875,-0.986358642578125,-0.0023040771484375,-0.015228271484375
1761315813709181200,2.83918115234375,-0.9861602783203125,-0.0026092529296875,-0.0161895751953125
1761315813719228200,2.849228271484375,-0.9863433837890625,-0.002838134765625,-0.0160675048828125
1761315813729275100,2.859275146484375,-0.9866943359375,-0.002227783203125,-0.0157470703125
1761315813739322400,2.869322265625,-0.98626708984375,-0.0028076171875,-0.015869140625
1761315813749369300,2.879369384765625,-0.9848480224609375,-0.0027618408203125,-0.0153656005859375
1761315813759417300,2.889417236328125,-0.986053466796875,-0.0016632080078125,-0.015594482421875
1761315813769464300,2.89946435546875,-0.9857177734375,-0.0025177001953125,-0.016448974609375
1761315813779511300,2.90951123046875,-0.985748291015625,-0.0029754638671875,-0.0156707763671875
1761315813789558500,2.91955859375,-0.986907958984375,-0.001953125,-0.0158843994140625
1761315813799605200,2.929605224609375,-0.985809326171875,-0.0015411376953125,-0.015869140625
1761315813809653200,2.9396533203125,-0.9856719970703125,-0.002044677734375,-0.01605224609375
1761315813819700200,2.9497001953125,-0.986114501953125,-0.002655029296875,-0.015594482421875
1761315813829747200,2.959747314453125,-0.9859161376953125,-0.00274658203125,-0.0158233642578125
1761315813839794400,2.96979443359375,-0.9857330322265625,-0.00152587890625,-0.015380859375
1761315813849841400,2.97984130859375,-0.9863739013671875,-0.0025177001953125,-0.015045166015625
1761315813859889200,2.98988916015625,-0.9863128662109375,-0.00262451171875,-0.01580810546875
1761315813869936000,2.99993603515625,-0.9860687255859375,-0.0019989013671875,-0.0150909423828125
1761315813879983000,3.009983154296875,-0.9863128662109375,-0.00225830078125,-0.015777587890625
1761315813890030000,3.020030029296875,-0.98614501953125,-0.002410888671875,-0.0163116455078125
1761315813900077000,3.0300771484375,-0.9857330322265625,-0.002105712890625,-0.0152435302734375
1761315813910125300,3.040125244140625,-0.985931396484375,-0.002655029296875,-0.01519775390625
1761315813920172300,3.05017236328125,-0.986236572265625,-0.0029144287109375,-0.01556396484375
1761315813930219300,3.06021923828125,-0.985595703125,-0.002349853515625,-0.0151519775390625
1761315813940266200,3.070266357421875,-0.986541748046875,-0.0019073486328125,-0.0161285400390625
1761315813950313200,3.080313232421875,-0.986541748046875,-0.0013885498046875,-0.0162200927734375
1761315813960361200,3.090361328125,-0.9847412109375,-0.0019378662109375,-0.0152587890625
1761315813970408200,3.100408203125,-0.9852142333984375,-0.0026397705078125,-0.0164947509765625
1761315813980455200,3.110455078125,-0.9878692626953125,-0.0025787353515625,-0.0155181884765625
1761315813990502100,3.120502197265625,-0.9862060546875,-0.0023193359375,-0.0159149169921875
1761315814000549000,3.130549072265625,-0.9853363037109375,-0.0018463134765625,-0.0167694091796875
1761315814010597000,3.14059716796875,-0.9857330322265625,-0.0021209716796875,-0.0163421630859375
1761315814020644000,3.15064404296875,-0.9852294921875,-0.00238037109375,-0.01617431640625
1761315814030691000,3.160691162109375,-0.9854888916015625,-0.00311279296875,-0.0157012939453125
1761315814040738000,3.170738037109375,-0.9860382080078125,-0.0028076171875,-0.0159454345703125
1761315814050785300,3.180785400390625,-0.986053466796875,-0.0026092529296875,-0.0150604248046875
1761315814060833300,3.190833251953125,-0.9863433837890625,-0.0021820068359375,-0.015899658203125
1761315814070880300,3.20088037109375,-0.985809326171875,-0.0025634765625,-0.0162353515625
1761315814080927200,3.21092724609375,-0.9862518310546875,-0.0025787353515625,-0.0162506103515625
1761315814090974200,3.22097412109375,-0.98516845703125,-0.00250244140625,-0.015716552734375
1761315814101021200,3.231021240234375,-0.98443603515625,-0.0021820068359375,-0.0156707763671875
1761315814111069200,3.241069091796875,-0.9854736328125,-0.003387451171875,-0.015289306640625
1761315814121116200,3.2511162109375,-0.9859771728515625,-0.0028839111328125,-0.01605224609375
1761315814131163100,3.2611630859375,-0.9863128662109375,-0.0028533935546875,-0.0155487060546875
1761315814141210000,3.271210205078125,-0.986480712890625,-0.0024566650390625,-0.0154266357421875
1761315814151257300,3.28125732421875,-0.986053466796875,-0.0018768310546875,-0.016204833984375
1761315814161305000,3.29130517578125,-0.9858551025390625,-0.0014495849609375,-0.017242431640625
1761315814171352000,3.30135205078125,-0.985565185546875,-0.0020599365234375,-0.0164642333984375
1761315814181399000,3.31139892578125,-0.9864654541015625,-0.0023040771484375,-0.0155029296875
1761315814191446300,3.3214462890625,-0.986114501953125,-0.0020904541015625,-0.0155487060546875
1761315814201493200,3.3314931640625,-0.985076904296875,-0.0017852783203125,-0.0163116455078125
1761315814211541200,3.341541259765625,-0.986114501953125,-0.0021514892578125,-0.015838623046875
1761315814221588200,3.351588134765625,-0.9859466552734375,-0.0019989013671875,-0.015045166015625
1761315814231635200,3.36163525390625,-0.9863739013671875,-0.0019683837890625,-0.0163421630859375
1761315814241682200,3.37168212890625,-0.98553466796875,-0.002716064453125,-0.0159149169921875
1761315814251729200,3.381729248046875,-0.9857635498046875,-0.0024261474609375,-0.015899658203125
1761315814261777200,3.391777099609375,-0.9859771728515625,-0.0023956298828125,-0.0158233642578125
1761315814271824100,3.40182421875,-0.984893798828125,-0.0018310546875,-0.01531982421875
1761315814281871000,3.41187109375,-0.9870147705078125,-0.0012054443359375,-0.0156402587890625
1761315814291918300,3.42191845703125,-0.9866790771484375,-0.001953125,-0.01544189453125
1761315814301965300,3.43196533203125,-0.9861907958984375,-0.0022735595703125,-0.0149688720703125
1761315814312013000,3.442012939453125,-0.9852447509765625,-0.0027618408203125,-0.01568603515625
1761315814322060000,3.45206005859375,-0.98651123046875,-0.0025482177734375,-0.015777587890625
1761315814332107300,3.462107177734375,-0.9863739013671875,-0.00244140625,-0.0152130126953125
1761315814342154200,3.472154296875,-0.986419677734375,-0.00244140625,-0.0150604248046875
1761315814352201200,3.482201171875,-0.98681640625,-0.0027008056640625,-0.015350341796875
1761315814362249200,3.492249267578125,-0.9864044189453125,-0.0024566650390625,-0.016571044921875
1761315814372296200,3.502296142578125,-0.9860992431640625,-0.0023193359375,-0.0167999267578125
1761315814382343200,3.51234326171875,-0.9864654541015625,-0.002349853515625,-0.0156707763671875
1761315814392390100,3.52239013671875,-0.986602783203125,-0.0020751953125,-0.0152435302734375
1761315814402437000,3.53243701171875,-0.9863739013671875,-0.0020599365234375,-0.0158233642578125
1761315814412484000,3.542484130859375,-0.9857025146484375,-0.001861572265625,-0.016021728515625
1761315814422532000,3.552531982421875,-0.98602294921875,-0.0018310546875,-0.016021728515625
1761315814432579300,3.562579345703125,-0.98602294921875,-0.002288818359375,-0.0160980224609375
1761315814442626300,3.572626220703125,-0.986419677734375,-0.0024871826171875,-0.0157318115234375
1761315814452673300,3.58267333984375,-0.9860992431640625,-0.002044677734375,-0.01641845703125
1761315814462720300,3.59272021484375,-0.98699951171875,-0.0018768310546875,-0.015869140625
1761315814472768000,3.60276806640625,-0.9856109619140625,-0.001708984375,-0.0147857666015625
1761315814482815200,3.612815185546875,-0.985626220703125,-0.00164794921875,-0.01611328125
1761315814492862200,3.6228623046875,-0.985443115234375,-0.002105712890625,-0.0162506103515625
1761315814502909200,3.6329091796875,-0.9853515625,-0.002410888671875,-0.0157470703125
1761315814512956200,3.6429560546875,-0.985931396484375,-0.002166748046875,-0.0155181884765625
1761315814523004400,3.65300439453125,-0.986572265625,-0.0027008056640625,-0.0161285400390625
1761315814533051100,3.663051025390625,-0.9857177734375,-0.002227783203125,-0.015960693359375
1761315814543098000,3.67309814453125,-0.9856414794921875,-0.0028228759765625,-0.0159759521484375
1761315814553145000,3.68314501953125,-0.985870361328125,-0.001739501953125,-0.0156402587890625
1761315814563192000,3.693192138671875,-0.986358642578125,-0.001495361328125,-0.0159759521484375
1761315814573240300,3.703240234375,-0.98663330078125,-0.001708984375,-0.0153656005859375
1761315814583287300,3.713287353515625,-0.9861602783203125,-0.00189208984375,-0.01678466796875
1761315814593334300,3.723334228515625,-0.9860076904296875,-0.00250244140625,-0.0163421630859375
1761315814603381200,3.73338134765625,-0.9861297607421875,-0.0027313232421875,-0.015411376953125
1761315814613428200,3.74342822265625,-0.9859466552734375,-0.0026092529296875,-0.0153045654296875
1761315814623476200,3.753476318359375,-0.9867706298828125,-0.0027313232421875,-0.0152587890625
1761315814633523200,3.763523193359375,-0.98675537109375,-0.0023040771484375,-0.015960693359375
1761315814643570200,3.773570068359375,-0.98614501953125,-0.00250244140625,-0.014923095703125
1761315814653617200,3.7836171875,-0.986358642578125,-0.001678466796875,-0.015594482421875
1761315814663664000,3.7936640625,-0.9866180419921875,-0.001617431640625,-0.015533447265625
1761315814673711400,3.80371142578125,-0.9866485595703125,-0.0020904541015625,-0.01580810546875
1761315814683759000,3.813759033203125,-0.98675537109375,-0.0020751953125,-0.0154266357421875
1761315814693806000,3.82380615234375,-0.98516845703125,-0.002593994140625,-0.0159149169921875
1761315814703853000,3.83385302734375,-0.986175537109375,-0.0023956298828125,-0.0157928466796875
1761315814713900000,3.843900146484375,-0.98626708984375,-0.002044677734375,-0.0162200927734375
1761315814723947300,3.853947265625,-0.9858856201171875,-0.002197265625,-0.015655517578125
1761315814733995300,3.863995361328125,-0.9866485595703125,-0.0025787353515625,-0.0161285400390625
1761315814744042200,3.874042236328125,-0.9862213134765625,-0.0023040771484375,-0.01605224609375
1761315814754089200,3.884089111328125,-0.986297607421875,-0.002593994140625,-0.016021728515625
1761315814764136200,3.89413623046875,-0.986114501953125,-0.002593994140625,-0.0156402587890625
1761315814774183200,3.90418310546875,-0.98614501953125,-0.0017852783203125,-0.01531982421875
1761315814784231200,3.914231201171875,-0.9856719970703125,-0.0017547607421875,-0.0157318115234375
1761315814794278100,3.924278076171875,-0.9858856201171875,-0.0018463134765625,-0.0157928466796875
1761315814804325000,3.9343251953125,-0.9858856201171875,-0.0020751953125,-0.0162506103515625
1761315814814372400,3.944372314453125,-0.986328125,-0.0025787353515625,-0.0156097412109375
1761315814824419300,3.95441943359375,-0.98529052734375,-0.002532958984375,-0.0157928466796875
1761315814834467000,3.964467041015625,-0.985809326171875,-0.00189208984375,-0.0151214599609375
1761315814844514000,3.97451416015625,-0.98626708984375,-0.0025787353515625,-0.0159149169921875
1761315814854561000,3.98456103515625,-0.98590087890625,-0.00250244140625,-0.0164031982421875
1761315814864608300,3.994608154296875,-0.986572265625,-0.0023345947265625,-0.01531982421875
1761315814874655200,4.0046552734375,-0.9867401123046875,-0.00274658203125,-0.0162353515625
1761315814884703000,4.014702880859375,-0.985504150390625,-0.0021514892578125,-0.0153350830078125
1761315814894750000,4.02475,-0.9858551025390625,-0.00225830078125,-0.0146942138671875
1761315814904797000,4.034796875,-0.9859466552734375,-0.002410888671875,-0.01605224609375
1761315814914844000,4.044843994140625,-0.986419677734375,-0.0022735595703125,-0.015411376953125
1761315814924891000,4.054890869140625,-0.985137939453125,-0.00201416015625,-0.0160980224609375
1761315814934937600,4.0649375,-0.986297607421875,-0.002166748046875,-0.0164642333984375
1761315814944985900,4.07498583984375,-0.9859466552734375,-0.0031890869140625,-0.0148773193359375
1761315814955032800,4.08503271484375,-0.986297607421875,-0.0025787353515625,-0.016357421875
1761315814965079800,4.095079833984375,-0.985595703125,-0.001708984375,-0.01605224609375
1761315814975126800,4.105126708984375,-0.9864501953125,-0.0024871826171875,-0.0155181884765625
1761315814985173800,4.115173828125,-0.9864654541015625,-0.002166748046875,-0.0159149169921875
1761315814995221800,4.1252216796875,-0.9861907958984375,-0.0027313232421875,-0.015411376953125
1761315815005268700,4.135268798828125,-0.9850616455078125,-0.0021209716796875,-0.0150909423828125
1761315815015315700,4.145315673828125,-0.9855194091796875,-0.0022430419921875,-0.0158843994140625
1761315815025362700,4.15536279296875,-0.9849700927734375,-0.0027313232421875,-0.015533447265625
1761315815035410000,4.165409912109375,-0.985260009765625,-0.0025177001953125,-0.015869140625
1761315815045457000,4.175456787109375,-0.98565673828125,-0.0027008056640625,-0.0162506103515625
1761315815055505000,4.1855048828125,-0.9855804443359375,-0.0021209716796875,-0.0161895751953125
1761315815065552000,4.1955517578125,-0.9868011474609375,-0.0021820068359375,-0.0158538818359375
1761315815075598600,4.2055986328125,-0.9864654541015625,-0.00244140625,-0.0163726806640625
1761315815085645800,4.215645751953125,-0.98541259765625,-0.0025482177734375,-0.0162811279296875
1761315815095692800,4.22569287109375,-0.985931396484375,-0.0015869140625,-0.0156097412109375
1761315815105740800,4.23574072265625,-0.98699951171875,-0.0022735595703125,-0.016326904296875
1761315815115787800,4.245787841796875,-0.98590087890625,-0.0023193359375,-0.0159149169921875
1761315815125834800,4.255834716796875,-0.9862518310546875,-0.0022735595703125,-0.0154266357421875
1761315815135882000,4.265882080078125,-0.986083984375,-0.0024871826171875,-0.0157470703125
1761315815145929000,4.275928955078125,-0.9854888916015625,-0.0021209716796875,-0.014892578125
1761315815155976700,4.285976806640625,-0.9860076904296875,-0.0030059814453125,-0.0156097412109375
1761315815166023700,4.296023681640625,-0.985870361328125,-0.0028228759765625,-0.0160980224609375
1761315815176071000,4.30607080078125,-0.9868011474609375,-0.0025787353515625,-0.0159454345703125
1761315815186118000,4.316117919921875,-0.9861602783203125,-0.002166748046875,-0.0165863037109375
1761315815196164900,4.326164794921875,-0.9862518310546875,-0.0022125244140625,-0.01513671875
1761315815206212900,4.336212890625,-0.9867706298828125,-0.001373291015625,-0.01556396484375
1761315815216259800,4.346259765625,-0.986175537109375,-0.0017852783203125,-0.0159759521484375
1761315815226306800,4.356306884765625,-0.9863128662109375,-0.002349853515625,-0.0153961181640625
1761315815236353800,4.366353759765625,-0.986297607421875,-0.0030975341796875,-0.015960693359375
1761315815246400800,4.37640087890625,-0.9857330322265625,-0.0017547607421875,-0.015472412109375
1761315815256447700,4.38644775390625,-0.9868011474609375,-0.0019073486328125,-0.015899658203125
1761315815266495700,4.396495849609375,-0.986236572265625,-0.002197265625,-0.0157623291015625
1761315815276543000,4.40654296875,-0.985504150390625,-0.00299072265625,-0.0162506103515625
1761315815286590000,4.41658984375,-0.9854736328125,-0.002593994140625,-0.015716552734375
1761315815296637000,4.426636962890625,-0.985870361328125,-0.0019073486328125,-0.0159454345703125
1761315815306684000,4.436683837890625,-0.986297607421875,-0.0027618408203125,-0.01531982421875
1761315815316732000,4.44673193359375,-0.9852752685546875,-0.002197265625,-0.015655517578125
1761315815326779000,4.45677880859375,-0.98602294921875,-0.0023956298828125,-0.0159454345703125
1761315815336825900,4.466825927734375,-0.9861297607421875,-0.0030364990234375,-0.0162353515625
1761315815346872800,4.476872802734375,-0.9857635498046875,-0.001983642578125,-0.0160369873046875
1761315815356919800,4.486919921875,-0.9863433837890625,-0.002532958984375,-0.015777587890625
1761315815366966800,4.496966796875,-0.9868927001953125,-0.002532958984375,-0.0154266357421875
1761315815377014800,4.507014892578125,-0.9857177734375,-0.0024566650390625,-0.0154571533203125
1761315815387061800,4.517061767578125,-0.9851531982421875,-0.0023193359375,-0.0162353515625
1761315815397108700,4.527108642578125,-0.98516845703125,-0.0023651123046875,-0.01568603515625
1761315815407155700,4.53715576171875,-0.9860076904296875,-0.0023193359375,-0.016204833984375
1761315815417202700,4.54720263671875,-0.9871368408203125,-0.001861572265625,-0.01593017578125
1761315815427251000,4.5572509765625,-0.9863128662109375,-0.002655029296875,-0.0152587890625
1761315815437298000,4.5672978515625,-0.98565673828125,-0.0021820068359375,-0.0152740478515625
1761315815447345000,4.577344970703125,-0.986175537109375,-0.0023956298828125,-0.0158843994140625
1761315815457391600,4.5873916015625,-0.985443115234375,-0.002349853515625,-0.015350341796875
1761315815467438600,4.5974384765625,-0.9853363037109375,-0.0025634765625,-0.0167999267578125
1761315815477486800,4.60748681640625,-0.986114501953125,-0.00213623046875,-0.015106201171875
1761315815487533800,4.617533935546875,-0.9856109619140625,-0.0030670166015625,-0.0147552490234375
1761315815497580800,4.627580810546875,-0.9865875244140625,-0.00323486328125,-0.015777587890625
1761315815507627800,4.637627685546875,-0.9859619140625,-0.00225830078125,-0.015899658203125
1761315815517675000,4.647675048828125,-0.9864044189453125,-0.001922607421875,-0.0162353515625
1761315815527722000,4.657721923828125,-0.9864044189453125,-0.0019683837890625,-0.0152435302734375
1761315815537769700,4.667769775390625,-0.9864349365234375,-0.002655029296875,-0.0159454345703125
1761315815547816700,4.677816650390625,-0.9862518310546875,-0.0015411376953125,-0.0160369873046875
1761315815557863700,4.68786376953125,-0.986358642578125,-0.002166748046875,-0.01580810546875
1761315815567911000,4.697910888671875,-0.9856414794921875,-0.002655029296875,-0.0153350830078125
1761315815577958000,4.7079580078125,-0.9854736328125,-0.0027008056640625,-0.015899658203125
1761315815588006000,4.718005859375,-0.9858551025390625,-0.002899169921875,-0.0159454345703125
1761315815598052900,4.728052978515625,-0.98516845703125,-0.001861572265625,-0.015838623046875
1761315815608099600,4.738099609375,-0.98699951171875,-0.0026092529296875,-0.015716552734375
1761315815618146800,4.748146728515625,-0.9859466552734375,-0.002593994140625,-0.0156097412109375
1761315815628193800,4.75819384765625,-0.9858551025390625,-0.0029754638671875,-0.0160675048828125
1761315815638240800,4.76824072265625,-0.9865570068359375,-0.0026397705078125,-0.0156707763671875
1761315815648288800,4.778288818359375,-0.98675537109375,-0.001708984375,-0.016571044921875
1761315815658336000,4.7883359375,-0.98602294921875,-0.0017852783203125,-0.015838623046875
1761315815668383000,4.798383056640625,-0.9868011474609375,-0.0025634765625,-0.0151824951171875
1761315815678430000,4.808429931640625,-0.985595703125,-0.0026397705078125,-0.0164794921875
1761315815688477000,4.818476806640625,-0.9858856201171875,-0.00299072265625,-0.015869140625
1761315815698523600,4.828523681640625,-0.98504638671875,-0.0022430419921875,-0.014739990234375
1761315815708568800,4.83856884765625,-0.9853363037109375,-0.0023956298828125,-0.0162353515625
1761315815718615800,4.84861572265625,-0.98504638671875,-0.0028839111328125,-0.0162506103515625
1761315815728662800,4.858662841796875,-0.986083984375,-0.002166748046875,-0.015960693359375
1761315815738710800,4.868710693359375,-0.9857330322265625,-0.0018157958984375,-0.0161895751953125
1761315815748757800,4.8787578125,-0.985504150390625,-0.0020294189453125,-0.015380859375
1761315815758804700,4.8888046875,-0.9859771728515625,-0.0023956298828125,-0.015838623046875
1761315815768851700,4.898851806640625,-0.98651123046875,-0.0023040771484375,-0.0154571533203125
1761315815778898700,4.908898681640625,-0.9856109619140625,-0.0019989013671875,-0.015777587890625
1761315815788946000,4.91894580078125,-0.986724853515625,-0.001983642578125,-0.015716552734375
1761315815798994000,4.928993896484375,-0.9862823486328125,-0.0026702880859375,-0.016845703125
1761315815809041000,4.939041015625,-0.9854583740234375,-0.002166748046875,-0.0157470703125
1761315815819087600,4.949087646484375,-0.9862060546875,-0.0020904541015625,-0.0155792236328125
1761315815829134600,4.959134521484375,-0.98651123046875,-0.0024871826171875,-0.015960693359375
1761315815839181800,4.969181884765625,-0.9859161376953125,-0.0027008056640625,-0.0158538818359375
1761315815849228800,4.979228759765625,-0.98590087890625,-0.0014801025390625,-0.015411376953125
1761315815859276800,4.98927685546875,-0.9862060546875,-0.00238037109375,-0.016571044921875
1761315815869323800,4.99932373046875,-0.9864654541015625,-0.002471923828125,-0.0158233642578125
1761315815879371000,5.00937109375,-0.985931396484375,-0.0023040771484375,-0.0152435302734375
1761315815889419300,5.019419189453125,-0.9852142333984375,-0.0023193359375,-0.015625
1761315815899466200,5.02946630859375,-0.9857635498046875,-0.0027923583984375,-0.0158538818359375
1761315815909514200,5.03951416015625,-0.986297607421875,-0.0020904541015625,-0.015655517578125
1761315815919561200,5.049561279296875,-0.98651123046875,-0.002288818359375,-0.0162353515625
1761315815929608400,5.0596083984375,-0.98614501953125,-0.001983642578125,-0.01580810546875
1761315815939655400,5.069655517578125,-0.98602294921875,-0.0025482177734375,-0.014984130859375
1761315815949702100,5.0797021484375,-0.98553466796875,-0.0024871826171875,-0.0158843994140625
1761315815959749000,5.0897490234375,-0.98577880859375,-0.00238037109375,-0.01544189453125
1761315815969797000,5.099797119140625,-0.9852447509765625,-0.0024261474609375,-0.016143798828125
1761315815979844400,5.10984423828125,-0.9854736328125,-0.003143310546875,-0.0162200927734375
1761315815989891300,5.119891357421875,-0.98504638671875,-0.00177001953125,-0.0153350830078125
1761315815999938300,5.129938232421875,-0.98626708984375,-0.0017547607421875,-0.015228271484375
1761315816009985300,5.1399853515625,-0.985626220703125,-0.002197265625,-0.0159454345703125
1761315816020033000,5.150032958984375,-0.986114501953125,-0.0019989013671875,-0.015533447265625
1761315816030080300,5.160080322265625,-0.9864501953125,-0.0023040771484375,-0.01568603515625
1761315816040127200,5.170127197265625,-0.985107421875,-0.0024871826171875,-0.0159149169921875
1761315816050174200,5.18017431640625,-0.9866790771484375,-0.0025634765625,-0.015472412109375
1761315816060221200,5.19022119140625,-0.9861907958984375,-0.0022735595703125,-0.016021728515625
1761315816070268200,5.20026806640625,-0.9857330322265625,-0.0022735595703125,-0.01605224609375
1761315816080316400,5.21031640625,-0.986053466796875,-0.0018768310546875,-0.0150299072265625
1761315816090363400,5.22036328125,-0.98626708984375,-0.0026092529296875,-0.0155487060546875
1761315816100410000,5.23041015625,-0.9869384765625,-0.002349853515625,-0.0149993896484375
1761315816110457000,5.24045703125,-0.9852447509765625,-0.0025482177734375,-0.015594482421875
1761315816120504000,5.250504150390625,-0.9866790771484375,-0.002105712890625,-0.0160064697265625
1761315816130551300,5.26055126953125,-0.9869537353515625,-0.002410888671875,-0.015777587890625
1761315816140599300,5.270599365234375,-0.986358642578125,-0.0022430419921875,-0.0154876708984375
1761315816150646300,5.280646240234375,-0.985626220703125,-0.00225830078125,-0.0161285400390625
1761315816160693200,5.290693359375,-0.98529052734375,-0.0023193359375,-0.0161895751953125
1761315816170740200,5.300740234375,-0.986328125,-0.002197265625,-0.0157318115234375
1761315816180787200,5.310787109375,-0.98638916015625,-0.002166748046875,-0.0157623291015625
1761315816190834200,5.320834228515625,-0.9857940673828125,-0.0019989013671875,-0.0156707763671875
1761315816200882200,5.330882080078125,-0.986724853515625,-0.0021514892578125,-0.0163421630859375
1761315816210929200,5.34092919921875,-0.986083984375,-0.001617431640625,-0.0158538818359375
1761315816220976000,5.35097607421875,-0.985076904296875,-0.00225830078125,-0.015594482421875
1761315816231023400,5.3610234375,-0.9858856201171875,-0.0022125244140625,-0.015289306640625
1761315816241070300,5.3710703125,-0.9857635498046875,-0.0023956298828125,-0.0161895751953125
1761315816251117300,5.381117431640625,-0.986724853515625,-0.0028839111328125,-0.0148773193359375
1761315816261165000,5.3911650390625,-0.986328125,-0.0029754638671875,-0.0158843994140625
1761315816271212300,5.40121240234375,-0.985809326171875,-0.00250244140625,-0.015838623046875
1761315816281259300,5.41125927734375,-0.9854278564453125,-0.002593994140625,-0.015655517578125
1761315816291306200,5.42130615234375,-0.9853973388671875,-0.002899169921875,-0.016021728515625
1761315816301353200,5.431353271484375,-0.985809326171875,-0.0021820068359375,-0.015869140625
1761315816311401200,5.441401123046875,-0.9858551025390625,-0.0018463134765625,-0.0145263671875
1761315816321448400,5.451448486328125,-0.9863433837890625,-0.0019073486328125,-0.0162506103515625
1761315816331495200,5.4614951171875,-0.98541259765625,-0.00225830078125,-0.01641845703125
1761315816341542100,5.471542236328125,-0.9862213134765625,-0.0015869140625,-0.0155487060546875
1761315816351589000,5.481589111328125,-0.9857940673828125,-0.001953125,-0.015960693359375
1761315816361636000,5.491635986328125,-0.98638916015625,-0.0022430419921875,-0.0159912109375
1761315816371684400,5.501684326171875,-0.9856414794921875,-0.002838134765625,-0.01617431640625
1761315816381731300,5.5117314453125,-0.98529052734375,-0.003265380859375,-0.0155029296875
1761315816391778300,5.5217783203125,-0.9862823486328125,-0.002899169921875,-0.0155181884765625
1761315816401825300,5.5318251953125,-0.98577880859375,-0.0037384033203125,-0.0157012939453125
1761315816411872300,5.541872314453125,-0.9857330322265625,-0.0025482177734375,-0.0153350830078125
1761315816421919200,5.551919189453125,-0.9865875244140625,-0.002532958984375,-0.0153045654296875
1761315816431967200,5.56196728515625,-0.98651123046875,-0.0018157958984375,-0.015350341796875
1761315816442014200,5.57201416015625,-0.986083984375,-0.001953125,-0.015869140625
1761315816452061200,5.582061279296875,-0.98541259765625,-0.0018157958984375,-0.016082763671875
1761315816462108200,5.592108154296875,-0.9860687255859375,-0.002166748046875,-0.0154266357421875
1761315816472155400,5.6021552734375,-0.985595703125,-0.002532958984375,-0.0145721435546875
1761315816482202400,5.612202392578125,-0.9864959716796875,-0.0025177001953125,-0.014984130859375
1761315816492250000,5.62225,-0.9866943359375,-0.0018768310546875,-0.0159149169921875
1761315816502297000,5.632297119140625,-0.98553466796875,-0.002532958984375,-0.0151824951171875
1761315816512344000,5.642343994140625,-0.9861602783203125,-0.0030364990234375,-0.0161285400390625
1761315816522391300,5.652391357421875,-0.986846923828125,-0.001800537109375,-0.01513671875
1761315816532438300,5.662438232421875,-0.98724365234375,-0.0027313232421875,-0.0157928466796875
1761315816542485200,5.6724853515625,-0.98638916015625,-0.002166748046875,-0.01568603515625
1761315816552533200,5.682533203125,-0.986328125,-0.002655029296875,-0.0161590576171875
1761315816562580200,5.692580322265625,-0.986480712890625,-0.002166748046875,-0.0157470703125
1761315816572627200,5.702627197265625,-0.9853515625,-0.0024566650390625,-0.01531982421875
1761315816582674200,5.712674072265625,-0.98583984375,-0.0023956298828125,-0.015716552734375
1761315816592721200,5.72272119140625,-0.98504638671875,-0.0022735595703125,-0.01629638671875
1761315816602769200,5.73276904296875,-0.9855194091796875,-0.00238037109375,-0.0155792236328125
1761315816612816400,5.74281640625,-0.9862518310546875,-0.0018768310546875,-0.0161895751953125
1761315816622863400,5.75286328125,-0.9859161376953125,-0.0018768310546875,-0.0154876708984375
1761315816632910300,5.762910400390625,-0.98541259765625,-0.0018463134765625,-0.0156097412109375
1761315816642957300,5.772957275390625,-0.985687255859375,-0.0024566650390625,-0.016021728515625
1761315816653004300,5.78300439453125,-0.9864654541015625,-0.002349853515625,-0.015716552734375
1761315816663052300,5.79305224609375,-0.985382080078125,-0.002899169921875,-0.01580810546875
1761315816673099300,5.803099365234375,-0.985565185546875,-0.002410888671875,-0.014862060546875
1761315816683146200,5.813146240234375,-0.986083984375,-0.0022430419921875,-0.0161285400390625
1761315816693193200,5.823193115234375,-0.986358642578125,-0.002227783203125,-0.0157012939453125
1761315816703240200,5.833240234375,-0.9866180419921875,-0.0020904541015625,-0.01544189453125
1761315816713287200,5.843287109375,-0.9865570068359375,-0.002288818359375,-0.0149993896484375
1761315816723335200,5.853335205078125,-0.9867706298828125,-0.00244140625,-0.0147552490234375
1761315816733382100,5.863382080078125,-0.9860687255859375,-0.0021820068359375,-0.015289306640625
1761315816743429000,5.87342919921875,-0.986572265625,-0.0017547607421875,-0.015777587890625
1761315816753476000,5.88347607421875,-0.985931396484375,-0.00201416015625,-0.0152740478515625
1761315816763523300,5.8935234375,-0.9853668212890625,-0.0023040771484375,-0.01605224609375
1761315816773570300,5.9035703125,-0.9860076904296875,-0.002166748046875,-0.01556396484375
1761315816783618300,5.913618408203125,-0.9858856201171875,-0.00213623046875,-0.014862060546875
1761315816793665300,5.923665283203125,-0.9856719970703125,-0.0023651123046875,-0.01593017578125
1761315816803712300,5.933712158203125,-0.9860382080078125,-0.0027618408203125,-0.0158843994140625
1761315816813759200,5.94375927734375,-0.9853515625,-0.00213623046875,-0.01513671875
1761315816823806200,5.95380615234375,-0.9861907958984375,-0.00201416015625,-0.0157012939453125
1761315816833853200,5.963853271484375,-0.9856109619140625,-0.00244140625,-0.0157470703125
1761315816843901200,5.973901123046875,-0.9861602783203125,-0.0019683837890625,-0.0150146484375
1761315816853948200,5.9839482421875,-0.9871826171875,-0.0026702880859375,-0.0151214599609375
1761315816863995400,5.993995361328125,-0.985687255859375,-0.001861572265625,-0.0160675048828125
1761315816874042400,6.00404248046875,-0.9859619140625,-0.00128173828125,-0.0157470703125
1761315816884088300,6.01408837890625,-0.98614501953125,-0.0016937255859375,-0.0163116455078125
1761315816894135300,6.02413525390625,-0.9853973388671875,-0.0024566650390625,-0.015777587890625
1761315816904183300,6.034183349609375,-0.9861907958984375,-0.00213623046875,-0.0159759521484375
1761315816914230300,6.044230224609375,-0.9859161376953125,-0.002685546875,-0.0160675048828125
1761315816924277200,6.05427734375,-0.986480712890625,-0.0022430419921875,-0.0159759521484375
1761315816934324200,6.06432421875,-0.9864959716796875,-0.0021209716796875,-0.015625
1761315816944371200,6.07437109375,-0.9860076904296875,-0.00250244140625,-0.016448974609375
1761315816954418400,6.08441845703125,-0.9869384765625,-0.00238037109375,-0.0152587890625
1761315816964466400,6.094466552734375,-0.9868316650390625,-0.00201416015625,-0.0158538818359375
1761315816974513400,6.104513427734375,-0.9849853515625,-0.002227783203125,-0.0162506103515625
1761315816984560000,6.11456005859375,-0.9856109619140625,-0.0024871826171875,-0.0157012939453125
1761315816994607000,6.124607177734375,-0.986572265625,-0.00299072265625,-0.0150146484375
1761315817004654300,6.134654296875,-0.9857177734375,-0.0032958984375,-0.01513671875
1761315817014701300,6.144701416015625,-0.98626708984375,-0.001373291015625,-0.01531982421875
1761315817024749300,6.154749267578125,-0.985748291015625,-0.001922607421875,-0.01531982421875
1761315817034796300,6.16479638671875,-0.9863128662109375,-0.002349853515625,-0.015869140625
1761315817044843300,6.17484326171875,-0.986724853515625,-0.0022430419921875,-0.0155487060546875
1761315817054890500,6.184890380859375,-0.98712158203125,-0.001373291015625,-0.0167388916015625
1761315817064937500,6.1949375,-0.986480712890625,-0.00201416015625,-0.0157470703125
1761315817074984200,6.204984130859375,-0.9856109619140625,-0.00311279296875,-0.01617431640625
1761315817085032200,6.2150322265625,-0.9855194091796875,-0.0026092529296875,-0.0158538818359375
1761315817095079400,6.225079345703125,-0.9867401123046875,-0.00201416015625,-0.016021728515625
1761315817105126400,6.23512646484375,-0.98626708984375,-0.002227783203125,-0.015960693359375
1761315817115173400,6.24517333984375,-0.9849395751953125,-0.002197265625,-0.015350341796875
1761315817125220400,6.255220458984375,-0.9853973388671875,-0.00213623046875,-0.015625
1761315817135267300,6.265267333984375,-0.9863739013671875,-0.002288818359375,-0.0159759521484375
1761315817145315300,6.2753154296875,-0.9866180419921875,-0.001983642578125,-0.0162506103515625
1761315817155362300,6.2853623046875,-0.98614501953125,-0.0025177001953125,-0.015899658203125
1761315817165409300,6.2954091796875,-0.9846343994140625,-0.002838134765625,-0.0163421630859375
1761315817175456300,6.305456298828125,-0.9857177734375,-0.002410888671875,-0.015594482421875
1761315817185503200,6.315503173828125,-0.9864501953125,-0.0022430419921875,-0.0153350830078125
1761315817195550200,6.32555029296875,-0.98565673828125,-0.002899169921875,-0.0153045654296875
1761315817205598500,6.335598388671875,-0.985504150390625,-0.001983642578125,-0.0155029296875
1761315817215645400,6.3456455078125,-0.986236572265625,-0.0021514892578125,-0.0164642333984375
1761315817225692200,6.355692138671875,-0.9859771728515625,-0.00250244140625,-0.015350341796875
1761315817235739100,6.3657392578125,-0.9855499267578125,-0.00274658203125,-0.0158538818359375
1761315817245786400,6.375786376953125,-0.98480224609375,-0.0023345947265625,-0.015838623046875
1761315817255833300,6.385833251953125,-0.984954833984375,-0.00213623046875,-0.015167236328125
1761315817265881300,6.39588134765625,-0.985137939453125,-0.00177001953125,-0.0156097412109375
1761315817275928300,6.40592822265625,-0.9858245849609375,-0.0024261474609375,-0.015960693359375
1761315817285975300,6.415975341796875,-0.986114501953125,-0.002685546875,-0.0170135498046875
1761315817296022500,6.4260224609375,-0.986419677734375,-0.00225830078125,-0.015655517578125
1761315817306069200,6.4360693359375,-0.9864959716796875,-0.0023345947265625,-0.0154876708984375
1761315817316116200,6.4461162109375,-0.9861602783203125,-0.001922607421875,-0.0152130126953125
1761315817326164200,6.456164306640625,-0.985260009765625,-0.0022125244140625,-0.016204833984375
1761315817336211200,6.466211181640625,-0.9867095947265625,-0.0017547607421875,-0.0168609619140625
1761315817346258400,6.476258544921875,-0.9860992431640625,-0.0023193359375,-0.0154571533203125
1761315817356305400,6.486305419921875,-0.9861297607421875,-0.002593994140625,-0.0159454345703125
1761315817366352400,6.496352294921875,-0.987152099609375,-0.0027008056640625,-0.015350341796875
1761315817376399400,6.5063994140625,-0.9861907958984375,-0.0030517578125,-0.01544189453125
1761315817386446300,6.5164462890625,-0.9858551025390625,-0.002593994140625,-0.015594482421875
1761315817396494300,6.526494384765625,-0.9862823486328125,-0.002716064453125,-0.015838623046875
1761315817406541300,6.536541259765625,-0.9862518310546875,-0.0026397705078125,-0.015380859375
1761315817416588300,6.54658837890625,-0.9859619140625,-0.0030364990234375,-0.0164337158203125
1761315817426635300,6.55663525390625,-0.986602783203125,-0.00286865234375,-0.01519775390625
1761315817436682200,6.56668212890625,-0.986297607421875,-0.00164794921875,-0.014556884765625
1761315817446729500,6.5767294921875,-0.985565185546875,-0.0020751953125,-0.0157318115234375
1761315817456777200,6.586777099609375,-0.98541259765625,-0.00299072265625,-0.0159912109375
1761315817466824200,6.59682421875,-0.9860382080078125,-0.00299072265625,-0.0154876708984375
1761315817476871200,6.60687109375,-0.986358642578125,-0.0020599365234375,-0.0154876708984375
1761315817486918100,6.616918212890625,-0.9864654541015625,-0.002960205078125,-0.0155029296875
1761315817496965400,6.62696533203125,-0.9866790771484375,-0.0020599365234375,-0.01531982421875
1761315817507012400,6.637012451171875,-0.9858551025390625,-0.00262451171875,-0.015594482421875
1761315817517060400,6.647060302734375,-0.984588623046875,-0.00244140625,-0.0161285400390625
1761315817527107300,6.657107421875,-0.9854583740234375,-0.0025787353515625,-0.0158538818359375
1761315817537154300,6.667154296875,-0.985748291015625,-0.0022430419921875,-0.01593017578125
1761315817547201300,6.677201171875,-0.985137939453125,-0.0028533935546875,-0.0159759521484375
1761315817557248300,6.687248291015625,-0.9865264892578125,-0.0024261474609375,-0.015869140625
1761315817567295200,6.697295166015625,-0.987335205078125,-0.0022125244140625,-0.0154876708984375
1761315817577343200,6.70734326171875,-0.9859619140625,-0.0017852783203125,-0.015594482421875
1761315817587390500,6.717390380859375,-0.9862060546875,-0.00189208984375,-0.015777587890625
1761315817597437400,6.7274375,-0.98651123046875,-0.0019378662109375,-0.0161895751953125
1761315817607484400,6.737484375,-0.9854888916015625,-0.002044677734375,-0.0169830322265625
1761315817617531400,6.747531494140625,-0.985931396484375,-0.002655029296875,-0.0169830322265625
1761315817627578400,6.757578369140625,-0.987213134765625,-0.0028839111328125,-0.0152435302734375
1761315817637625300,6.767625244140625,-0.985931396484375,-0.002685546875,-0.016021728515625
1761315817647673300,6.77767333984375,-0.9871826171875,-0.002532958984375,-0.0159454345703125
1761315817657720300,6.78772021484375,-0.986083984375,-0.002197265625,-0.0152740478515625
1761315817667767300,6.797767333984375,-0.9857330322265625,-0.0020904541015625,-0.0155181884765625
1761315817677814300,6.807814208984375,-0.9855194091796875,-0.0024261474609375,-0.016510009765625
1761315817687861200,6.817861328125,-0.986175537109375,-0.0018157958984375,-0.0153350830078125
1761315817697908500,6.827908447265625,-0.986114501953125,-0.002044677734375,-0.0157470703125
1761315817707956200,6.837956298828125,-0.9859466552734375,-0.0024566650390625,-0.0171661376953125
1761315817718003200,6.848003173828125,-0.985443115234375,-0.0020904541015625,-0.015625
1761315817728050200,6.85805029296875,-0.9861907958984375,-0.0024261474609375,-0.0160369873046875
1761315817738097400,6.868097412109375,-0.98590087890625,-0.0023193359375,-0.015625
1761315817748144400,6.878144287109375,-0.9859466552734375,-0.0017242431640625,-0.01544189453125
1761315817758191400,6.88819140625,-0.985992431640625,-0.0020904541015625,-0.01593017578125
1761315817768239400,6.8982392578125,-0.9867401123046875,-0.0025177001953125,-0.0159149169921875
1761315817778286300,6.908286376953125,-0.98712158203125,-0.0019989013671875,-0.0157012939453125
1761315817788333300,6.918333251953125,-0.9864654541015625,-0.00244140625,-0.015411376953125
1761315817798380300,6.92838037109375,-0.986114501953125,-0.002716064453125,-0.01654052734375
1761315817808427300,6.93842724609375,-0.986968994140625,-0.0025787353515625,-0.0157318115234375
1761315817818474200,6.94847412109375,-0.9864501953125,-0.00201416015625,-0.0155029296875
1761315817828521200,6.958521240234375,-0.987152099609375,-0.0021209716796875,-0.01629638671875
1761315817838569500,6.968569580078125,-0.98541259765625,-0.0025634765625,-0.0163116455078125
1761315817848616400,6.978616455078125,-0.985809326171875,-0.002105712890625,-0.0155792236328125
1761315817858663400,6.988663330078125,-0.9867401123046875,-0.0022430419921875,-0.015777587890625
1761315817868710400,6.99871044921875,-0.985809326171875,-0.0018310546875,-0.0150604248046875
1761315817878757000,7.008757080078125,-0.9854888916015625,-0.0023651123046875,-0.0162200927734375
1761315817888805000,7.01880517578125,-0.985992431640625,-0.0028228759765625,-0.016693115234375
1761315817898853400,7.028853271484375,-0.9865875244140625,-0.0021209716796875,-0.0160675048828125
1761315817908900400,7.038900390625,-0.985870361328125,-0.0022125244140625,-0.0157928466796875
1761315817918947300,7.048947265625,-0.986358642578125,-0.0017852783203125,-0.0155487060546875
1761315817928994300,7.058994384765625,-0.98553466796875,-0.0023193359375,-0.0155792236328125
1761315817939041000,7.069041015625,-0.9868621826171875,-0.0026702880859375,-0.0152435302734375
1761315817949088000,7.079087890625,-0.986785888671875,-0.0026702880859375,-0.015869140625
1761315817959135200,7.08913525390625,-0.9870758056640625,-0.0019378662109375,-0.01519775390625
1761315817969183200,7.099183349609375,-0.9876861572265625,-0.0019683837890625,-0.0158233642578125
1761315817979230200,7.109230224609375,-0.98577880859375,-0.002899169921875,-0.0154571533203125
1761315817989277200,7.119277099609375,-0.98583984375,-0.0028533935546875,-0.0171051025390625
1761315817999324200,7.12932421875,-0.9858551025390625,-0.00341796875,-0.015869140625
1761315818009371400,7.139371337890625,-0.9851531982421875,-0.0030364990234375,-0.015960693359375
1761315818019418000,7.149418212890625,-0.9859771728515625,-0.00225830078125,-0.014801025390625
1761315818029466000,7.159466064453125,-0.986053466796875,-0.0022430419921875,-0.01556396484375
1761315818039513000,7.16951318359375,-0.98590087890625,-0.002166748046875,-0.01580810546875
1761315818049560000,7.17956005859375,-0.9867401123046875,-0.0013427734375,-0.015777587890625
1761315818059607300,7.189607177734375,-0.986175537109375,-0.0019378662109375,-0.0159454345703125
1761315818069654300,7.199654296875,-0.98577880859375,-0.002838134765625,-0.0152587890625
1761315818079701200,7.209701171875,-0.9860687255859375,-0.0019683837890625,-0.0149993896484375
1761315818089749000,7.2197490234375,-0.98651123046875,-0.0024566650390625,-0.015655517578125
1761315818099796200,7.229796142578125,-0.98577880859375,-0.0021820068359375,-0.016021728515625
1761315818109843200,7.23984326171875,-0.984893798828125,-0.0024261474609375,-0.0152435302734375
1761315818119890200,7.24989013671875,-0.987091064453125,-0.0025482177734375,-0.016021728515625
1761315818129937200,7.259937255859375,-0.986236572265625,-0.002410888671875,-0.0158233642578125
1761315818139984100,7.269984130859375,-0.9865570068359375,-0.0030517578125,-0.0159759521484375
1761315818150031000,7.280031005859375,-0.9855499267578125,-0.0026702880859375,-0.0151824951171875
1761315818160079400,7.290079345703125,-0.9861297607421875,-0.002166748046875,-0.01507568359375
1761315818170126000,7.3001259765625,-0.986053466796875,-0.0025177001953125,-0.016571044921875
1761315818180173000,7.310173095703125,-0.9857940673828125,-0.0019989013671875,-0.0156707763671875
1761315818190220000,7.320219970703125,-0.985870361328125,-0.0020751953125,-0.015960693359375
1761315818200267000,7.33026708984375,-0.986419677734375,-0.00201416015625,-0.0147247314453125
1761315818210314200,7.340314208984375,-0.984527587890625,-0.0029754638671875,-0.0158538818359375
1761315818220361200,7.350361328125,-0.98541259765625,-0.00238037109375,-0.0158843994140625
1761315818230409200,7.3604091796875,-0.9846038818359375,-0.0028076171875,-0.015899658203125
1761315818240456200,7.370456298828125,-0.9850921630859375,-0.002227783203125,-0.0159759521484375
1761315818250503400,7.38050341796875,-0.9864044189453125,-0.0023651123046875,-0.0151214599609375
1761315818260550100,7.390550048828125,-0.986114501953125,-0.0018768310546875,-0.016082763671875
1761315818270597000,7.40059716796875,-0.9871978759765625,-0.0025482177734375,-0.0158538818359375
1761315818280644000,7.41064404296875,-0.986480712890625,-0.001983642578125,-0.0157012939453125
1761315818290692000,7.420692138671875,-0.9863739013671875,-0.0026397705078125,-0.0157928466796875
1761315818300739300,7.4307392578125,-0.9860076904296875,-0.0024871826171875,-0.01568603515625
1761315818310786300,7.440786376953125,-0.9867401123046875,-0.00213623046875,-0.01556396484375
1761315818320833300,7.450833251953125,-0.9863433837890625,-0.00274658203125,-0.015625
1761315818330880300,7.46088037109375,-0.9864501953125,-0.0024871826171875,-0.0158843994140625
1761315818340927200,7.47092724609375,-0.9858551025390625,-0.0022735595703125,-0.0159454345703125
1761315818350974200,7.48097412109375,-0.9856719970703125,-0.00177001953125,-0.0160980224609375
1761315818361022200,7.491022216796875,-0.9855194091796875,-0.0028839111328125,-0.01666259765625
1761315818371069200,7.501069091796875,-0.9864349365234375,-0.0018310546875,-0.015289306640625
1761315818381116200,7.5111162109375,-0.9866943359375,-0.002288818359375,-0.014862060546875
1761315818391163100,7.5211630859375,-0.9855804443359375,-0.0024871826171875,-0.015411376953125
1761315818401210000,7.531210205078125,-0.9862060546875,-0.001312255859375,-0.0162200927734375
1761315818411257300,7.54125732421875,-0.9860076904296875,-0.002471923828125,-0.0164947509765625
1761315818421305000,7.55130517578125,-0.9856719970703125,-0.001373291015625,-0.017059326171875
1761315818431352000,7.56135205078125,-0.986572265625,-0.0019683837890625,-0.0155487060546875
1761315818441399000,7.57139892578125,-0.9859161376953125,-0.002044677734375,-0.0158843994140625
1761315818451446300,7.5814462890625,-0.9859771728515625,-0.0021209716796875,-0.01611328125
1761315818461493200,7.5914931640625,-0.987213134765625,-0.0023040771484375,-0.0154266357421875
1761315818471540200,7.601540283203125,-0.9864959716796875,-0.0017852783203125,-0.014984130859375
1761315818481587200,7.611587158203125,-0.985076904296875,-0.002685546875,-0.0152587890625
1761315818491635200,7.62163525390625,-0.986480712890625,-0.0018310546875,-0.015472412109375
1761315818501682200,7.63168212890625,-0.9863433837890625,-0.0029296875,-0.015838623046875
1761315818511729200,7.641729248046875,-0.98602294921875,-0.00238037109375,-0.0156707763671875
1761315818521776000,7.651776123046875,-0.9857177734375,-0.001861572265625,-0.0162200927734375
1761315818531823000,7.661822998046875,-0.986572265625,-0.0024261474609375,-0.015838623046875
1761315818541870000,7.6718701171875,-0.9864349365234375,-0.0025634765625,-0.015533447265625
1761315818551917000,7.6819169921875,-0.9863128662109375,-0.002288818359375,-0.0154266357421875
1761315818561965300,7.69196533203125,-0.9857177734375,-0.0021209716796875,-0.0147705078125
1761315818572012300,7.70201220703125,-0.986053466796875,-0.0023651123046875,-0.0146484375
1761315818582059300,7.712059326171875,-0.985260009765625,-0.0019378662109375,-0.015869140625
1761315818592106000,7.72210595703125,-0.9852294921875,-0.0020599365234375,-0.016326904296875
1761315818602153200,7.7321533203125,-0.9866943359375,-0.0024871826171875,-0.0162506103515625
1761315818612200200,7.7422001953125,-0.9854736328125,-0.0017547607421875,-0.0160064697265625
1761315818622248200,7.752248291015625,-0.985870361328125,-0.0018768310546875,-0.016082763671875
1761315818632295200,7.762295166015625,-0.986236572265625,-0.00250244140625,-0.01544189453125
1761315818642342100,7.772342041015625,-0.986328125,-0.0034027099609375,-0.01629638671875
1761315818652389400,7.782389404296875,-0.9859771728515625,-0.0029296875,-0.0157012939453125
1761315818662436400,7.792436279296875,-0.9857940673828125,-0.0024566650390625,-0.0155792236328125
1761315818672483300,7.8024833984375,-0.985198974609375,-0.002105712890625,-0.01593017578125
1761315818682530000,7.812530029296875,-0.98638916015625,-0.0024871826171875,-0.01507568359375
1761315818692578000,7.822578125,-0.9863433837890625,-0.0017242431640625,-0.0159149169921875
1761315818702625300,7.832625244140625,-0.9861602783203125,-0.002471923828125,-0.01617431640625
1761315818712672300,7.84267236328125,-0.9862518310546875,-0.0026702880859375,-0.0157470703125
1761315818722719200,7.85271923828125,-0.986083984375,-0.0023040771484375,-0.0146636962890625
1761315818732766200,7.86276611328125,-0.9868011474609375,-0.001495361328125,-0.0151214599609375
1761315818742813200,7.872813232421875,-0.986663818359375,-0.0019683837890625,-0.01519775390625
1761315818752860200,7.882860107421875,-0.9874267578125,-0.0020599365234375,-0.016143798828125
1761315818762908200,7.892908203125,-0.98590087890625,-0.0027618408203125,-0.0160980224609375
1761315818772955100,7.902955078125,-0.986114501953125,-0.002471923828125,-0.0157318115234375
1761315818783002000,7.913002197265625,-0.98626708984375,-0.0020904541015625,-0.0159912109375
1761315818793049000,7.923049072265625,-0.9860382080078125,-0.00225830078125,-0.0159912109375
1761315818803096300,7.933096435546875,-0.98638916015625,-0.001800537109375,-0.0156402587890625
1761315818813143300,7.943143310546875,-0.9861907958984375,-0.0025634765625,-0.0152587890625
1761315818823190300,7.953190185546875,-0.98590087890625,-0.00286865234375,-0.015838623046875
1761315818833238000,7.963238037109375,-0.986572265625,-0.0017852783203125,-0.0158233642578125
1761315818843285000,7.973284912109375,-0.985931396484375,-0.00177001953125,-0.01580810546875
1761315818853332200,7.983332275390625,-0.9872283935546875,-0.002685546875,-0.0167388916015625
1761315818863379200,7.993379150390625,-0.9878082275390625,-0.001739501953125,-0.01531982421875
1761315818873426200,8.00342626953125,-0.9864959716796875,-0.0015716552734375,-0.015838623046875
1761315818883473200,8.01347314453125,-0.9862213134765625,-0.0023040771484375,-0.0169219970703125
1761315818893523200,8.023523193359376,-0.9864654541015625,-0.001983642578125,-0.0164794921875
1761315818903571200,8.0335712890625,-0.9864501953125,-0.0019683837890625,-0.01544189453125
1761315818913618200,8.0436181640625,-0.98602294921875,-0.0021820068359375,-0.01531982421875
1761315818923665400,8.05366552734375,-0.985748291015625,-0.0020751953125,-0.0154876708984375
1761315818933712100,8.063712158203124,-0.9866485595703125,-0.00244140625,-0.015533447265625
1761315818943759000,8.073759033203125,-0.986785888671875,-0.0022735595703125,-0.0156707763671875
1761315818953806000,8.08380615234375,-0.985687255859375,-0.0017852783203125,-0.0160675048828125
1761315818963853000,8.09385302734375,-0.9854888916015625,-0.002716064453125,-0.0165252685546875
1761315818973901300,8.1039013671875,-0.9858245849609375,-0.001922607421875,-0.0163726806640625
1761315818983948300,8.1139482421875,-0.9861907958984375,-0.00323486328125,-0.015228271484375
1761315818993995300,8.123995361328125,-0.986785888671875,-0.00274658203125,-0.01556396484375
1761315819004042200,8.134042236328124,-0.9866485595703125,-0.0019989013671875,-0.0153961181640625
1761315819014089200,8.144089111328125,-0.9866790771484375,-0.0023040771484375,-0.0153961181640625
1761315819024136200,8.15413623046875,-0.9856719970703125,-0.0028228759765625,-0.01678466796875
1761315819034183200,8.16418310546875,-0.9863128662109375,-0.002777099609375,-0.0157623291015625
1761315819044231200,8.174231201171875,-0.986328125,-0.0023956298828125,-0.0158843994140625
1761315819054278100,8.184278076171875,-0.9854888916015625,-0.0023193359375,-0.01617431640625
1761315819064325000,8.1943251953125,-0.9864654541015625,-0.00238037109375,-0.0166015625
1761315819074372400,8.204372314453124,-0.98638916015625,-0.0021209716796875,-0.015716552734375
1761315819084419300,8.21441943359375,-0.98614501953125,-0.00213623046875,-0.0161590576171875
1761315819094466300,8.22446630859375,-0.9860382080078125,-0.0014495849609375,-0.015869140625
1761315819104513300,8.23451318359375,-0.986358642578125,-0.00177001953125,-0.0154266357421875
1761315819114561000,8.24456103515625,-0.986724853515625,-0.002227783203125,-0.0154266357421875
1761315819124608300,8.254608154296875,-0.98663330078125,-0.00250244140625,-0.0160369873046875
1761315819134655200,8.2646552734375,-0.98626708984375,-0.002685546875,-0.0154876708984375
1761315819144702200,8.2747021484375,-0.986968994140625,-0.00225830078125,-0.0151824951171875
1761315819154749200,8.284749267578125,-0.986785888671875,-0.0017547607421875,-0.0167694091796875
1761315819164796200,8.294796142578125,-0.9857025146484375,-0.0027008056640625,-0.0154266357421875
1761315819174843100,8.304843017578126,-0.9849853515625,-0.002044677734375,-0.0159759521484375
1761315819184891100,8.31489111328125,-0.9858856201171875,-0.00201416015625,-0.0160369873046875
1761315819194938000,8.324938232421875,-0.9860076904296875,-0.00213623046875,-0.0157470703125
1761315819204985000,8.334985107421875,-0.9858245849609375,-0.0023193359375,-0.01519775390625
1761315819215032000,8.345031982421874,-0.9866485595703125,-0.0028076171875,-0.016204833984375
1761315819225079300,8.355079345703125,-0.9868927001953125,-0.002044677734375,-0.0162353515625
1761315819235126300,8.365126220703125,-0.9854278564453125,-0.0021209716796875,-0.015838623046875
1761315819245173200,8.37517333984375,-0.98614501953125,-0.0024871826171875,-0.015594482421875
1761315819255221200,8.38522119140625,-0.986419677734375,-0.00250244140625,-0.0152740478515625
1761315819265268000,8.39526806640625,-0.9854583740234375,-0.0024566650390625,-0.0154266357421875
1761315819275315200,8.405315185546876,-0.985382080078125,-0.0024261474609375,-0.0162353515625
1761315819285362200,8.415362060546874,-0.986175537109375,-0.002227783203125,-0.0158233642578125
1761315819295409200,8.4254091796875,-0.986663818359375,-0.00213623046875,-0.015380859375
1761315819305456000,8.4354560546875,-0.9864349365234375,-0.0025177001953125,-0.01605224609375
1761315819315503000,8.445503173828126,-0.98516845703125,-0.002166748046875,-0.01568603515625
1761315819325551400,8.45555126953125,-0.9862823486328125,-0.002532958984375,-0.0162811279296875
1761315819335598300,8.465598388671875,-0.9860687255859375,-0.00274658203125,-0.0157928466796875
1761315819345645300,8.475645263671876,-0.986328125,-0.0012969970703125,-0.01495361328125
1761315819355692000,8.485692138671874,-0.985595703125,-0.0029144287109375,-0.01580810546875
1761315819365739000,8.495739013671875,-0.9868927001953125,-0.0019989013671875,-0.015899658203125
1761315819375786200,8.5057861328125,-0.9853515625,-0.002532958984375,-0.0156707763671875
1761315819385833200,8.515833251953126,-0.9857940673828125,-0.0016326904296875,-0.015533447265625
1761315819395880200,8.525880126953124,-0.9872894287109375,-0.00201416015625,-0.015167236328125
1761315819405928200,8.53592822265625,-0.9857177734375,-0.0019989013671875,-0.016204833984375
1761315819415975200,8.54597509765625,-0.985626220703125,-0.0030670166015625,-0.0162506103515625
1761315819426022400,8.5560224609375,-0.985809326171875,-0.0026397705078125,-0.0161590576171875
1761315819436069400,8.5660693359375,-0.985748291015625,-0.002288818359375,-0.015716552734375
1761315819446116000,8.5761162109375,-0.986602783203125,-0.0017547607421875,-0.01568603515625
1761315819456163000,8.5861630859375,-0.985870361328125,-0.001983642578125,-0.0153350830078125
1761315819466211000,8.596211181640625,-0.986358642578125,-0.0018157958984375,-0.0147705078125
1761315819476258300,8.60625830078125,-0.9854278564453125,-0.002593994140625,-0.0164031982421875
1761315819486305300,8.61630517578125,-0.985565185546875,-0.0018157958984375,-0.01568603515625
1761315819496352300,8.626352294921874,-0.987213134765625,-0.0023193359375,-0.0157928466796875
1761315819506399200,8.636399169921875,-0.986053466796875,-0.0023040771484375,-0.0154266357421875
1761315819516446200,8.6464462890625,-0.9861297607421875,-0.002471923828125,-0.015869140625
1761315819526493200,8.6564931640625,-0.9860992431640625,-0.002532958984375,-0.0154266357421875
1761315819536540200,8.6665400390625,-0.9848480224609375,-0.002227783203125,-0.01544189453125
1761315819546588200,8.676588134765625,-0.986175537109375,-0.002105712890625,-0.0156097412109375
1761315819556635100,8.68663525390625,-0.9871978759765625,-0.0020751953125,-0.0154571533203125
1761315819566682000,8.69668212890625,-0.9859161376953125,-0.0026702880859375,-0.0158843994140625
1761315819576729300,8.706729248046875,-0.985015869140625,-0.001739501953125,-0.0154266357421875
1761315819586776300,8.7167763671875,-0.9850616455078125,-0.0023651123046875,-0.0148468017578125
1761315819596823300,8.7268232421875,-0.9864654541015625,-0.0019683837890625,-0.0156707763671875
1761315819606870300,8.736870361328124,-0.9869537353515625,-0.0022125244140625,-0.0158843994140625
1761315819616918000,8.74691796875,-0.9869232177734375,-0.0025482177734375,-0.0166473388671875
1761315819626965200,8.75696533203125,-0.9871673583984375,-0.0015716552734375,-0.0162811279296875
1761315819637012200,8.76701220703125,-0.986602783203125,-0.0013580322265625,-0.016143798828125
1761315819647059200,8.77705908203125,-0.9849090576171875,-0.0017547607421875,-0.0156707763671875
1761315819657106200,8.787106201171875,-0.9858856201171875,-0.00347900390625,-0.015289306640625
1761315819667153200,8.797153076171876,-0.9863739013671875,-0.003173828125,-0.0140380859375
