time,seconds_elapsed,z,y,x
1761315810976346400,0.106346435546875,0.0062427157536149025,-0.007701595313847065,0.0022242721170186996
1761315810986393000,0.11639306640625,0.008957542479038239,-0.0068235513754189014,0.002017078222706914
1761315810996441000,0.126441162109375,0.005026450380682945,-0.007517837453633547,0.0026370619889348745
1761315811006488300,0.13648828125,0.00914636068046093,-0.008726912550628185,0.0033894050866365433
1761315811016535300,0.146535400390625,0.006052566226571798,-0.007394266780465841,0.00199284334667027
1761315811026582300,0.156582275390625,0.0073165022768080235,-0.00866406224668026,0.0026181535795331
1761315811036629200,0.166629150390625,0.006399576086550951,-0.007904794998466969,0.002177666872739792
1761315811046676200,0.17667626953125,0.006050169467926025,-0.007181480061262846,0.000752875639591366
1761315811056724200,0.18672412109375,0.009887518361210823,-0.007157777901738882,0.00008495483780279756
1761315811066771200,0.196771240234375,0.00830693170428276,-0.007910920307040215,0.0014599448768422008
1761315811076818200,0.206818115234375,0.009301888756453991,-0.007871238514780998,0.0002836266648955643
1761315811086865200,0.216865234375,0.008226238191127777,-0.006385195069015026,0.0006285060080699623
1761315811096912100,0.226912109375,0.008617457002401352,-0.008215585723519325,0.0036756948102265596
1761315811106960400,0.23696044921875,0.006449110805988312,-0.008145811036229134,0.0023015039041638374
1761315811117007400,0.24700732421875,0.007413174957036972,-0.00962546281516552,0.0026381274219602346
1761315811127054300,0.257054443359375,0.008048871532082558,-0.0091170659288764,0.001457548001781106
1761315811137101000,0.26710107421875,0.008711998350918293,-0.008490157313644886,0.002514290390536189
1761315811147148000,0.27714794921875,0.009258479811251163,-0.00806298665702343,0.0025840650778263807
1761315811157196300,0.2871962890625,0.009104815311729908,-0.008068046532571316,-0.000031425301131093875
1761315811167243300,0.2972431640625,0.008243815042078495,-0.007358846720308065,0.0032679650466889143
1761315811177290200,0.307290283203125,0.007850466296076775,-0.006448311731219292,0.000180029688635841
1761315811187337200,0.317337158203125,0.009014267474412918,-0.00589650496840477,0.0015273229219019413
1761315811197384200,0.32738427734375,0.007131412625312805,-0.008249141275882721,0.0010066748363897204
1761315811207431400,0.337431396484375,0.0060142166912555695,-0.006525010801851749,0.002978213131427765
1761315811217479200,0.347479248046875,0.00791544746607542,-0.008682969957590103,0.00009187905379803851
1761315811227526100,0.357526123046875,0.005085306242108345,-0.007532484829425812,0.000015446334145963192
1761315811237573000,0.367572998046875,0.005604089703410864,-0.008447546511888504,0.0006386260502040386
1761315811247620400,0.377620361328125,0.00737429317086935,-0.007229949813336134,0.0022626216523349285
1761315811257667300,0.387667236328125,0.005094361025840044,-0.008300540037453175,-0.0007382282637991011
1761315811267715300,0.39771533203125,0.007093595806509256,-0.008612129837274551,0.00024447820032946765
1761315811277762000,0.407761962890625,0.010121077299118042,-0.010036921128630638,0.0000828243064461276
1761315811287809000,0.41780908203125,0.007739146240055561,-0.007813980802893639,0.0008343683439306915
1761315811297856300,0.427856201171875,0.008867260999977589,-0.007194263394922018,0.0003944141499232501
1761315811307903200,0.4379033203125,0.009167665615677834,-0.008134093135595322,0.0017467673169448972
1761315811317951200,0.447951171875,0.007800931576639414,-0.007904794998466969,0.0013334447285160422
1761315811327998200,0.457998291015625,0.006716492120176554,-0.0065740132704377174,0.001734516816213727
1761315811338045200,0.468045166015625,0.008236624300479889,-0.007815578952431679,0.0012199940392747521
1761315811348092400,0.478092529296875,0.008104798384010792,-0.007651794236153364,0.0019800602458417416
1761315811358139400,0.488139404296875,0.00826991442590952,-0.0075729647651314735,0.0014950985787436366
1761315811368187100,0.498187255859375,0.005562012083828449,-0.009249957278370857,0.0005270395777188241
1761315811378234000,0.508234130859375,0.010242250747978687,-0.008137554861605167,0.0018319884547963738
1761315811388281300,0.51828125,0.004602741450071335,-0.007215568795800209,0.0025624935515224934
1761315811398328300,0.528328369140625,0.005089833401143551,-0.009861418977379799,0.0036964674945920706
1761315811408375300,0.538375244140625,0.00595482811331749,-0.00691942498087883,0.001731587341055274
1761315811418422300,0.54842236328125,0.006798251066356897,-0.008319715037941933,0.005848567932844162
1761315811428470000,0.558469970703125,0.007538610137999058,-0.006863232236355543,0.0023393207229673862
1761315811438517200,0.568517333984375,0.007013434544205666,-0.007526359520852566,0.0019286612514406443
1761315811448564200,0.578564208984375,0.006867759861052036,-0.009186574257910252,0.0024626250378787518
1761315811458611200,0.588611083984375,0.006659234408289194,-0.00726377172395587,0.0018109495285898447
1761315811468658200,0.598658203125,0.005310076754540205,-0.009633985348045826,-0.0004751079250127077
1761315811478706200,0.6087060546875,0.003819771809503436,-0.00854342058300972,0.003531884169206023
1761315811488753400,0.61875341796875,0.007929296232759953,-0.00643712654709816,0.001437041675671935
1761315811498800400,0.62880029296875,0.007248059380799532,-0.00899562519043684,0.002757703186944127
1761315811508847400,0.638847412109375,0.007858987897634506,-0.006306897848844528,0.0032551817130297422
1761315811518894000,0.64889404296875,0.00954157393425703,-0.006977482233196497,0.002689792774617672
1761315811528942300,0.6589423828125,0.006318083498626947,-0.008884837850928307,0.003141997382044792
1761315811538989300,0.6689892578125,0.006373477168381214,-0.007016364019364119,0.003421362955123186
1761315811549036300,0.679036376953125,0.0075639099813997746,-0.006144445389509201,0.0016974988393485546
1761315811559083300,0.689083251953125,0.007507450878620148,-0.006642722524702549,0.0033012544736266136
1761315811569130200,0.699130126953125,0.007870972156524658,-0.00896846130490303,0.004077299498021603
1761315811579178200,0.70917822265625,0.00990296434611082,-0.00887871254235506,0.002764627570286393
1761315811589225200,0.71922509765625,0.008754609152674675,-0.008117581717669964,0.0025132251903414726
1761315811599272200,0.729272216796875,0.008103200234472752,-0.008106129243969917,0.0031372036319226027
1761315811609319200,0.739319091796875,0.006295979022979736,-0.008737565018236637,0.0008767126128077507
1761315811619366100,0.7493662109375,0.005938050337135792,-0.007136738859117031,0.0029385320376604795
1761315811629414400,0.759414306640625,0.0052229915745556355,-0.007508249953389168,0.0010495517635717988
1761315811639461400,0.76946142578125,0.007485879585146904,-0.006636863574385643,0.00033902039285749197
1761315811649508400,0.77950830078125,0.006855509243905544,-0.009620669297873974,0.001199221471324563
1761315811659555000,0.78955517578125,0.007219829596579075,-0.009957293048501015,0.000934236915782094
1761315811669602000,0.79960205078125,0.007478688843548298,-0.010867294855415821,0.0000881506348378025
1761315811679650300,0.809650390625,0.007721036672592163,-0.00806112214922905,0.002400573343038559
1761315811689697300,0.819697265625,0.0059508332051336765,-0.008628642186522484,0.0012311793398112059
1761315811699744300,0.829744140625,0.006102100946009159,-0.005411809775978327,0.0023102923296391964
1761315811709791200,0.839791259765625,0.0051782503724098206,-0.008280300535261631,0.00014460964302998036
1761315811719838200,0.849838134765625,0.005468534771353006,-0.0073015885427594185,0.0026160231791436672
1761315811729886200,0.85988623046875,0.005019259639084339,-0.007966579869389534,0.0012069445801898837
1761315811739933200,0.86993310546875,0.0075758942402899265,-0.008364723064005375,0.00032330775866284966
1761315811749980200,0.879980224609375,0.009228918701410294,-0.00860467366874218,0.0010271812789142132
1761315811760027100,0.890027099609375,0.0067934575490653515,-0.00740145705640316,0.004599279258400202
1761315811770074000,0.90007421875,0.008131429553031921,-0.010056628845632076,0.0016466324450448155
1761315811780122400,0.910122314453125,0.007026750594377518,-0.006520483642816544,0.002469282830134034
1761315811790169300,0.92016943359375,0.008235558867454529,-0.008814530447125435,0.0014674017438665032
1761315811800216300,0.93021630859375,0.008411860093474388,-0.0070424629375338554,0.0015478292480111122
1761315811810263000,0.940262939453125,0.006931142881512642,-0.00860573910176754,0.0025425199419260025
1761315811820310000,0.95031005859375,0.010154632851481438,-0.009126919321715832,0.0034583809319883585
1761315811830358300,0.960358154296875,0.00908297672867775,-0.00717562111094594,-0.0015779229579493403
1761315811840405200,0.9704052734375,0.007257646415382624,-0.008127168752253056,0.0012945625931024551
1761315811850452200,0.9804521484375,0.007199056912213564,-0.006183859892189503,-0.00038482676609419286
1761315811860499200,0.990499267578125,0.007098655682057142,-0.010030263103544712,-0.000984836951829493
1761315811870546400,1.00054638671875,0.006354568526148796,-0.008102134801447392,0.00043835630640387535
1761315811880590000,1.010590087890625,0.009971407242119312,-0.007538876496255398,-0.00012756542128045112
1761315811890636800,1.02063671875,0.00737216230481863,-0.008537295274436474,0.0014879080699756742
1761315811900683800,1.030683837890625,0.009110141545534134,-0.005898369010537863,0.0028245486319065094
1761315811910730800,1.040730712890625,0.008035555481910706,-0.00740119069814682,0.0025249430909752846
1761315811920778000,1.050778076171875,0.006096774712204933,-0.008626777678728104,0.0017222663154825568
1761315811930826000,1.060825927734375,0.006177202332764864,-0.008681905455887318,0.001585646066814661
1761315811940873000,1.070873046875,0.005856025032699108,-0.007331416010856628,0.0023361248895525932
1761315811950920000,1.080919921875,0.005489840172231197,-0.007011570502072573,-0.001261273049749434
1761315811960967000,1.090966796875,0.008245413191616535,-0.008227569982409477,0.003605920122936368
1761315811971014100,1.10101416015625,0.007964449934661388,-0.0070312777534127235,0.0011193265672773123
1761315811981062000,1.111061767578125,0.0075721656903624535,-0.006901049055159092,-0.00008948221511673182
1761315811991108900,1.12110888671875,0.006145510356873274,-0.008363923989236355,-0.000261788722127676
1761315812001155800,1.13115576171875,0.007435279432684183,-0.004704474005848169,0.00096086849225685
1761315812011203000,1.141203125,0.005566539242863655,-0.00723607512190938,-0.0003456783015280962
1761315812021250000,1.15125,0.008982043713331223,-0.010187656618654728,0.00013848437811248004
1761315812031298000,1.161298095703125,0.007161240093410015,-0.00654525076970458,0.0017134778900071979
1761315812041344800,1.1713447265625,0.008509865030646324,-0.007278419099748135,0.00484322477132082
1761315812051391700,1.181391845703125,0.008386560715734959,-0.008770854212343693,0.001181378262117505
1761315812061439000,1.19143896484375,0.0088187912479043,-0.008185225538909435,0.001805889536626637
1761315812071486000,1.20148583984375,0.010016681626439095,-0.00857111718505621,-0.00019387812062632293
1761315812081534000,1.211533935546875,0.007838482037186623,-0.006469617132097483,-0.0006684534018859267
1761315812091581000,1.221580810546875,0.009105348028242588,-0.008388424292206764,0.0021880532149225473
1761315812101628000,1.2316279296875,0.011230816133320332,-0.008678176440298557,0.0007097324123606086
1761315812111675100,1.241675048828125,0.006036853417754173,-0.006251237820833921,0.003668237943202257
1761315812121721900,1.251721923828125,0.006374808494001627,-0.008839830756187439,0.0012844426091760397
1761315812131769900,1.261769775390625,0.008900283835828304,-0.00860227644443512,0.0027427896857261658
1761315812141816800,1.27181689453125,0.005625395104289055,-0.006923153530806303,0.0034056503791362047
1761315812151864000,1.281864013671875,0.006145243998616934,-0.00884995050728321,0.0035340148024260998
1761315812161911000,1.2919111328125,0.005146292503923178,-0.00697774812579155,0.002663161139935255
1761315812171958000,1.3019580078125,0.004396346397697926,-0.009674998000264168,0.001204814063385129
1761315812182005800,1.312005859375,0.007831557653844357,-0.007893343456089497,0.002083390951156616
1761315812192052700,1.322052734375,0.007909588515758514,-0.00971467886120081,0.0024021712597459555
1761315812202100000,1.332099853515625,0.007523430045694113,-0.007601194549351931,-0.0001901497016660869
1761315812212147000,1.34214697265625,0.0068299430422484875,-0.00872238539159298,0.002270344877615571
1761315812222194000,1.35219384765625,0.00495134899392724,-0.0070680296048521996,0.0007621967233717442
1761315812232242000,1.362241943359375,0.005122590344399214,-0.004825115203857422,0.0025073662400245667
1761315812242289000,1.372288818359375,0.007426491007208824,-0.008590292185544968,0.0014788532862439752
1761315812252336000,1.382336181640625,0.008008657954633236,-0.005839779507368803,0.0007217166712507606
1761315812262383000,1.392383056640625,0.007358846720308065,-0.008463792502880096,0.002292981604114175
1761315812272429800,1.402429931640625,0.0065079666674137115,-0.006135656964033842,0.003740143496543169
1761315812282477800,1.412477783203125,0.006099704187363386,-0.008845956064760685,0.0019600866362452507
1761315812292525000,1.422525146484375,0.006261890754103661,-0.007248059380799532,0.0009331716573797166
1761315812302572000,1.432572021484375,0.009314405731856823,-0.007843541912734509,0.0036224317736923695
1761315812312619000,1.442618896484375,0.007799866143614054,-0.00589730404317379,0.0026224146131426096
1761315812322667000,1.4526669921875,0.007741276640444994,-0.006624879315495491,0.0008727178792469203
1761315812332713700,1.462713623046875,0.007195861078798771,-0.007209709845483303,0.0012932310346513987
1761315812342761000,1.472760986328125,0.00932372733950615,-0.008013717830181122,0.0028093685396015644
1761315812352808000,1.482807861328125,0.008164718747138977,-0.0062789348885416985,0.0020335898734629154
1761315812362855000,1.49285498046875,0.007593204732984304,-0.008680573664605618,0.0036136433482170105
1761315812372903000,1.50290283203125,0.008493087254464626,-0.007190268486738205,-0.001603755634278059
1761315812382950000,1.512949951171875,0.007272293791174889,-0.007939682342112064,0.0004426173691172153
1761315812392997000,1.5229970703125,0.006426207721233368,-0.006539391819387674,0.00004846953015658073
1761315812403044000,1.533044189453125,0.008041947148740292,-0.006852579768747091,0.0007480819476768374
1761315812413091000,1.543091064453125,0.006175071466714144,-0.008687498047947884,0.0009177253232337534
1761315812423138800,1.553138916015625,0.007500793319195509,-0.006487993057817221,0.0015598133904859424
1761315812433186000,1.56318603515625,0.007651794236153364,-0.007996673695743084,-0.0011914982460439205
1761315812443233000,1.57323291015625,0.005279184319078922,-0.008074438199400902,0.001371794263832271
1761315812453280000,1.583280029296875,0.0055151404812932014,-0.0070701600052416325,0.002810966456308961
1761315812463327000,1.593326904296875,0.006088252644985914,-0.007783354725688696,0.002211222657933831
1761315812473374700,1.603374755859375,0.00475507415831089,-0.007623564917594194,0.001160339335910976
1761315812483422000,1.613421875,0.006940464023500681,-0.010296313092112541,0.0007819040911272168
1761315812493469000,1.623468994140625,0.006238454952836037,-0.006867759861052036,0.0005728459218516946
1761315812503516000,1.633515869140625,0.006429137196391821,-0.008770588785409927,0.0026200178544968367
1761315812513563000,1.64356298828125,0.007919175550341606,-0.0081487400457263,-0.00016724651504773647
1761315812523611000,1.65361083984375,0.007014499977231026,-0.010037187486886978,0.0015595471486449242
1761315812533658000,1.663658203125,0.00805979035794735,-0.006157494615763426,0.0009869674686342478
1761315812543705000,1.673705078125,0.008049404248595238,-0.007144195958971977,0.0021672805305570364
1761315812553752000,1.683751953125,0.007538610137999058,-0.006987601984292269,-0.0016056197928264737
1761315812563798800,1.693798828125,0.007755391299724579,-0.007080546114593744,0.000979244359768927
1761315812573847000,1.703846923828125,0.009820139966905117,-0.007540474180132151,0.0005901564727537334
1761315812583894000,1.71389404296875,0.008135956712067127,-0.009318400174379349,0.000681236619129777
1761315812593941000,1.72394091796875,0.007932757958769798,-0.006298908498138189,0.00042770366417244077
1761315812603988000,1.733988037109375,0.005929261911660433,-0.008960737846791744,0.0023880566004663706
1761315812614035000,1.744034912109375,0.0033755565527826548,-0.0075577846728265285,0.003037335118278861
1761315812624083000,1.7540830078125,0.006022738758474588,-0.008094144985079765,-0.00043302998528815806
1761315812634130000,1.7641298828125,0.007110906299203634,-0.007148989476263523,0.0007672567153349519
1761315812644177000,1.774177001953125,0.007309578359127045,-0.008138087578117847,0.0007273092633113265
1761315812654224000,1.784223876953125,0.00881799217313528,-0.008274175226688385,0.0023728765081614256
1761315812664270800,1.794270751953125,0.0068358019925653934,-0.005949235521256924,-0.000021837920940015465
1761315812674319000,1.804319091796875,0.0049438923597335815,-0.00583658367395401,0.000749679864384234
1761315812684366000,1.814365966796875,0.009904029779136181,-0.004967061802744865,-0.0007321029552258551
1761315812694413000,1.8244130859375,0.004307929426431656,-0.008293350227177143,0.002286856295540929
1761315812704460000,1.8344599609375,0.006432599388062954,-0.007918642833828926,0.001820270554162562
1761315812714506800,1.8445068359375,0.005033374298363924,-0.008531169965863228,0.001047154888510704
1761315812724555000,1.854554931640625,0.006644587032496929,-0.009503490291535854,0.0028338697738945484
1761315812734602000,1.86460205078125,0.005109274294227362,-0.00857218261808157,0.0030245520174503326
1761315812744649000,1.87464892578125,0.006193181034177542,-0.007517571095377207,0.002073537092655897
1761315812754696000,1.884696044921875,0.008312524296343327,-0.0062821307219564915,0.00032676986302249134
1761315812764743000,1.894742919921875,0.0062339273281395435,-0.008403871208429337,0.0006884271278977394
1761315812774791000,1.904791015625,0.004942027851939201,-0.008772452361881733,0.0024458470288664103
1761315812784838000,1.914837890625,0.00811917893588543,-0.006989732384681702,-0.0004498079069890082
1761315812794884900,1.924884765625,0.006566556170582771,-0.008903746493160725,0.0030748858116567135
1761315812804931800,1.934931884765625,0.0060118199326097965,-0.00703926756978035,0.0011086739832535386
1761315812814980000,1.94497998046875,0.005982791539281607,-0.008196943439543247,0.0015390408225357533
1761315812825027000,1.955027099609375,0.008380968123674393,-0.0086603332310915,0.00005699164830730297
1761315812835074000,1.965073974609375,0.007189469411969185,-0.005845638457685709,0.002210423583164811
1761315812845121000,1.97512109375,0.009735185652971268,-0.005893309134989977,0.0018628811230883002
1761315812855167700,1.985167724609375,0.0071766865439713,-0.006056827027350664,0.004837898537516594
1761315812865216000,1.995216064453125,0.007209443487226963,-0.006131129339337349,0.0021140172611922026
1761315812875263200,2.00526318359375,0.007099721115082502,-0.007303186692297459,0.00006498113361885771
1761315812885310500,2.015310546875,0.00666429428383708,-0.007360178045928478,0.0005046690348535776
1761315812895357400,2.025357421875,0.007141266483813524,-0.00908510759472847,0.0017132115317508578
1761315812905404400,2.035404296875,0.011126953177154064,-0.008286958560347557,0.0021971079986542463
1761315812915452200,2.0454521484375,0.008502407930791378,-0.0086041409522295,0.002389654517173767
1761315812925499100,2.0554990234375,0.0073511237278580666,-0.007095992565155029,0.0008484831196255982
1761315812935546400,2.06554638671875,0.007396929897367954,-0.008390821516513824,0.0017275925492867827
1761315812945593300,2.07559326171875,0.006399043370038271,-0.008644887246191502,0.0019273296929895878
1761315812955640300,2.085640380859375,0.008714928291738033,-0.00882038939744234,0.0018466358305886388
1761315812965688300,2.095688232421875,0.006341252941638231,-0.006569485645741224,0.0017321199411526322
1761315812975735600,2.105735595703125,0.010129333473742008,-0.008992429822683334,0.0023840616922825575
1761315812985782300,2.1157822265625,0.005642705596983433,-0.00803182739764452,0.0013696637470275164
1761315812995829200,2.125829345703125,0.007488809060305357,-0.009438242763280869,0.0012604740913957357
1761315813005876200,2.135876220703125,0.006339654792100191,-0.00938977301120758,0.0007795072160661221
1761315813015924200,2.14592431640625,0.005690908990800381,-0.008899752050638199,0.0026783409994095564
1761315813025971500,2.155971435546875,0.005714877508580685,-0.0085466168820858,0.002826412906870246
1761315813036018400,2.166018310546875,0.006028864067047834,-0.007501059677451849,0.0006021407316438854
1761315813046065400,2.1760654296875,0.009069661609828472,-0.008504272438585758,0.0004215783847030252
1761315813056112400,2.1861123046875,0.006247776094824076,-0.006412359420210123,0.002541188383474946
1761315813066160000,2.19616015625,0.00878097489476204,-0.005992112215608358,0.0026908579748123884
1761315813076207400,2.206207275390625,0.01016794890165329,-0.008349276147782803,0.00019148127466905862
1761315813086254300,2.21625439453125,0.007418501656502485,-0.005915945861488581,0.0020178770646452904
1761315813096301300,2.22630126953125,0.006741259712725878,-0.006194246467202902,0.0017680726014077663
1761315813106348300,2.236348388671875,0.01004917174577713,-0.009729593060910702,0.0010468886466696858
1761315813116396500,2.246396484375,0.008316519670188427,-0.010754643008112907,-0.0003222425002604723
1761315813126443300,2.256443359375,0.005483182147145271,-0.006864564027637243,-0.0002561961009632796
1761315813136490200,2.266490234375,0.009836118668317795,-0.007223558146506548,-0.00004234426160110161
1761315813146537200,2.276537109375,0.0098038949072361,-0.006228601094335318,0.0009811085183173418
1761315813156584200,2.286584228515625,0.009281116537749767,-0.008429703302681446,0.0005629922379739583
1761315813166632400,2.296632568359375,0.009075254201889038,-0.007924501784145832,-0.0010713896481320262
1761315813176679400,2.306679443359375,0.008498679846525192,-0.00987207144498825,0.0007416903390549123
1761315813186726400,2.316726318359375,0.0054754591546952724,-0.0060267336666584015,0.0026407905388623476
1761315813196773400,2.3267734375,0.007577492389827967,-0.008258729241788387,-0.0009933591354638338
1761315813206821000,2.336821044921875,0.007258978206664324,-0.008328237570822239,0.0016410398529842496
1761315813216868400,2.346868408203125,0.005488774739205837,-0.008260592818260193,-0.0019241338595747948
1761315813226915300,2.356915283203125,0.005822202656418085,-0.007505054119974375,-0.00045034053619019687
1761315813236962300,2.36696240234375,0.007745005190372467,-0.00947872269898653,0.0026405241806060076
1761315813247009300,2.37700927734375,0.006804110016673803,-0.006090649403631687,0.0037462685722857714
1761315813257057500,2.3870576171875,0.006422479171305895,-0.00899882148951292,0.0005589975044131279
1761315813267104500,2.3971044921875,0.0075844163075089455,-0.006617955397814512,0.0009973538108170033
1761315813277151200,2.407151123046875,0.008510664105415344,-0.009077916853129864,0.001558748190291226
1761315813287198200,2.4171982421875,0.005862682592123747,-0.007813448086380959,0.0007643272401764989
1761315813297245200,2.4272451171875,0.007541805971413851,-0.007929029874503613,-0.0003653856983873993
1761315813307293400,2.43729345703125,0.008653941564261913,-0.006565757095813751,0.001270061475224793
1761315813317340400,2.44734033203125,0.008710401132702827,-0.007993211969733238,0.0007568703731521964
1761315813327387400,2.457387451171875,0.009542372077703476,-0.009970875456929207,0.0009832390351220965
1761315813337434400,2.467434326171875,0.00851519126445055,-0.00899908784776926,0.0008021441171877086
1761315813347481300,2.4774814453125,0.009952499531209469,-0.007724498864263296,0.0014476943761110306
1761315813357529300,2.487529296875,0.008868859149515629,-0.007221694104373455,0.002924417145550251
1761315813367576300,2.497576416015625,0.008843825198709965,-0.008435296826064587,0.002837331732735038
1761315813377623300,2.507623291015625,0.0054853130131959915,-0.008405202999711037,0.0016857809387147427
1761315813387670300,2.517670166015625,0.008113586343824863,-0.007810518611222506,0.0036155073903501034
1761315813397717200,2.52771728515625,0.008226504549384117,-0.008979646489024162,0.0016695356462150812
1761315813407765500,2.537765625,0.008952216245234013,-0.0070251524448394775,0.002085787709802389
1761315813417812200,2.547812255859375,0.007455785758793354,-0.007863249629735947,0.0011310444679111242
1761315813427859200,2.557859130859375,0.006372411735355854,-0.0075966669246554375,0.0025121597573161125
1761315813437906200,2.56790625,0.00503976596519351,-0.005883455276489258,-0.0005573995877057314
1761315813447953200,2.577953125,0.006463491823524237,-0.007978031411767006,0.002002430846914649
1761315813458001400,2.58800146484375,0.006025668233633041,-0.006133526097983122,0.0033545177429914474
1761315813468048400,2.59804833984375,0.004929777234792709,-0.007266434840857983,0.0033446638844907284
1761315813478095400,2.608095458984375,0.008334362879395485,-0.008526110090315342,0.001540638622827828
1761315813488142300,2.618142333984375,0.005173723213374615,-0.006915962789207697,0.0006447513005696237
1761315813498189300,2.628189208984375,0.005732720717787743,-0.00612340634688735,0.003584614722058177
1761315813508237300,2.6382373046875,0.006341519299894571,-0.007133543025702238,-0.0003608583356253803
1761315813518284300,2.6482841796875,0.005173723213374615,-0.007766576483845711,0.0000780306218075566
1761315813528331300,2.658331298828125,0.0068057081662118435,-0.009433981962502003,0.0037883466575294733
1761315813538378200,2.668378173828125,0.007357248570770025,-0.008105331100523472,0.0011653993278741837
1761315813548425200,2.67842529296875,0.007049920037388802,-0.009179383516311646,0.0019776634871959686
1761315813558473500,2.688473388671875,0.007244330830872059,-0.00833596009761095,0.0008793757879175246
1761315813568520200,2.698520263671875,0.007638478651642799,-0.008772452361881733,-0.0011267834343016148
1761315813578567200,2.708567138671875,0.00815220270305872,-0.009042496792972088,0.001677791471593082
1761315813588614100,2.7186142578125,0.007808920927345753,-0.009100819937884808,0.0022327941842377186
1761315813598661400,2.728661376953125,0.007121292874217033,-0.006944991648197174,0.0009369000908918679
1761315813608709400,2.73870947265625,0.0063154203817248344,-0.007762049324810505,0.0021374530624598265
1761315813618756400,2.74875634765625,0.008391354233026505,-0.008992429822683334,0.0011195929255336523
1761315813628803300,2.75880322265625,0.010118680074810982,-0.006608900614082813,0.002493517706170678
1761315813638850300,2.768850341796875,0.006293049547821283,-0.00881799217313528,0.0005531385540962219
1761315813648897500,2.7788974609375,0.008827313780784607,-0.007440339308232069,-0.0003430151555221528
1761315813658945300,2.7889453125,0.006936735473573208,-0.008643821813166142,-0.00005965480886516161
1761315813668992300,2.7989921875,0.008975119329988956,-0.009921340271830559,0.0008335694437846541
1761315813679039200,2.809039306640625,0.008070177398622036,-0.008105597458779812,0.0035902075469493866
1761315813689086200,2.819086181640625,0.007158310618251562,-0.00899828877300024,0.0023289343807846308
1761315813699133400,2.829133544921875,0.008129565045237541,-0.007501325570046902,0.0013755226973444223
1761315813709181200,2.83918115234375,0.009603358805179596,-0.006879477761685848,0.0002740392810665071
1761315813719228200,2.849228271484375,0.006167082116007805,-0.007487477269023657,0.0016620787791907787
1761315813729275100,2.859275146484375,0.005299157928675413,-0.0072986590676009655,-0.0005203816690482199
1761315813739322400,2.869322265625,0.006585997529327869,-0.0059782639145851135,0.0019861855544149876
1761315813749369300,2.879369384765625,0.007421431131660938,-0.008093879558146,0.0008431567694060504
1761315813759417300,2.889417236328125,0.006050169467926025,-0.007668838836252689,0.0005731122801080346
1761315813769464300,2.89946435546875,0.00800013542175293,-0.006317284423857927,-0.001064731739461422
1761315813779511300,2.90951123046875,0.004058923572301865,-0.007420099340379238,0.0012426309986039996
1761315813789558500,2.91955859375,0.007698133587837219,-0.006923686247318983,0.0010612696642056108
1761315813799605200,2.929605224609375,0.007029946427792311,-0.006705573294311762,0.0024554345291107893
1761315813809653200,2.9396533203125,0.009648099541664124,-0.008008391596376896,-0.0003182477375958115
1761315813819700200,2.9497001953125,0.008116516284644604,-0.006736465729773045,0.0004655205411836505
1761315813829747200,2.959747314453125,0.008636364713311195,-0.007183078210800886,0.0023361248895525932
1761315813839794400,2.96979443359375,0.010526410304009914,-0.008835835382342339,0.0046299053356051445
1761315813849841400,2.97984130859375,0.00887791346758604,-0.006871222052723169,0.005721002817153931
1761315813859889200,2.98988916015625,0.007134342100471258,-0.008552209474146366,0.0012663330417126417
1761315813869936000,2.99993603515625,0.0059657469391822815,-0.007122357841581106,0.0033838124945759773
1761315813879983000,3.009983154296875,0.008592156693339348,-0.009584183804690838,0.003620034782215953
1761315813890030000,3.020030029296875,0.009501625783741474,-0.007051517721265554,0.002944923471659422
1761315813900077000,3.0300771484375,0.008990565314888954,-0.00780679052695632,0.00045060686534270644
1761315813910125300,3.040125244140625,0.00914396345615387,-0.008238222450017929,0.0006815029191784561
1761315813920172300,3.05017236328125,0.007982558570802212,-0.00836685299873352,0.0018343853298574686
1761315813930219300,3.06021923828125,0.007464307826012373,-0.0089404983446002,0.0027425233274698257
1761315813940266200,3.070266357421875,0.008105331100523472,-0.006982542108744383,0.002987001556903124
1761315813950313200,3.080313232421875,0.00726430444046855,-0.006696252152323723,0.0012945625931024551
1761315813960361200,3.090361328125,0.00797563511878252,-0.008793758228421211,0.0010865697404369712
1761315813970408200,3.100408203125,0.006318349856883287,-0.006958307232707739,0.002192846732214093
1761315813980455200,3.110455078125,0.006084790453314781,-0.009605223312973976,0.0034589136485010386
1761315813990502100,3.120502197265625,0.005024585872888565,-0.008177502080798149,0.0037289580795913935
1761315814000549000,3.130549072265625,0.0062395199202001095,-0.008736499585211277,0.002907639369368553
1761315814010597000,3.14059716796875,0.007800132501870394,-0.008143946528434753,0.001659948262386024
1761315814020644000,3.15064404296875,0.010009224526584148,-0.008665393106639385,-0.0013883059145882726
1761315814030691000,3.160691162109375,0.006396380253136158,-0.00640756543725729,0.002295911079272628
1761315814040738000,3.170738037109375,0.006573480553925037,-0.006535930093377829,0.0021992383990436792
1761315814050785300,3.180785400390625,0.008437693119049072,-0.007171626668423414,0.003441869281232357
1761315814060833300,3.190833251953125,0.009208145551383495,-0.008205465972423553,-0.0000804274677648209
1761315814070880300,3.20088037109375,0.005945240613073111,-0.00811944529414177,0.0031467911321669817
1761315814080927200,3.21092724609375,0.0062943813391029835,-0.007282147649675608,0.002413356676697731
1761315814090974200,3.22097412109375,0.006689594127237797,-0.0092334458604455,0.0013395700370892882
1761315814101021200,3.231021240234375,0.0062067629769444466,-0.008021174930036068,0.0026192190125584602
1761315814111069200,3.241069091796875,0.00857564527541399,-0.0074017234146595,-0.0003073287953156978
1761315814121116200,3.2511162109375,0.008400408551096916,-0.005629123654216528,-0.00031798143754713237
1761315814131163100,3.2611630859375,0.007936219684779644,-0.008841162547469139,0.00038163099088706076
1761315814141210000,3.271210205078125,0.011004447937011719,-0.006472546607255936,0.002429601736366749
1761315814151257300,3.28125732421875,0.007849933579564095,-0.006695453077554703,0.0030834078788757324
1761315814161305000,3.29130517578125,0.008732505142688751,-0.005648830905556679,0.0010692591313272715
1761315814171352000,3.30135205078125,0.006054430268704891,-0.008682171814143658,0.002395247109234333
1761315814181399000,3.31139892578125,0.009124255739152431,-0.005272259935736656,0.0025901903863996267
1761315814191446300,3.3214462890625,0.00809148233383894,-0.008901349268853664,0.0022359900176525116
1761315814201493200,3.3314931640625,0.006878412328660488,-0.00609437795355916,0.0024141555186361074
1761315814211541200,3.341541259765625,0.00592500064522028,-0.0073319487273693085,0.0011653993278741837
1761315814221588200,3.351588134765625,0.006995857693254948,-0.008103200234472752,0.004065048880875111
1761315814231635200,3.36163525390625,0.0068387314677238464,-0.007737281732261181,0.001967543503269553
1761315814241682200,3.37168212890625,0.006129265297204256,-0.00749120581895113,-0.0013369068037718534
1761315814251729200,3.381729248046875,0.007435545790940523,-0.007241401355713606,0.0012628709664568305
1761315814261777200,3.391777099609375,0.0076059880666434765,-0.007926366291940212,0.002538258908316493
1761315814271824100,3.40182421875,0.0049377670511603355,-0.007513043470680714,0.001487375469878316
1761315814281871000,3.41187109375,0.008607602678239346,-0.007138070650398731,0.0025241440162062645
1761315814291918300,3.42191845703125,0.00637800432741642,-0.007878961972892284,0.0013134710025042295
1761315814301965300,3.43196533203125,0.006168413441628218,-0.008737032301723957,0.00155288923997432
1761315814312013000,3.442012939453125,0.008727977983653545,-0.008068046532571316,0.002569684060290456
1761315814322060000,3.45206005859375,0.006448578089475632,-0.010045177303254604,0.0008876316132955253
1761315814332107300,3.462107177734375,0.009097091853618622,-0.006056028418242931,0.0003944141499232501
1761315814342154200,3.472154296875,0.008552209474146366,-0.005861084908246994,0.0012159993639215827
1761315814352201200,3.482201171875,0.006946322973817587,-0.0073655047453939915,0.00279019377194345
1761315814362249200,3.492249267578125,0.006902380846440792,-0.005541505757719278,-0.0004900216590613127
1761315814372296200,3.502296142578125,0.008439291268587112,-0.007378021255135536,0.0007539408979937434
1761315814382343200,3.51234326171875,0.007878961972892284,-0.010062754154205322,0.0003640541108325124
1761315814392390100,3.52239013671875,0.007416370790451765,-0.007762582041323185,-0.0016740630380809307
1761315814402437000,3.53243701171875,0.00897059217095375,-0.007821171544492245,0.0017875137273222208
1761315814412484000,3.542484130859375,0.00917352456599474,-0.007238738238811493,0.001086037140339613
1761315814422532000,3.552531982421875,0.006049104034900665,-0.008830509148538113,0.00035180358099751174
1761315814432579300,3.562579345703125,0.010046775452792645,-0.007129814941436052,0.001059139147400856
1761315814442626300,3.572626220703125,0.006586263421922922,-0.006372145377099514,0.0005725796218030155
1761315814452673300,3.58267333984375,0.00806378573179245,-0.006487993057817221,0.0024232103023678064
1761315814462720300,3.59272021484375,0.005434712860733271,-0.007570301648229361,0.0032839439809322357
1761315814472768000,3.60276806640625,0.006816360633820295,-0.006898385938256979,0.0024375913199037313
1761315814482815200,3.612815185546875,0.006560963578522205,-0.008699482306838036,0.00016591492749284953
1761315814492862200,3.6228623046875,0.007755924016237259,-0.008260326460003853,0.00315957423299551
1761315814502909200,3.6329091796875,0.006001699715852737,-0.0068448567762970924,0.0023036343045532703
1761315814512956200,3.6429560546875,0.006388657260686159,-0.009995109401643276,0.0015110776294022799
1761315814523004400,3.65300439453125,0.007985754869878292,-0.008467254228889942,0.0024322650860995054
1761315814533051100,3.663051025390625,0.003887948812916875,-0.007268299348652363,0.0011653993278741837
1761315814543098000,3.67309814453125,0.00797297153621912,-0.007759386207908392,0.000023435817638528533
1761315814553145000,3.68314501953125,0.005987851414829493,-0.007647533435374498,0.0013161342358216643
1761315814563192000,3.693192138671875,0.008671252056956291,-0.008433165960013866,0.0002580603177193552
1761315814573240300,3.703240234375,0.008297877386212349,-0.007547664921730757,-0.0013134710025042295
1761315814583287300,3.713287353515625,0.006913566030561924,-0.006196376867592335,0.0026181535795331
1761315814593334300,3.723334228515625,0.0075873457826673985,-0.008899485692381859,0.0016990967560559511
1761315814603381200,3.73338134765625,0.010037453845143318,-0.007257380057126284,0.0013454289874061942
1761315814613428200,3.74342822265625,0.007288539316505194,-0.008028632029891014,0.00173771264962852
1761315814623476200,3.753476318359375,0.008010256104171276,-0.00914449617266655,0.0031137678306549788
1761315814633523200,3.763523193359375,0.007390271872282028,-0.008566057309508324,0.003498861100524664
1761315814643570200,3.773570068359375,0.008619586937129498,-0.007875233888626099,0.0031614385079592466
1761315814653617200,3.7836171875,0.005647233221679926,-0.009583384729921818,0.0008982842555269599
1761315814663664000,3.7936640625,0.007958058267831802,-0.006512760184705257,0.0002865561400540173
1761315814673711400,3.80371142578125,0.008682969957590103,-0.00598518829792738,0.00455800024792552
1761315814683759000,3.813759033203125,0.010778877884149551,-0.007465639617294073,0.00009321063407696784
1761315814693806000,3.82380615234375,0.0075689698569476604,-0.008608934469521046,0.0009467537747696042
1761315814703853000,3.83385302734375,0.008679774589836597,-0.01161857321858406,0.0023843280505388975
1761315814713900000,3.843900146484375,0.005382248666137457,-0.008755408227443695,0.0022620889358222485
1761315814723947300,3.853947265625,0.008551410399377346,-0.006926615722477436,0.004649879410862923
1761315814733995300,3.863995361328125,0.007737548090517521,-0.007754592224955559,0.0013214604696258903
1761315814744042200,3.874042236328125,0.006857906002551317,-0.007476025726646185,0.001764344167895615
1761315814754089200,3.884089111328125,0.009253685362637043,-0.008522115647792816,-0.00012516857532318681
1761315814764136200,3.89413623046875,0.006472013890743256,-0.007903463207185268,0.0014559502014890313
1761315814774183200,3.90418310546875,0.008109325543045998,-0.008762865327298641,0.003608849598094821
1761315814784231200,3.914231201171875,0.005221127066761255,-0.008890696801245213,0.0037119139451533556
1761315814794278100,3.924278076171875,0.006851780693978071,-0.008006793446838856,0.002121474128216505
1761315814804325000,3.9343251953125,0.00683233980089426,-0.009348227642476559,0.003150785807520151
1761315814814372400,3.944372314453125,0.007601726800203323,-0.007488276343792677,0.0019712718203663826
1761315814824419300,3.95441943359375,0.006046707276254892,-0.006947122048586607,0.0007571366732008755
1761315814834467000,3.964467041015625,0.007538876496255398,-0.009847571142017841,0.0033752904273569584
1761315814844514000,3.97451416015625,0.008098140358924866,-0.007703726179897785,0.00166633992921561
1761315814854561000,3.98456103515625,0.0072925337590277195,-0.008102401159703732,0.0021257351618260145
1761315814864608300,3.994608154296875,0.007762582041323185,-0.007218231912702322,0.00008362325752386823
1761315814874655200,4.0046552734375,0.009005213156342506,-0.007778560742735863,0.001172323478385806
1761315814884703000,4.014702880859375,0.007692806888371706,-0.008391620591282845,0.000934236915782094
1761315814894750000,4.02475,0.0084877610206604,-0.009660616517066956,0.0003014698449987918
1761315814904797000,4.034796875,0.01010962575674057,-0.007517038378864527,0.001324123702943325
1761315814914844000,4.044843994140625,0.006252835970371962,-0.009127984754741192,0.0021233384031802416
1761315814924891000,4.054890869140625,0.00681263254955411,-0.005570534151047468,0.00042983421008102596
1761315814934937600,4.0649375,0.008339955471456051,-0.007251254748553038,0.0038195056840777397
1761315814944985900,4.07498583984375,0.009916014038026333,-0.007390005514025688,0.0005685848882421851
1761315814955032800,4.08503271484375,0.005389971658587456,-0.006729009095579386,0.0010578075889497995
1761315814965079800,4.095079833984375,0.008480570279061794,-0.007463242392987013,-0.00032384038786403835
1761315814975126800,4.105126708984375,0.0068206219002604485,-0.0075974659994244576,0.004427771549671888
1761315814985173800,4.115173828125,0.005172657780349255,-0.0059846555814146996,0.004313255660235882
1761315814995221800,4.1252216796875,0.005524461157619953,-0.009062470868229866,-0.0002311623829882592
1761315815005268700,4.135268798828125,0.00780705688521266,-0.005524727515876293,0.004751878324896097
1761315815015315700,4.145315673828125,0.00577879324555397,-0.0074030552059412,-0.0007600661483593285
1761315815025362700,4.15536279296875,0.007231547497212887,-0.00872078724205494,0.0015254586469382048
1761315815035410000,4.165409912109375,0.006998520810157061,-0.008200138807296753,-0.0012903015594929457
1761315815045457000,4.175456787109375,0.007216633763164282,-0.005958290304988623,0.0022658174857497215
1761315815055505000,4.1855048828125,0.007869374938309193,-0.005768673028796911,0.0026490462478250265
1761315815065552000,4.1955517578125,0.0049401638098061085,-0.006512760184705257,0.0008042746339924634
1761315815075598600,4.2055986328125,0.0072778863832354546,-0.008521050214767456,0.0016735304379835725
1761315815085645800,4.215645751953125,0.007253385614603758,-0.004801679402589798,0.002823749789968133
1761315815095692800,4.22569287109375,0.011318701319396496,-0.011002317070960999,-0.00043036683928221464
1761315815105740800,4.23574072265625,0.009824667125940323,-0.010064085945487022,0.0014831144362688065
1761315815115787800,4.245787841796875,0.007113835774362087,-0.007023288402706385,0.00023968449386302382
1761315815125834800,4.255834716796875,0.007155913859605789,-0.006997455842792988,0.0013523531379178166
1761315815135882000,4.265882080078125,0.009927731938660145,-0.00893969926983118,0.002039981307461858
1761315815145929000,4.275928955078125,0.006886401679366827,-0.009312009438872337,0.0013307816116139293
1761315815155976700,4.285976806640625,0.0073591130785644054,-0.007871238514780998,0.0018042916199192405
1761315815166023700,4.296023681640625,0.007440072949975729,-0.005840312223881483,0.000577107013668865
1761315815176071000,4.30607080078125,0.007374825421720743,-0.008477373979985714,0.0013235911028459668
1761315815186118000,4.316117919921875,0.00705711031332612,-0.00580835435539484,0.0022125542163848877
1761315815196164900,4.326164794921875,0.007027016952633858,-0.00811864621937275,0.0026575683150440454
1761315815206212900,4.336212890625,0.007866977714002132,-0.0070765516720712185,0.001353418454527855
1761315815216259800,4.346259765625,0.0087807085365057,-0.009458216838538647,0.0013233247445896268
1761315815226306800,4.356306884765625,0.007473362609744072,-0.006474144756793976,0.0029409287963062525
1761315815236353800,4.366353759765625,0.006330067757517099,-0.008041148073971272,-0.0009379653492942452
1761315815246400800,4.37640087890625,0.007013700902462006,-0.010025469586253166,0.004914597608149052
1761315815256447700,4.38644775390625,0.005856291390955448,-0.007493336219340563,-0.00021944446780253202
1761315815266495700,4.396495849609375,0.007367635145783424,-0.008401207625865936,0.0017278589075431228
1761315815276543000,4.40654296875,0.006881874520331621,-0.008920790627598763,0.0021028320770710707
1761315815286590000,4.41658984375,0.007188404444605112,-0.008411594666540623,0.0024588967207819223
1761315815296637000,4.426636962890625,0.00643845833837986,-0.006871488410979509,0.0031135017052292824
1761315815306684000,4.436683837890625,0.007784686051309109,-0.008775648660957813,0.0011094729416072369
1761315815316732000,4.44673193359375,0.007894407957792282,-0.0059756007976830006,0.0018402442801743746
1761315815326779000,4.45677880859375,0.006829410325735807,-0.007655789144337177,0.00367143377661705
1761315815336825900,4.466825927734375,0.00848270021378994,-0.0057068876922130585,0.0024980450980365276
1761315815346872800,4.476872802734375,0.006849916651844978,-0.009023322723805904,0.0017534252256155014
1761315815356919800,4.486919921875,0.007532218471169472,-0.006310360040515661,0.004077299498021603
1761315815366966800,4.496966796875,0.0062243398278951645,-0.00774820102378726,0.0028421254828572273
1761315815377014800,4.507014892578125,0.008651545271277428,-0.007450992241501808,0.002338521648198366
1761315815387061800,4.517061767578125,0.01164813432842493,-0.00788588635623455,0.0026019082870334387
1761315815397108700,4.527108642578125,0.00936154369264841,-0.005566272884607315,0.0028075044974684715
1761315815407155700,4.53715576171875,0.00845633540302515,-0.004966795444488525,0.0028748824261128902
1761315815417202700,4.54720263671875,0.009317335672676563,-0.008859537541866302,0.0019883159548044205
1761315815427251000,4.5572509765625,0.0065465825609862804,-0.005852829199284315,0.003020557342097163
1761315815437298000,4.5672978515625,0.0076182386837899685,-0.006423278246074915,-0.00017310546536464244
1761315815447345000,4.577344970703125,0.007240868639200926,-0.008443019352853298,0.004800347611308098
1761315815457391600,4.5873916015625,0.00803449098020792,-0.007926099933683872,0.00439048744738102
1761315815467438600,4.5974384765625,0.006474144756793976,-0.008686432614922523,0.002888730727136135
1761315815477486800,4.60748681640625,0.00657561095431447,-0.008077633567154408,0.002561161993071437
1761315815487533800,4.617533935546875,0.007795338984578848,-0.006937268190085888,0.002832538215443492
1761315815497580800,4.627580810546875,0.006164951715618372,-0.008216651156544685,0.0018250643042847514
1761315815507627800,4.637627685546875,0.007892544381320477,-0.006392918061465025,0.0014671353856101632
1761315815517675000,4.647675048828125,0.007113303057849407,-0.008451275527477264,-0.000021837920940015465
1761315815527722000,4.657721923828125,0.007426757365465164,-0.006068279035389423,-0.0001917476038215682
1761315815537769700,4.667769775390625,0.008477107621729374,-0.008480570279061794,0.0034738273825496435
1761315815547816700,4.677816650390625,0.005844307132065296,-0.00717721926048398,0.0025015072897076607
1761315815557863700,4.68786376953125,0.007141799200326204,-0.007556453347206116,0.0027505126781761646
1761315815567911000,4.697910888671875,0.006478938274085522,-0.007568437606096268,0.0008077367674559355
1761315815577958000,4.7079580078125,0.008281099610030651,-0.006712231319397688,0.0026583673898130655
1761315815588006000,4.718005859375,0.007185741327702999,-0.007364172954112291,0.0016921724891290069
1761315815598052900,4.728052978515625,0.00771677540615201,-0.00842704065144062,0.0005552690709009767
1761315815608099600,4.738099609375,0.007207845337688923,-0.008054996840655804,0.0026016421616077423
1761315815618146800,4.748146728515625,0.007772435434162617,-0.005902896635234356,0.00108284130692482
1761315815628193800,4.75819384765625,0.009014267474412918,-0.006073605269193649,0.001285241567529738
1761315815638240800,4.76824072265625,0.0065535069443285465,-0.006455768831074238,0.0025097629986703396
1761315815648288800,4.778288818359375,0.008362059481441975,-0.006747651379555464,0.0011488876771181822
1761315815658336000,4.7883359375,0.00734233483672142,-0.005769738461822271,-0.00046871634549461305
1761315815668383000,4.798383056640625,0.00845553632825613,-0.00589490681886673,0.0025600967928767204
1761315815678430000,4.808429931640625,0.010115751065313816,-0.007861118763685226,0.002046106616035104
1761315815688477000,4.818476806640625,0.006235791835933924,-0.006929545197635889,0.0002894856152124703
1761315815698523600,4.828523681640625,0.00794447585940361,-0.008364456705749035,0.0005691175465472043
1761315815708568800,4.83856884765625,0.00990323070436716,-0.005861617624759674,0.000586161739192903
1761315815718615800,4.84861572265625,0.0063798688352108,-0.007840080186724663,0.002685531508177519
1761315815728662800,4.858662841796875,0.007715177722275257,-0.009376989677548409,0.0005739112384617329
1761315815738710800,4.868710693359375,0.008264853619039059,-0.006535663735121489,0.0003462109307292849
1761315815748757800,4.8787578125,0.007478156127035618,-0.007123423274606466,0.0015094797126948833
1761315815758804700,4.8888046875,0.005928462836891413,-0.007215302437543869,0.0018719359068199992
1761315815768851700,4.898851806640625,0.006845122668892145,-0.0070792147889733315,0.0006969492533244193
1761315815778898700,4.908898681640625,0.006897054612636566,-0.009207346476614475,0.002983805723488331
1761315815788946000,4.91894580078125,0.006711964961141348,-0.007681088987737894,0.0017933726776391268
1761315815798994000,4.928993896484375,0.005135640036314726,-0.007919441908597946,0.0035388083197176456
1761315815809041000,4.939041015625,0.007228351663798094,-0.0068144965916872025,0.00042104575550183654
1761315815819087600,4.949087646484375,0.00999457761645317,-0.005474660079926252,0.0012863067677244544
1761315815829134600,4.959134521484375,0.0059814597479999065,-0.010546917095780373,0.0013518205378204584
1761315815839181800,4.969181884765625,0.007394533138722181,-0.005923669319599867,0.0014892396284267306
1761315815849228800,4.979228759765625,0.005505020264536142,-0.01017114520072937,-0.0003281014505773783
1761315815859276800,4.98927685546875,0.01065291091799736,-0.007910387590527534,-0.00011611382069531828
1761315815869323800,4.99932373046875,0.010997523553669453,-0.005785451270639896,-0.0015595471486449242
1761315815879371000,5.00937109375,0.00902571901679039,-0.00487331859767437,0.0018271948210895061
1761315815889419300,5.019419189453125,0.009063802659511566,-0.006564692128449678,0.000360059377271682
1761315815899466200,5.02946630859375,0.00809041690081358,-0.008021707646548748,0.0012351741315796971
1761315815909514200,5.03951416015625,0.008087221533060074,-0.010772219859063625,0.0001227717293659225
1761315815919561200,5.049561279296875,0.007189735770225525,-0.005456284619867802,0.0017062872648239136
1761315815929608400,5.0596083984375,0.006269347388297319,-0.007303186692297459,0.0016498282784596086
1761315815939655400,5.069655517578125,0.00920441746711731,-0.006079996936023235,-0.0001174454009742476
1761315815949702100,5.0797021484375,0.00875008199363947,-0.01028459519147873,0.0016905746888369322
1761315815959749000,5.0897490234375,0.008291219361126423,-0.008506402373313904,0.0013757890556007624
1761315815969797000,5.099797119140625,0.006671218667179346,-0.007850466296076775,0.002360359765589237
1761315815979844400,5.10984423828125,0.0067423246800899506,-0.008468586020171642,0.0026226809713989496
1761315815989891300,5.119891357421875,0.008126103319227695,-0.008110390976071358,0.0016647420125082135
1761315815999938300,5.129938232421875,0.004747617058455944,-0.007261374965310097,0.0011946940794587135
1761315816009985300,5.1399853515625,0.007650462910532951,-0.006758303847163916,0.0019209380261600018
1761315816020033000,5.150032958984375,0.0046695866622030735,-0.007941014133393764,-0.0017686053179204464
1761315816030080300,5.160080322265625,0.008852347731590271,-0.010929613374173641,0.001439971150830388
1761315816040127200,5.170127197265625,0.005487443413585424,-0.005568936001509428,0.0019712718203663826
1761315816050174200,5.18017431640625,0.006073338910937309,-0.008821454830467701,0.0029292108956724405
1761315816060221200,5.19022119140625,0.00603472301736474,-0.00945182517170906,0.0034378746058791876
1761315816070268200,5.20026806640625,0.007478156127035618,-0.0070824106223881245,0.001984054921194911
1761315816080316400,5.21031640625,0.007455519400537014,-0.006363889668136835,0.0013973605819046497
1761315816090363400,5.22036328125,0.005146026145666838,-0.007224623579531908,0.002871420234441757
1761315816100410000,5.23041015625,0.007814247161149979,-0.00803049560636282,0.0013273194199427962
1761315816110457000,5.24045703125,0.006719954311847687,-0.007923702709376812,0.0020793962758034468
1761315816120504000,5.250504150390625,0.007970042526721954,-0.007232879288494587,0.0016993631143122911
1761315816130551300,5.26055126953125,0.007281881291419268,-0.0064895907416939735,0.0008487494196742773
1761315816140599300,5.270599365234375,0.007617173250764608,-0.006894657853990793,-0.00040852889651432633
1761315816150646300,5.280646240234375,0.00896819494664669,-0.007613178342580795,0.0005600627628155053
1761315816160693200,5.290693359375,0.007081877905875444,-0.005958290304988623,0.0034618431236594915
1761315816170740200,5.300740234375,0.0073687005788087845,-0.008983640931546688,-0.0005749764968641102
1761315816180787200,5.310787109375,0.007092796731740236,-0.008839564397931099,0.0012921657180413604
1761315816190834200,5.320834228515625,0.006499977316707373,-0.007122624199837446,0.0024253407027572393
1761315816200882200,5.330882080078125,0.007229417096823454,-0.007488276343792677,0.0015150723047554493
1761315816210929200,5.34092919921875,0.008130630478262901,-0.008646219037473202,0.002496180823072791
1761315816220976000,5.35097607421875,0.01019964087754488,-0.010820423252880573,-0.0004087952256668359
1761315816231023400,5.3610234375,0.007891478948295116,-0.008829444646835327,0.0006998787284828722
1761315816241070300,5.3710703125,0.007502391003072262,-0.010961038060486317,0.002364886924624443
1761315816251117300,5.381117431640625,0.007244330830872059,-0.005563343409448862,0.0037646444980055094
1761315816261165000,5.3911650390625,0.006698648910969496,-0.007636880502104759,0.0017696705181151628
1761315816271212300,5.40121240234375,0.0048887645825743675,-0.007335943635553122,0.0008021441171877086
1761315816281259300,5.41125927734375,0.007198257837444544,-0.008523979224264622,0.004875981714576483
1761315816291306200,5.42130615234375,0.005767075344920158,-0.006473345682024956,0.003727360162883997
1761315816301353200,5.431353271484375,0.004210191313177347,-0.007074953522533178,0.0028575719334185123
1761315816311401200,5.441401123046875,0.007300257217139006,-0.0056983656249940395,0.0008708536624908447
1761315816321448400,5.451448486328125,0.004922853317111731,-0.006045375484973192,0.00224930583499372
1761315816331495200,5.4614951171875,0.007478688843548298,-0.005134574603289366,0.0010910971323028207
1761315816341542100,5.471542236328125,0.006133792456239462,-0.005118595436215401,-0.00044661210267804563
1761315816351589000,5.481589111328125,0.008650213479995728,-0.0073386067524552345,-0.0001917476038215682
1761315816361636000,5.491635986328125,0.007771636825054884,-0.008679774589836597,-0.0013550163712352514
1761315816371684400,5.501684326171875,0.005869606975466013,-0.006286657880991697,0.0007371630053967237
1761315816381731300,5.5117314453125,0.007249390706419945,-0.008920524269342422,0.00023808660625945777
1761315816391778300,5.5217783203125,0.009131180122494698,-0.0065290057100355625,-0.00011664645717246458
1761315816401825300,5.5318251953125,0.009767675772309303,-0.007089600898325443,0.00321922916918993
1761315816411872300,5.541872314453125,0.008343683555722237,-0.006963899824768305,0.0002109223569277674
1761315816421919200,5.551919189453125,0.005270662251859903,-0.007874701172113419,0.0014176006661728024
1761315816431967200,5.56196728515625,0.009934922680258751,-0.008583634160459042,0.00024820660473778844
1761315816442014200,5.57201416015625,0.008247011341154575,-0.006797718815505505,0.00039254993316717446
1761315816452061200,5.582061279296875,0.008992429822683334,-0.00893676932901144,0.0011105381418019533
1761315816462108200,5.592108154296875,0.00777669670060277,-0.006253102328628302,-0.0006652576266787946
1761315816472155400,5.6021552734375,0.00711836339905858,-0.0071005201898515224,-0.0012543488992378116
1761315816482202400,5.612202392578125,0.009195628575980663,-0.00851519126445055,0.0014564828015863895
1761315816492250000,5.62225,0.007444600574672222,-0.008313057012856007,0.000565122754778713
1761315816502297000,5.632297119140625,0.006333795841783285,-0.0049026133492589,-0.0011094729416072369
1761315816512344000,5.642343994140625,0.006687197368592024,-0.007382282521575689,0.00046685212873853743
1761315816522391300,5.652391357421875,0.009302155114710331,-0.006687996443361044,0.0010106696281582117
1761315816532438300,5.662438232421875,0.00848536379635334,-0.006056827027350664,0.0009627327090129256
1761315816542485200,5.6724853515625,0.007193197961896658,-0.006656038574874401,0.0019355855183675885
1761315816552533200,5.682533203125,0.007410778198391199,-0.00987313687801361,0.0006538060260936618
1761315816562580200,5.692580322265625,0.008776181377470493,-0.008293616585433483,0.0029614351224154234
1761315816572627200,5.702627197265625,0.00544350128620863,-0.006617689039558172,0.0005994775565341115
1761315816582674200,5.712674072265625,0.007360977120697498,-0.007839547470211983,0.0018239989876747131
1761315816592721200,5.72272119140625,0.0060416474007070065,-0.005853095557540655,0.0009890979854390025
1761315816602769200,5.73276904296875,0.008688030764460564,-0.007959122769534588,0.002127066720277071
1761315816612816400,5.74281640625,0.007978564128279686,-0.007778294384479523,0.0018224010709673166
1761315816622863400,5.75286328125,0.009127984754741192,-0.008194812573492527,-0.0004295678809285164
1761315816632910300,5.762910400390625,0.00797430332750082,-0.008670453913509846,0.0014583469601348042
1761315816642957300,5.772957275390625,0.006402239203453064,-0.0072943982668221,0.004357996862381697
1761315816653004300,5.78300439453125,0.008882973343133926,-0.009588179178535938,0.0031012510880827904
1761315816663052300,5.79305224609375,0.008125570602715015,-0.0076001291163265705,0.002386458683758974
1761315816673099300,5.803099365234375,0.007729825098067522,-0.009235842153429985,0.0003557983145583421
1761315816683146200,5.813146240234375,0.006726878695189953,-0.005906092468649149,0.004680771846324205
1761315816693193200,5.823193115234375,0.007382815238088369,-0.006580404471606016,0.0011326423846185207
1761315816703240200,5.833240234375,0.008736765943467617,-0.007476292084902525,0.0019113506423309445
1761315816713287200,5.843287109375,0.008733037859201431,-0.007050186395645142,0.0009456885163672268
1761315816723335200,5.853335205078125,0.00830879621207714,-0.008465123362839222,0.0022090920247137547
1761315816733382100,5.863382080078125,0.00827683787792921,-0.005825398489832878,0.0022602248936891556
1761315816743429000,5.87342919921875,0.007330616936087608,-0.006000102031975985,0.0018349179299548268
1761315816753476000,5.88347607421875,0.00932346098124981,-0.008156996220350266,0.0025212145410478115
1761315816763523300,5.8935234375,0.006168679799884558,-0.007254983298480511,0.0023148194886744022
1761315816773570300,5.9035703125,0.007547132205218077,-0.006345513742417097,0.0015299860388040543
1761315816783618300,5.913618408203125,0.006177202332764864,-0.008806008845567703,0.0036543896421790123
1761315816793665300,5.923665283203125,0.008373511023819447,-0.008589759469032288,0.0037436054553836584
1761315816803712300,5.933712158203125,0.005785717628896236,-0.007428621407598257,-0.00022956448083277792
1761315816813759200,5.94375927734375,0.006101568229496479,-0.007282946724444628,0.0024943165481090546
1761315816823806200,5.95380615234375,0.008168714120984077,-0.00809334684163332,0.00023515711654908955
1761315816833853200,5.963853271484375,0.007837682962417603,-0.00595482811331749,0.0006101301987655461
1761315816843901200,5.973901123046875,0.008613195270299911,-0.007249390706419945,-0.0011701929615810513
1761315816853948200,5.9839482421875,0.009617473930120468,-0.01013838779181242,0.0032048479188233614
1761315816863995400,5.993995361328125,0.00911520142108202,-0.007457117084413767,0.002968359272927046
1761315816874042400,6.00404248046875,0.00893863383680582,-0.0073106433264911175,0.0041071269661188126
1761315816884088300,6.01408837890625,0.006521016359329224,-0.009383914060890675,0.0006298375665210187
1761315816894135300,6.02413525390625,0.007996140979230404,-0.008912534452974796,0.003022954100742936
1761315816904183300,6.034183349609375,0.006761766038835049,-0.008490690030157566,0.0006956176948733628
1761315816914230300,6.044230224609375,0.007999070920050144,-0.007878961972892284,0.0014213290996849537
1761315816924277200,6.05427734375,0.006785734556615353,-0.008881908841431141,0.0007166566210798919
1761315816934324200,6.06432421875,0.007608118467032909,-0.00791571382433176,-0.0010924286907538772
1761315816944371200,6.07437109375,0.007156446576118469,-0.007434746716171503,-0.00008122641156660393
1761315816954418400,6.08441845703125,0.008070177398622036,-0.004056793171912432,0.0022096247412264347
1761315816964466400,6.094466552734375,0.00777509855106473,-0.009671268984675407,0.0015880429418757558
1761315816974513400,6.104513427734375,0.010273143649101257,-0.009914415888488293,0.0020775320008397102
1761315816984560000,6.11456005859375,0.006786000914871693,-0.007219829596579075,0.002435993403196335
1761315816994607000,6.124607177734375,0.006444850005209446,-0.00977380108088255,0.0006580671179108322
1761315817004654300,6.134654296875,0.00800253264605999,-0.00675164582207799,0.0007667240570299327
1761315817014701300,6.144701416015625,0.008914132602512836,-0.00714765815064311,0.0003299656673334539
1761315817024749300,6.154749267578125,0.0057199373841285706,-0.006081061903387308,0.0011174624087288976
1761315817034796300,6.16479638671875,0.006648048758506775,-0.007495732977986336,0.0025454494170844555
1761315817044843300,6.17484326171875,0.005130846053361893,-0.005570534151047468,0.0025659557431936264
1761315817054890500,6.184890380859375,0.006110623013228178,-0.008933573961257935,0.0008777778712101281
1761315817064937500,6.1949375,0.0076392777264118195,-0.006268282420933247,0.0028240159153938293
1761315817074984200,6.204984130859375,0.006857906002551317,-0.008294947445392609,0.001538241864182055
1761315817085032200,6.2150322265625,0.0032051142770797014,-0.00734340026974678,-0.00025832661776803434
1761315817095079400,6.225079345703125,0.006843524985015392,-0.007540207821875811,0.0022029669489711523
1761315817105126400,6.23512646484375,0.007764712441712618,-0.008117315359413624,0.002633067313581705
1761315817115173400,6.24517333984375,0.005304750520735979,-0.007921040058135986,0.0025835325941443443
1761315817125220400,6.255220458984375,0.006955910474061966,-0.008810536004602909,0.001930791768245399
1761315817135267300,6.265267333984375,0.009913350455462933,-0.006653641816228628,0.0022178804501891136
1761315817145315300,6.2753154296875,0.006523413117974997,-0.009766876697540283,0.001086037140339613
1761315817155362300,6.2853623046875,0.009886186569929123,-0.009424926713109016,0.002410160843282938
1761315817165409300,6.2954091796875,0.007789480034261942,-0.009498430415987968,0.002996056107804179
1761315817175456300,6.305456298828125,0.0070794811472296715,-0.008930377662181854,-0.0028999161440879107
1761315817185503200,6.315503173828125,0.0076275598257780075,-0.004544950556010008,-0.0015552861150354147
1761315817195550200,6.32555029296875,0.010188987478613853,-0.008123706094920635,0.0015398397808894515
1761315817205598500,6.335598388671875,0.007933557033538818,-0.007655789144337177,0.0025092302821576595
1761315817215645400,6.3456455078125,0.007677360903471708,-0.008823052980005741,-0.00044528054422698915
1761315817225692200,6.355692138671875,0.009100021794438362,-0.008464591577649117,0.0005896238726563752
1761315817235739100,6.3657392578125,0.006482400465756655,-0.008983108215034008,0.0007560714147984982
1761315817245786400,6.375786376953125,0.007888549007475376,-0.009546900168061256,0.0024983114562928677
1761315817255833300,6.385833251953125,0.007591873407363892,-0.007059773895889521,0.003372893435880542
1761315817265881300,6.39588134765625,0.006392918061465025,-0.007278951816260815,0.0027803401462733746
1761315817275928300,6.40592822265625,0.00836818479001522,-0.008400408551096916,0.0009797769598662853
1761315817285975300,6.415975341796875,0.005595301277935505,-0.008372711949050426,0.001859152689576149
1761315817296022500,6.4260224609375,0.008042213506996632,-0.006511695217341185,0.0025390577502548695
1761315817306069200,6.4360693359375,0.007752195466309786,-0.00691995769739151,0.0009126652730628848
1761315817316116200,6.4461162109375,0.007138070650398731,-0.007568437606096268,0.00381391285918653
1761315817326164200,6.456164306640625,0.007516505662351847,-0.008888034150004387,0.0008910936885513365
1761315817336211200,6.466211181640625,0.0065170214511454105,-0.006947654765099287,0.0022948458790779114
1761315817346258400,6.476258544921875,0.007361243478953838,-0.00860201008617878,0.001961684552952647
1761315817356305400,6.486305419921875,0.007646734360605478,-0.00860573910176754,0.002829608740285039
1761315817366352400,6.496352294921875,0.004476241301745176,-0.0068030450493097305,0.0007321029552258551
1761315817376399400,6.5063994140625,0.0065588331781327724,-0.005094626918435097,0.002088983543217182
1761315817386446300,6.5164462890625,0.007632086984813213,-0.007266168482601643,0.0019401127938181162
1761315817396494300,6.526494384765625,0.007666441611945629,-0.008139153011143208,0.0008548747282475233
1761315817406541300,6.536541259765625,0.00749120581895113,-0.007829161360859871,0.001686846255324781
1761315817416588300,6.54658837890625,0.007113835774362087,-0.007345797028392553,0.00449781259521842
1761315817426635300,6.55663525390625,0.008010522462427616,-0.008214786648750305,0.0008942894637584686
1761315817436682200,6.56668212890625,0.007228085305541754,-0.005058141890913248,0.003963316325098276
1761315817446729500,6.5767294921875,0.008050469681620598,-0.007173490710556507,0.004005660768598318
1761315817456777200,6.586777099609375,0.008683769032359123,-0.00681263254955411,0.0029923277907073498
1761315817466824200,6.59682421875,0.012521384283900261,-0.007622233126312494,0.001133174984715879
1761315817476871200,6.60687109375,0.004977181553840637,-0.006908772513270378,0.004077565856277943
1761315817486918100,6.616918212890625,0.008188420906662941,-0.008851548656821251,0.0027654264122247696
1761315817496965400,6.62696533203125,0.004991296678781509,-0.009916014038026333,0.0036461339332163334
1761315817507012400,6.637012451171875,0.007748466916382313,-0.0085452850908041,0.002182993106544018
1761315817517060400,6.647060302734375,0.007634217385202646,-0.0076003954745829105,0.0046757119707763195
1761315817527107300,6.657107421875,0.008812665939331055,-0.008657404221594334,0.003629888640716672
1761315817537154300,6.667154296875,0.006515423767268658,-0.007142597809433937,0.0027537085115909576
1761315817547201300,6.677201171875,0.0065537733025848866,-0.0062554990872740746,0.0014623417519032955
1761315817557248300,6.687248291015625,0.005103948060423136,-0.00866379588842392,0.002922020386904478
1761315817567295200,6.697295166015625,0.006961236707866192,-0.007315170951187611,0.0008692557457834482
1761315817577343200,6.70734326171875,0.007017695810645819,-0.0068179587833583355,0.001680720946751535
1761315817587390500,6.717390380859375,0.0065503111109137535,-0.007576959673315287,-0.0004966795677319169
1761315817597437400,6.7274375,0.008252603933215141,-0.004340153653174639,0.0011209244839847088
1761315817607484400,6.737484375,0.006708769127726555,-0.00842597521841526,-0.0002593918761704117
1761315817617531400,6.747531494140625,0.00896979309618473,-0.007934622466564178,0.0008689894457347691
1761315817627578400,6.757578369140625,0.005591306835412979,-0.007935953326523304,0.0023254721891134977
1761315817637625300,6.767625244140625,0.006225671619176865,-0.008891229517757893,0.0012234562309458852
1761315817647673300,6.77767333984375,0.007953263819217682,-0.006742591038346291,0.00025752768851816654
1761315817657720300,6.78772021484375,0.007446997333317995,-0.009699499234557152,0.00041731735109351575
1761315817667767300,6.797767333984375,0.0070648337714374065,-0.006632070057094097,0.0016743293963372707
1761315817677814300,6.807814208984375,0.00657667638733983,-0.00833702553063631,0.0016919062472879887
1761315817687861200,6.817861328125,0.00857298169285059,-0.008859271183609962,0.0011025486746802926
1761315817697908500,6.827908447265625,0.006315154023468494,-0.008786301128566265,0.00230842805467546
1761315817707956200,6.837956298828125,0.00803315918892622,-0.007964183576405048,0.0024735440965741873
1761315817718003200,6.848003173828125,0.00640729907900095,-0.006619286723434925,0.001615207176655531
1761315817728050200,6.85805029296875,0.006166016682982445,-0.008158328011631966,0.0017483652336522937
1761315817738097400,6.868097412109375,0.007234210614115,-0.007143663242459297,-0.0003294330381322652
1761315817748144400,6.878144287109375,0.00920361839234829,-0.008164718747138977,0.0017992316279560328
1761315817758191400,6.88819140625,0.006277336739003658,-0.007180680986493826,0.004381699021905661
1761315817768239400,6.8982392578125,0.011333081871271133,-0.0072869411669671535,0.0018375811632722616
1761315817778286300,6.908286376953125,0.007691209204494953,-0.005014732480049133,0.0008990831556729972
1761315817788333300,6.918333251953125,0.007089867256581783,-0.007429686840623617,0.0037638454232364893
1761315817798380300,6.92838037109375,0.007418501656502485,-0.004988100845366716,0.003070358419790864
1761315817808427300,6.93842724609375,0.003926298581063747,-0.007408914156258106,0.0007472829893231392
1761315817818474200,6.94847412109375,0.006523945834487677,-0.009225456044077873,0.0018730012234300375
1761315817828521200,6.958521240234375,0.006166283041238785,-0.007952465675771236,0.00021278657368384302
1761315817838569500,6.968569580078125,0.006050435826182365,-0.007601194549351931,0.002061553066596389
1761315817848616400,6.978616455078125,0.005891445092856884,-0.007693073246628046,0.0025182850658893585
1761315817858663400,6.988663330078125,0.006795854307711124,-0.006499178241938353,0.0028099012561142445
1761315817868710400,6.99871044921875,0.006393450777977705,-0.008476309478282928,0.0007062703371047974
1761315817878757000,7.008757080078125,0.006555637344717979,-0.009611348621547222,0.0025457157753407955
1761315817888805000,7.01880517578125,0.00461632339283824,-0.007526625879108906,0.00000852211542223813
1761315817898853400,7.028853271484375,0.00893730204552412,-0.007209975738078356,-0.0015867113834246993
1761315817908900400,7.038900390625,0.0067633637227118015,-0.00794207863509655,-0.0013845774810761213
1761315817918947300,7.048947265625,0.00640889722853899,-0.007947671227157116,0.001975000137463212
1761315817928994300,7.058994384765625,0.008764197118580341,-0.00806351937353611,0.0019081549253314734
1761315817939041000,7.069041015625,0.007861385121941566,-0.008895490318536758,0.0012359730899333954
1761315817949088000,7.079087890625,0.007470166776329279,-0.007330883294343948,-0.0007667240570299327
1761315817959135200,7.08913525390625,0.0059902481734752655,-0.005960953421890736,-0.0003579288604669273
1761315817969183200,7.099183349609375,0.009636914357542992,-0.007345264777541161,0.0027395938523113728
1761315817979230200,7.109230224609375,0.005348692648112774,-0.00743155088275671,0.0028189560398459435
1761315817989277200,7.119277099609375,0.010747186839580536,-0.007437409833073616,0.0012093414552509785
1761315817999324200,7.12932421875,0.008115450851619244,-0.008391354233026505,0.0017720673931762576
1761315818009371400,7.139371337890625,0.007995341904461384,-0.00965742114931345,0.0026727484073489904
1761315818019418000,7.149418212890625,0.00920068845152855,-0.005013933405280113,0.0008652610122226179
1761315818029466000,7.159466064453125,0.006657636258751154,-0.008582036942243576,0.0017246630741283298
1761315818039513000,7.16951318359375,0.006478405557572842,-0.006416353862732649,0.0006519418093375862
1761315818049560000,7.17956005859375,0.009119728580117226,-0.008718656376004219,-0.00016005597717594355
1761315818059607300,7.189607177734375,0.007928497157990932,-0.0054882424883544445,0.0016391756944358349
1761315818069654300,7.199654296875,0.0052139367908239365,-0.007721835747361183,0.003367833560332656
1761315818079701200,7.209701171875,0.009319731965661049,-0.010790329426527023,0.004336425103247166
1761315818089749000,7.2197490234375,0.005939648021012545,-0.008126103319227695,0.0028605014085769653
1761315818099796200,7.229796142578125,0.007544735446572304,-0.009342635050415993,0.0037822213489562273
1761315818109843200,7.23984326171875,0.005125253461301327,-0.008458998054265976,0.0007779093575663865
1761315818119890200,7.24989013671875,0.008464591577649117,-0.005933789070695639,0.0007882956997491419
1761315818129937200,7.259937255859375,0.0059841228649020195,-0.009372728876769543,0.002284459536895156
1761315818139984100,7.269984130859375,0.009137305431067944,-0.006804110016673803,0.0010839065071195364
1761315818150031000,7.280031005859375,0.006954045966267586,-0.00851199496537447,0.0005131911602802575
1761315818160079400,7.290079345703125,0.008068046532571316,-0.008234760724008083,0.0008005462004803121
1761315818170126000,7.3001259765625,0.006173473782837391,-0.006797718815505505,0.0018186726374551654
1761315818180173000,7.310173095703125,0.00842570886015892,-0.007786017842590809,0.001549959764815867
1761315818190220000,7.320219970703125,0.005261074751615524,-0.007144195958971977,0.0017699368763715029
1761315818200267000,7.33026708984375,0.008083226159214973,-0.008764463476836681,0.0020652813836932182
1761315818210314200,7.340314208984375,0.007764978799968958,-0.010605240240693092,0.002407231368124485
1761315818220361200,7.350361328125,0.010468353517353535,-0.005841377656906843,0.002659432590007782
1761315818230409200,7.3604091796875,0.009414274245500565,-0.008852614089846611,0.001600293442606926
1761315818240456200,7.370456298828125,0.009072590619325638,-0.007794539909809828,0.001781921018846333
1761315818250503400,7.38050341796875,0.007701861672103405,-0.006332730874419212,0.002026133006438613
1761315818260550100,7.390550048828125,0.00603472301736474,-0.009007609449326992,0.002016811864450574
1761315818270597000,7.40059716796875,0.007081345189362764,-0.006163886282593012,0.0028493159916251898
1761315818280644000,7.41064404296875,0.006136455573141575,-0.0062826634384691715,0.0036195022985339165
1761315818290692000,7.420692138671875,0.009346097707748413,-0.007442736066877842,0.0027712853625416756
1761315818300739300,7.4307392578125,0.007456584833562374,-0.007314904592931271,-0.0002537992550060153
1761315818310786300,7.440786376953125,0.0076422072015702724,-0.00651595601812005,0.0021254688035696745
1761315818320833300,7.450833251953125,0.0073106433264911175,-0.00646615494042635,0.00227913330309093
1761315818330880300,7.46088037109375,0.011181814596056938,-0.008423578925430775,0.002517752582207322
1761315818340927200,7.47092724609375,0.005195294506847858,-0.007497597485780716,-0.0003531351685523987
1761315818350974200,7.48097412109375,0.005246427375823259,-0.007941014133393764,-0.00042104575550183654
1761315818361022200,7.491022216796875,0.007951400242745876,-0.007517837453633547,-0.0016101471846923232
1761315818371069200,7.501069091796875,0.008144745603203773,-0.00660384027287364,0.001588575541973114
1761315818381116200,7.5111162109375,0.005310343112796545,-0.008436361327767372,0.001306014135479927
1761315818391163100,7.5211630859375,0.007296795025467873,-0.008374043740332127,0.002153165638446808
1761315818401210000,7.531210205078125,0.003964381758123636,-0.006474677007645369,-0.0005278385360725224
1761315818411257300,7.54125732421875,0.003994208760559559,-0.005791310220956802,0.0009262474486604333
1761315818421305000,7.55130517578125,0.007807589136064053,-0.0037412086967378855,-0.00035446672700345516
1761315818431352000,7.56135205078125,0.008066981099545956,-0.0075852153822779655,0.0007257114048115909
1761315818441399000,7.57139892578125,0.006368949543684721,-0.0070435283705592155,-0.0021643510553985834
1761315818451446300,7.5814462890625,0.005772934295237064,-0.008313323371112347,0.001714010490104556
1761315818461493200,7.5914931640625,0.006707970052957535,-0.006618488114327192,0.0008833705214783549
1761315818471540200,7.601540283203125,0.007260043174028397,-0.007576426956802607,0.0009984191274270415
1761315818481587200,7.611587158203125,0.007188404444605112,-0.0070890686474740505,-0.0004985437262803316
1761315818491635200,7.62163525390625,0.00785472709685564,-0.007337541319429874,-0.001163268811069429
1761315818501682200,7.63168212890625,0.005646167788654566,-0.006910636555403471,0.0008295746520161629
1761315818511729200,7.641729248046875,0.008701345883309841,-0.009671801701188087,0.0021252024453133345
1761315818521776000,7.651776123046875,0.00914609432220459,-0.009793242439627647,-0.0013662016717717052
1761315818531823000,7.661822998046875,0.008168714120984077,-0.005381183233112097,-0.0004093278548680246
1761315818541870000,7.6718701171875,0.00612287363037467,-0.007466438226401806,0.0033723609521985054
1761315818551917000,7.6819169921875,0.008214520290493965,-0.008348477073013783,-0.00006578007742064074
1761315818561965300,7.69196533203125,0.006159359123557806,-0.00782383419573307,0.001253017340786755
1761315818572012300,7.70201220703125,0.0065069012343883514,-0.007056311704218388,0.0028152274899184704
1761315818582059300,7.712059326171875,0.007237939164042473,-0.008531436324119568,0.000904409505892545
1761315818592106000,7.72210595703125,0.008687498047947884,-0.0073505910113453865,0.00022956448083277792
1761315818602153200,7.7321533203125,0.007918909192085266,-0.009217467159032822,0.0017496967921033502
1761315818612200200,7.7422001953125,0.007652060594409704,-0.009459814056754112,0.0013555489713326097
1761315818622248200,7.752248291015625,0.007782289292663336,-0.006464557256549597,0.00009986854274757206
1761315818632295200,7.762295166015625,0.005940180737525225,-0.00848296657204628,0.0035358788445591927
1761315818642342100,7.772342041015625,0.007417702581733465,-0.007901332341134548,0.0007142598042264581
1761315818652389400,7.782389404296875,0.008215852081775665,-0.00821105856448412,0.0019350528018549085
1761315818662436400,7.792436279296875,0.006073605269193649,-0.007056578062474728,-0.0002817624481394887
1761315818672483300,7.8024833984375,0.007848868146538734,-0.00785419438034296,0.0010847054654732347
1761315818682530000,7.812530029296875,0.008467254228889942,-0.0060115535743534565,0.0018887137994170189
1761315818692578000,7.822578125,0.005102350376546383,-0.008704009465873241,0.00031798143754713237
1761315818702625300,7.832625244140625,0.005637912079691887,-0.007751929108053446,0.002484729280695319
1761315818712672300,7.84267236328125,0.007254983298480511,-0.00839934404939413,0.0021321268286556005
1761315818722719200,7.85271923828125,0.007404386531561613,-0.006974020041525364,-0.00032410668791271746
1761315818732766200,7.86276611328125,0.010277670808136463,-0.008372445590794086,0.0013345100451260805
1761315818742813200,7.872813232421875,0.007503456436097622,-0.008315187878906727,0.0021848573815077543
1761315818752860200,7.882860107421875,0.008866461925208569,-0.0082704471424222,0.0011427623685449362
1761315818762908200,7.892908203125,0.009034507907927036,-0.00866139866411686,0.0014791196445003152
1761315818772955100,7.902955078125,0.010102168656885624,-0.006363090593367815,-0.000957939017098397
1761315818783002000,7.913002197265625,0.008688562549650669,-0.007218231912702322,-0.0010847054654732347
1761315818793049000,7.923049072265625,0.00797456968575716,-0.007592672016471624,0.0032205607276409864
1761315818803096300,7.933096435546875,0.008093879558146,-0.006975884083658457,0.0017590179340913892
1761315818813143300,7.943143310546875,0.008420915342867374,-0.007929561659693718,0.003311108099296689
1761315818823190300,7.953190185546875,0.006084524095058441,-0.006923153530806303,0.001651426195167005
1761315818833238000,7.963238037109375,0.010265686549246311,-0.010449977591633797,0.0020450414158403873
1761315818843285000,7.973284912109375,0.005218996666371822,-0.006841128226369619,0.00361737166531384
1761315818853332200,7.983332275390625,0.00891200266778469,-0.008006260730326176,0.0025875272694975138
1761315818863379200,7.993379150390625,0.008577775210142136,-0.007095726206898689,0.0015073491958901286
1761315818873426200,8.00342626953125,0.008839298039674759,-0.008734636008739471,0.0035270904190838337
1761315818883473200,8.01347314453125,0.00606295233592391,-0.006340986583381891,0.000827177835162729
1761315818893523200,8.023523193359376,0.0051537491381168365,-0.006229666527360678,0.003466104157269001
1761315818903571200,8.0335712890625,0.0049614692106842995,-0.008521316573023796,0.00361763802357018
1761315818913618200,8.0436181640625,0.005032575689256191,-0.0054485611617565155,0.001315068919211626
1761315818923665400,8.05366552734375,0.007872037589550018,-0.00788348913192749,0.003625893732532859
1761315818933712100,8.063712158203124,0.005821137689054012,-0.009431851096451283,0.0036306874826550484
1761315818943759000,8.073759033203125,0.0051476238295435905,-0.006927414797246456,0.0023126890882849693
1761315818953806000,8.08380615234375,0.007683752104640007,-0.005828860681504011,0.0014982944121584296
1761315818963853000,8.09385302734375,0.0062158177606761456,-0.006657369900494814,0.0022570290602743626
1761315818973901300,8.1039013671875,0.009609217755496502,-0.006991596892476082,0.0024165522772818804
1761315818983948300,8.1139482421875,0.008886436000466347,-0.009148224256932735,0.003993410151451826
1761315818993995300,8.123995361328125,0.00717562111094594,-0.006903712637722492,0.0022205437999218702
1761315819004042200,8.134042236328124,0.0051622712053358555,-0.00865980051457882,0.001443166984245181
1761315819014089200,8.144089111328125,0.006989998742938042,-0.00811917893588543,0.004741491749882698
1761315819024136200,8.15413623046875,0.008138620294630527,-0.006060555577278137,0.00236275652423501
1761315819034183200,8.16418310546875,0.009120261296629906,-0.008267250843346119,0.004635232035070658
1761315819044231200,8.174231201171875,0.009062204509973526,-0.007643804885447025,0.00276063266210258
1761315819054278100,8.184278076171875,0.007623564917594194,-0.005658152047544718,0.0015965650090947747
1761315819064325000,8.1943251953125,0.00800146721303463,-0.007170561235398054,0.0004293015517760068
1761315819074372400,8.204372314453124,0.007686415687203407,-0.006542587652802467,0.0020959076937288046
1761315819084419300,8.21441943359375,0.007404120173305273,-0.007419832982122898,0.0011044129496440291
1761315819094466300,8.22446630859375,0.008670187555253506,-0.007302387617528439,0.0030453247018158436
1761315819104513300,8.23451318359375,0.007567372173070908,-0.006554571911692619,0.0005645901546813548
1761315819114561000,8.24456103515625,0.00998898409307003,-0.008233428932726383,0.001928128651343286
1761315819124608300,8.254608154296875,0.007517837453633547,-0.008039550855755806,0.0011797803454101086
1761315819134655200,8.2646552734375,0.007939682342112064,-0.007558850105851889,0.0023126890882849693
1761315819144702200,8.2747021484375,0.006119677796959877,-0.010053698904812336,0.000404534162953496
1761315819154749200,8.284749267578125,0.007685616612434387,-0.00953784491866827,0.00015233281010296196
1761315819164796200,8.294796142578125,0.007786550559103489,-0.007178017869591713,-0.0001459412305848673
1761315819174843100,8.304843017578126,0.006336192600429058,-0.006052033510059118,0.002326271263882518
1761315819184891100,8.31489111328125,0.006202502176165581,-0.006159891374409199,0.0026589001063257456
1761315819194938000,8.324938232421875,0.006086121778935194,-0.008276039734482765,0.002666090615093708
1761315819204985000,8.334985107421875,0.007852597162127495,-0.005819273181259632,0.0005547364708036184
1761315819215032000,8.345031982421874,0.007816910743713379,-0.008201470598578453,-0.00018136126163881272
1761315819225079300,8.355079345703125,0.005856557283550501,-0.008473379537463188,0.0021462414879351854
1761315819235126300,8.365126220703125,0.007907191291451454,-0.007653392385691404,0.0007725830073468387
1761315819245173200,8.37517333984375,0.008590558543801308,-0.008521316573023796,0.001412806916050613
1761315819255221200,8.38522119140625,0.008415056392550468,-0.007601194549351931,0.0008040083339437842
1761315819265268000,8.39526806640625,0.01059272326529026,-0.007634217385202646,0.0010969560826197267
1761315819275315200,8.405315185546876,0.0070709590800106525,-0.005621932912617922,-0.000984836951829493
1761315819285362200,8.415362060546874,0.00854368694126606,-0.008232896216213703,0.0008474178612232208
1761315819295409200,8.4254091796875,0.009149023331701756,-0.006971622817218304,-0.0005041363765485585
1761315819305456000,8.4354560546875,0.008087487891316414,-0.006651510950177908,0.004781173076480627
1761315819315503000,8.445503173828126,0.009093097411096096,-0.007559116464108229,0.0002668487431947142
1761315819325551400,8.45555126953125,0.011350925080478191,-0.00902518630027771,0.0011614045361056924
1761315819335598300,8.465598388671875,0.008126902393996716,-0.00794367678463459,0.00014221279707271606
1761315819345645300,8.475645263671876,0.009663812816143036,-0.009673399850726128,0.0000029294772048160667
1761315819355692000,8.485692138671874,0.00875168014317751,-0.006150570698082447,0.0029313412960618734
1761315819365739000,8.495739013671875,0.007699731271713972,-0.008225172758102417,0.003924700431525707
1761315819375786200,8.5057861328125,0.00848456472158432,-0.00887684803456068,0.0011291803093627095
1761315819385833200,8.515833251953126,0.006718356627970934,-0.008281898684799671,0.0032112395856529474
1761315819395880200,8.525880126953124,0.004994758404791355,-0.007935420610010624,-0.00044900894863530993
1761315819405928200,8.53592822265625,0.007257380057126284,-0.007595069240778685,0.0021076255943626165
1761315819415975200,8.54597509765625,0.005402754992246628,-0.008836101740598679,0.0023899206425994635
1761315819426022400,8.5560224609375,0.00754952896386385,-0.006728742737323046,0.0012402341235429049
1761315819436069400,8.5660693359375,0.007637413218617439,-0.006609965581446886,0.0006285060080699623
1761315819446116000,8.5761162109375,0.007136738859117031,-0.009483249858021736,0.0016429040115326643
1761315819456163000,8.5861630859375,0.0073532541282474995,-0.007468302734196186,-0.0004194478678982705
1761315819466211000,8.596211181640625,0.008952482603490353,-0.006653109099715948,0.001074052881449461
1761315819476258300,8.60625830078125,0.006322877015918493,-0.008539958856999874,-0.000696150294970721
1761315819486305300,8.61630517578125,0.011141601018607616,-0.006636330857872963,0.0027768779546022415
1761315819496352300,8.626352294921874,0.00782410055398941,-0.00632127933204174,0.002519350266084075
1761315819506399200,8.636399169921875,0.007346063386648893,-0.008037952706217766,0.0008671252289786935
1761315819516446200,8.6464462890625,0.010184993036091328,-0.006556968670338392,0.004554538056254387
1761315819526493200,8.6564931640625,0.01122256089001894,-0.007101585157215595,0.003129746997728944
1761315819536540200,8.6665400390625,0.006549512036144733,-0.005869606975466013,0.001683384063653648
1761315819546588200,8.676588134765625,0.007795604877173901,-0.008114385418593884,0.004299673717468977
1761315819556635100,8.68663525390625,0.007364972028881311,-0.004516454879194498,0.002031459240242839
1761315819566682000,8.69668212890625,0.008317850530147552,-0.009643838740885258,0.002540655666962266
1761315819576729300,8.706729248046875,0.006667223758995533,-0.007429686840623617,0.002208026824519038
1761315819586776300,8.7167763671875,0.009579656645655632,-0.005951632279902697,0.005004079546779394
1761315819596823300,8.7268232421875,0.004935636185109615,-0.006470682565122843,0.0018514295807108283
1761315819606870300,8.736870361328124,0.007601460441946983,-0.008876049891114235,0.0009036105475388467
1761315819616918000,8.74691796875,0.007228884380310774,-0.009947971440851688,0.002975283656269312
1761315819626965200,8.75696533203125,0.006196909584105015,-0.010641992092132568,-0.00035180358099751174
1761315819637012200,8.76701220703125,0.006930344272404909,-0.007874168455600739,0.001865544356405735
1761315819647059200,8.77705908203125,0.005785184912383556,-0.007999070920050144,0.0024383901618421078
1761315819657106200,8.787106201171875,0.006885869428515434,-0.007191600278019905,0.0049430932849645615
1761315819667153200,8.797153076171876,0.00686056911945343,-0.009761816821992397,0.0023558323737233877
