time,seconds_elapsed,z,y,x
1761334193997778700,0.07977880859375,0.22418737411499023,-1.2455532550811768,-0.09040798991918564
1761334194016480300,0.098480224609375,0.1997527778148651,-1.3720022439956665,-0.3035998046398163
1761334194035181600,0.117181640625,0.2565632164478302,-1.2241730690002441,-0.44837474822998047
1761334194053883100,0.135883056640625,0.3390299379825592,-0.7623592615127563,-0.5919279456138611
1761334194072584700,0.154584716796875,0.2663370370864868,-0.29077163338661194,-0.6933315396308899
1761334194091286300,0.173286376953125,0.13500112295150757,0.01954767294228077,-0.7422007322311401
1761334194109987600,0.191987548828125,0.04276053607463837,0.30970844626426697,-0.739757239818573
1761334194128689200,0.210689208984375,0.043982263654470444,0.318871408700943,-0.516791582107544
1761334194147390700,0.229390625,0.08429934084415436,-0.053756099194288254,-0.046425722539424896
1761334194166092000,0.248092041015625,0.07086031138896942,-0.38850998878479004,0.5583304166793823
1761334194184793600,0.266793701171875,-0.01954767294228077,-0.4251618981361389,1.158199667930603
1761334194203495200,0.2854951171875,-0.3500255048274994,-0.6927206516265869,1.0555742979049683
1761334194222196500,0.304196533203125,-0.665842592716217,0.2162461280822754,0.3384190797805786
1761334194240898000,0.32289794921875,-0.37201663851737976,1.426369309425354,0.11606431007385254
1761334194259599600,0.341599609375,-0.07880155742168427,1.423925757408142,-0.6646208763122559
1761334194278301200,0.36030126953125,0.35124725103378296,1.3371829986572266,-1.1417062282562256
1761334194297002500,0.37900244140625,0.19792018830776215,1.0696241855621338,-1.2180644273757935
1761334194315704000,0.3977041015625,-0.04764745384454727,0.011606430634856224,-0.9450078010559082
1761334194334405600,0.416405517578125,-0.09957095980644226,-0.9260709881782532,-0.6860011219978333
1761334194353107200,0.435107177734375,0.006719512399286032,-0.9401208758354187,-0.6359102129936218
1761334194371808500,0.45380859375,-0.15088360011577606,-0.9266818761825562,-0.8625410795211792
1761334194390510000,0.472510009765625,-0.3915643095970154,-1.2418880462646484,-1.1319323778152466
1761334194409211600,0.491211669921875,-0.2828303873538971,-0.8307760953903198,-1.0012073516845703
1761334194427913000,0.509912841796875,-0.07574722915887833,0.03543015569448471,-0.5430588126182556
1761334194446614500,0.528614501953125,-0.08979712426662445,0.2614501118659973,0.1649334877729416
1761334194465316000,0.547316162109375,-0.2003636509180069,-0.18814635276794434,0.813060998916626
1761334194484017400,0.566017333984375,-0.23823726177215576,-0.5296197533607483,1.1013891696929932
1761334194502719000,0.584718994140625,-0.1588248461484909,-0.44837474822998047,1.0305289030075073
1761334194521420500,0.603420654296875,0.011606430634856224,-0.3066541254520416,0.6866120100021362
1761334194540122000,0.6221220703125,0.1081230640411377,-0.0513126403093338,0.164322629570961
1761334194558823400,0.640823486328125,0.1740964651107788,0.3842339515686035,-0.3341430425643921
1761334194577525000,0.65952490234375,0.29077163338661194,0.831997811794281,-0.6010909676551819
1761334194596226600,0.6782265625,0.29626941680908203,1.0555742979049683,-0.4770853817462921
1761334194614928000,0.696927978515625,0.16249002516269684,0.7275399565696716,-0.0513126403093338
1761334194633629400,0.71562939453125,0.0665842592716217,0.35063639283180237,0.5247328281402588
1761334194652331000,0.7343310546875,0.08918625861406326,0.3335321843624115,1.0396918058395386
1761334194671032600,0.753032470703125,0.17898337543010712,0.4098902642726898,1.2736530303955078
1761334194689734000,0.77173388671875,0.2412915825843811,0.49541133642196655,1.3194679021835327
1761334194708435500,0.790435546875,0.07269290834665298,0.5583304166793823,1.1343759298324585
1761334194727137000,0.809136962890625,-0.039706211537122726,-0.05497783049941063,0.43982264399528503
1761334194745838300,0.82783837890625,0.0409279391169548,-1.1129956245422363,-0.5375609993934631
1761334194764540000,0.846539794921875,-0.12400554865598679,-1.4477494955062866,-1.5558725595474243
1761334194783241500,0.865241455078125,0.010995565913617611,0.29565855860710144,-1.7904446125030518
1761334194801943000,0.883943115234375,0.5027416944503784,1.53510320186615,-1.1753038167953491
1761334194820644600,0.90264453125,0.7819069027900696,0.3078758418560028,-0.4202749729156494
1761334194839346000,0.921345947265625,0.555276095867157,-1.4477494955062866,0.18264856934547424
1761334194858047500,0.940047607421875,0.4111120104789734,-1.5906919240951538,0.7984002828598022
1761334194876748800,0.958748779296875,0.205861434340477,-0.5369501113891602,0.9755510687828064
1761334194895450400,0.977450439453125,-0.16554436087608337,0.5876519083976746,0.4111120104789734
1761334194914152000,0.99615185546875,-0.2669478952884674,1.1423171758651733,0.0054977829568088055
1761334194932853500,1.014853515625,-0.2834412455558777,0.8686497211456299,0.1747073233127594
1761334194951554800,1.033554931640625,-0.3023780584335327,0.10323614627122879,0.5430588126182556
1761334194970256400,1.05225634765625,-0.21135921776294708,-0.42088583111763,0.7342594861984253
1761334194988958000,1.0709580078125,-0.15515965223312378,-0.5057960152626038,0.7275399565696716
1761334195007659300,1.0896591796875,-0.1331685185432434,-0.4056142270565033,0.40927940607070923
1761334195026360800,1.10836083984375,-0.08552107214927673,-0.1802051067352295,-0.143553227186203
1761334195045062400,1.1270625,0.02260199747979641,-0.009773836471140385,-0.5870410799980164
1761334195063764000,1.145763916015625,0.21380266547203064,0.047036588191986084,-0.6701186895370483
1761334195082465500,1.164465576171875,0.37751442193984985,0.06230820715427399,-0.4263836145401001
1761334195101166800,1.183166748046875,0.35613417625427246,0.09651663154363632,-0.03909534588456154
1761334195119868400,1.201868408203125,0.31031930446624756,0.2370155304670334,0.3133736252784729
1761334195138570000,1.220570068359375,0.29138249158859253,0.2516762912273407,0.5051851868629456
1761334195157271300,1.239271240234375,0.28588470816612244,0.46547895669937134,0.6017017960548401
1761334195175972900,1.257972900390625,0.08979712426662445,0.6255255341529846,0.5485565662384033
1761334195194674400,1.27667431640625,-0.14721840620040894,-0.27550002932548523,-0.21197007596492767
1761334195213375700,1.295375732421875,-0.164322629570961,-1.5033382177352905,-1.490510106086731
1761334195232077300,1.314077392578125,0.08307760953903198,-1.8784091472625732,-2.375042200088501
1761334195250779000,1.33277880859375,0.6261364221572876,-0.5155698657035828,-1.9443825483322144
1761334195269480400,1.35148046875,0.7177661061286926,0.8313869833946228,-0.09407317638397217
1761334195288181800,1.370181640625,0.4667007029056549,0.28954991698265076,1.3188570737838745
1761334195306883300,1.38888330078125,0.08796452730894089,-0.7318159937858582,1.6878193616867065
1761334195325585000,1.4075849609375,-0.20830489695072174,-0.5491674542427063,1.2638791799545288
1761334195344286500,1.426286376953125,-0.35246896743774414,0.5247328281402588,0.42821621894836426
1761334195362987800,1.44498779296875,-0.4416552484035492,1.1905754804611206,-0.03848448023200035
1761334195381689300,1.463689453125,-0.5094612240791321,0.9181297421455383,0.10629047453403473
1761334195400391000,1.482390869140625,-0.6255255341529846,0.25900667905807495,0.44898560643196106
1761334195419092200,1.50109228515625,-0.6682860851287842,-0.1844811588525772,0.4886918365955353
1761334195437793800,1.519793701171875,-0.6334667801856995,-0.16004657745361328,0.22296564280986786
1761334195456495400,1.538495361328125,-0.46608981490135193,-0.059864748269319534,-0.19792018830776215
1761334195475196700,1.55719677734375,-0.20341797173023224,-0.10140355676412582,-0.5821541547775269
1761334195493898200,1.575898193359375,0.08368847519159317,-0.3610210716724396,-0.7067705392837524
1761334195512599800,1.594599853515625,0.3029889166355133,-0.4917461574077606,-0.5607738494873047
1761334195531301400,1.61330126953125,0.36285367608070374,-0.38728827238082886,-0.19303326308727264
1761334195550003000,1.6320029296875,0.2663370370864868,-0.05253437161445618,0.23518294095993042
1761334195568704300,1.650704345703125,0.2003636509180069,0.17715078592300415,0.5161807537078857
1761334195587405800,1.66940576171875,0.18387030065059662,0.13439024984836578,0.5540543794631958
1761334195606107400,1.688107421875,0.1539379209280014,-0.17898337543010712,0.44959646463394165
1761334195624808700,1.70680859375,0.04459312930703163,-0.3023780584335327,0.46059203147888184
1761334195643510300,1.72551025390625,-0.23396120965480804,-0.1747073233127594,0.08429934084415436
1761334195662211800,1.7442119140625,-0.2528980076313019,-0.1740964651107788,-0.7538071274757385
1761334195680913200,1.7629130859375,0.012217295356094837,-0.13622283935546875,-1.119104266166687
1761334195699614700,1.78161474609375,0.2987128794193268,-0.4043924808502197,-1.2797616720199585
1761334195718316300,1.80031640625,0.44409868121147156,-0.48502662777900696,-1.3994911909103394
1761334195737017600,1.819017578125,0.3194822669029236,-0.14172062277793884,-0.7232639193534851
1761334195755719200,1.83771923828125,0.18631376326084137,0.010384701192378998,-0.006719512399286032
1761334195774420700,1.856420654296875,0.03176496922969818,0.13500112295150757,0.3591884970664978
1761334195793122300,1.875122314453125,-0.21258094906806946,0.34086254239082336,0.5693259835243225
1761334195811823600,1.89382373046875,-0.49663305282592773,0.3396408259868622,0.5522217750549316
1761334195830525200,1.912525146484375,-0.4361574649810791,0.5094612240791321,0.4880809485912323
1761334195849226800,1.931226806640625,-0.31154105067253113,0.48013970255851746,0.4508182108402252
1761334195867928300,1.94992822265625,-0.2571740746498108,0.09285144507884979,0.3426951467990875
1761334195886629600,1.968629638671875,-0.21502439677715302,-0.2309068888425827,0.18264856934547424
1761334195905331200,1.987331298828125,-0.059864748269319534,-0.37140578031539917,0.09834922850131989
1761334195924032800,2.00603271484375,0.17226386070251465,-0.41355544328689575,0.053756099194288254
1761334195942734000,2.024734130859375,0.33169957995414734,-0.35246896743774414,0.006108647678047419
1761334195961435600,2.043435546875,0.3995055556297302,-0.15210533142089844,0.06108647957444191
1761334195980137200,2.06213720703125,0.32192572951316833,0.09957095980644226,0.24923282861709595
1761334195998838500,2.080838623046875,0.23884813487529755,0.379347026348114,0.5070177912712097
1761334196017540000,2.0995400390625,0.16798780858516693,0.38667741417884827,0.750141978263855
1761334196036241700,2.11824169921875,0.11056652665138245,0.07635809481143951,0.8625410795211792
1761334196054943200,2.136943115234375,0.10323614627122879,-0.23945899307727814,0.7611374855041504
1761334196073644500,2.15564453125,0.18203771114349365,-0.1337793916463852,0.5131264328956604
1761334196092346000,2.17434619140625,-0.05253437161445618,0.11362084746360779,0.02871064469218254
1761334196111047700,2.193047607421875,-0.3237583339214325,0.04886918142437935,-0.7965676784515381
1761334196129749000,2.2117490234375,-0.1178968995809555,-0.4874700903892517,-1.8423681259155273
1761334196148450600,2.230450439453125,0.3750709891319275,-0.5338957905769348,-2.5894558429718018
1761334196167152000,2.249152099609375,0.6872228980064392,0.2522871494293213,-1.8387030363082886
1761334196185853400,2.267853515625,0.6145299673080444,0.2877173125743866,-0.050090912729501724
1761334196204555000,2.286554931640625,0.2620609998703003,-0.8252783417701721,0.9065233469009399
1761334196223256600,2.305256591796875,0.14110976457595825,-1.4422518014907837,0.861319363117218
1761334196241958100,2.323958251953125,0.1081230640411377,-0.6841685771942139,0.21807873249053955
1761334196260659700,2.34265966796875,-0.09285144507884979,0.5729911923408508,-0.3549124300479889
1761334196279361000,2.361361083984375,-0.29626941680908203,0.9120211005210876,-0.268169641494751
1761334196298062600,2.3800625,-0.5039634704589844,0.20402882993221283,0.18692462146282196
1761334196316764200,2.39876416015625,-0.6249146461486816,-0.5723803043365479,0.49113526940345764
1761334196335465500,2.417465576171875,-0.56382817029953,-0.7739656567573547,0.4783071279525757
1761334196354167000,2.4361669921875,-0.45998117327690125,-0.5027416944503784,0.24312418699264526
1761334196372868600,2.45486865234375,-0.36835145950317383,-0.1545487940311432,-0.021991131827235222
1761334196391570000,2.47356982421875,-0.26022839546203613,-0.07941242307424545,-0.20647229254245758
1761334196410271500,2.492271484375,-0.1747073233127594,-0.2657261788845062,-0.25961753726005554
1761334196428973000,2.51097314453125,-0.053756099194288254,-0.2260199636220932,-0.1698204129934311
1761334196447674400,2.52967431640625,-0.02626718580722809,0.10934479534626007,0.006719512399286032
1761334196466376000,2.5483759765625,-0.1380554437637329,0.44348782300949097,0.09834922850131989
1761334196485077500,2.567077392578125,-0.11362084746360779,0.4838049113750458,0.08552107214927673
1761334196503779000,2.585779052734375,-0.006108647678047419,0.3084867000579834,0.050090912729501724
1761334196522480600,2.604480712890625,0.02932151034474373,0.15577052533626556,0.16554436087608337
1761334196541182000,2.623181884765625,-0.2822195291519165,0.37323838472366333,0.41416633129119873
1761334196559883500,2.641883544921875,-0.3597993552684784,0.41355544328689575,0.34147340059280396
1761334196578585000,2.660585205078125,0.003665188793092966,-0.5974257588386536,-0.411722868680954
1761334196597286400,2.679286376953125,0.1692095398902893,-1.6383392810821533,-1.5961896181106567
1761334196615988000,2.697988037109375,0.12522727251052856,-0.5326740741729736,-2.149022340774536
1761334196634689500,2.716689453125,0.006108647678047419,1.3121376037597656,-1.2290599346160889
1761334196653390800,2.735390869140625,-0.12461641430854797,1.1850776672363281,-0.11728604137897491
1761334196672092400,2.754092529296875,-0.28527384996414185,0.06780599057674408,0.675616443157196
1761334196690794000,2.7727939453125,-0.2364046722650528,-0.5112938284873962,0.8906408548355103
1761334196709495600,2.79149560546875,-0.1588248461484909,-0.18081597983837128,0.6609556674957275
1761334196728196900,2.81019677734375,-0.16615521907806396,0.27366742491722107,0.4685332775115967
1761334196746898400,2.8288984375,-0.1954767256975174,0.17531819641590118,0.3897317349910736
1761334196765600000,2.84760009765625,-0.1802051067352295,-0.22296564280986786,0.34574946761131287
1761334196784301600,2.866301513671875,-0.06230820715427399,-0.40744680166244507,0.37323838472366333
1761334196803003000,2.8850029296875,0.11728604137897491,-0.44348782300949097,0.3298669755458832
1761334196821704400,2.903704345703125,0.23335035145282745,-0.401949018239975,0.17531819641590118
1761334196840406000,2.922406005859375,0.26878049969673157,-0.32009315490722656,-0.09285144507884979
1761334196859107300,2.941107421875,0.32070401310920715,-0.12400554865598679,-0.23029601573944092
1761334196877809000,2.959808837890625,0.3756818473339081,0.1948658674955368,-0.05742128938436508
1761334196896510500,2.978510498046875,0.3640754222869873,0.379347026348114,0.28466299176216125
1761334196915211800,2.997211669921875,0.27977606654167175,0.34147340059280396,0.5290089249610901
1761334196933913300,3.015913330078125,0.2877173125743866,0.1899789422750473,0.6976075768470764
1761334196952615000,3.034614990234375,0.3836230933666229,0.1288924664258957,0.915075421333313
1761334196971316500,3.05331640625,0.37323838472366333,0.11545344442129135,0.9199623465538025
1761334196990018000,3.07201806640625,0.26511532068252563,0.0769689604640007,0.38179048895835876
1761334197008719400,3.09071923828125,0.44348782300949097,-0.06047561392188072,-0.8203914165496826
1761334197027421000,3.1094208984375,0.7141009569168091,-0.9523382186889648,-2.291353702545166
1761334197046122200,3.128122314453125,0.6823359727859497,-1.303585410118103,-2.7989823818206787
1761334197064823800,3.14682373046875,0.5528326034545898,-0.6646208763122559,-1.9327762126922607
1761334197083525400,3.165525390625,0.43493571877479553,-0.15210533142089844,-0.30970844626426697
1761334197102227000,3.18422705078125,0.0513126403093338,-0.07635809481143951,0.5619956254959106
1761334197120928300,3.20292822265625,-0.18142683804035187,0.21197007596492767,0.711046576499939
1761334197139629800,3.2216298828125,-0.18142683804035187,0.3133736252784729,0.7061597108840942
1761334197158331400,3.240331298828125,-0.20158538222312927,0.30604326725006104,0.4770853817462921
1761334197177032700,3.25903271484375,-0.3536907136440277,0.4007273018360138,0.1637117564678192
1761334197195734300,3.277734375,-0.4202749729156494,0.627968966960907,0.028099779039621353
1761334197214435800,3.296435791015625,-0.38240134716033936,0.5528326034545898,0.03481929376721382
1761334197233137400,3.315137451171875,-0.3042106628417969,0.21258094906806946,0.19303326308727264
1761334197251839000,3.3338388671875,-0.19181154668331146,-0.10567960888147354,0.4221075773239136
1761334197270540300,3.352540283203125,-0.1282816082239151,-0.2663370370864868,0.5094612240791321
1761334197289241900,3.371241943359375,-0.03909534588456154,-0.19242240488529205,0.3964512348175049
1761334197307943400,3.389943359375,-0.007330377586185932,-0.028099779039621353,0.19364413619041443
1761334197326644700,3.408644775390625,-0.000610864779446274,0.3029889166355133,0.04825831577181816
1761334197345346300,3.42734619140625,-0.06230820715427399,0.5723803043365479,-0.03787361457943916
1761334197364048000,3.4460478515625,-0.16004657745361328,0.8991929292678833,0.031154103577136993
1761334197382749200,3.464749267578125,-0.14172062277793884,0.9541707634925842,0.3231474757194519
1761334197401450800,3.48345068359375,-0.10934479534626007,0.7464767694473267,0.7012727856636047
1761334197420152300,3.50215234375,0.0616973415017128,0.6743947267532349,0.5076286196708679
1761334197438853600,3.520853515625,0.36163195967674255,0.18387030065059662,-0.554665207862854
1761334197457555200,3.53955517578125,0.24740023910999298,-0.870482325553894,-1.590080976486206
1761334197476256800,3.5582568359375,-0.1539379209280014,-0.5381718873977661,-1.1893537044525146
1761334197494958300,3.576958251953125,-0.14477495849132538,0.9077450633049011,-0.16004657745361328
1761334197513660000,3.595659912109375,0.04581485688686371,1.2547162771224976,0.6267472505569458
1761334197532361200,3.614361328125,0.10629047453403473,0.25045454502105713,1.2143992185592651
1761334197551062800,3.633062744140625,0.0818558782339096,-0.9291253089904785,1.3237439393997192
1761334197569764400,3.651764404296875,-0.04276053607463837,-0.6908880472183228,0.6114756464958191
1761334197588465700,3.670465576171875,-0.11423171311616898,0.44470956921577454,-0.15577052533626556
1761334197607167200,3.689167236328125,-0.143553227186203,0.8869756460189819,-0.21441353857517242
1761334197625868800,3.707868896484375,-0.18631376326084137,0.38789913058280945,0.19181154668331146
1761334197644570000,3.726570068359375,-0.12156209349632263,-0.389120876789093,0.5583304166793823
1761334197663271700,3.745271728515625,0.053756099194288254,-0.7831286191940308,0.6786707639694214
1761334197681973200,3.76397314453125,0.19181154668331146,-0.7360920310020447,0.48441576957702637
1761334197700674800,3.7826748046875,0.13561198115348816,-0.379347026348114,0.11545344442129135
1761334197719376400,3.80137646484375,-0.04276053607463837,0.12400554865598679,-0.06841685622930527
1761334197738077700,3.82007763671875,-0.17715078592300415,0.47097674012184143,0.06047561392188072
1761334197756779300,3.838779296875,-0.15271618962287903,0.5766563415527344,0.37323838472366333
1761334197775480800,3.857480712890625,-0.023823726922273636,0.31154105067253113,0.6462949514389038
1761334197794182100,3.87618212890625,0.12034036219120026,-0.2052505612373352,0.5943714380264282
1761334197812883700,3.8948837890625,0.05070177838206291,-0.1893680840730667,0.3176496922969818
1761334197831585300,3.913585205078125,-0.12583814561367035,-0.06291907280683517,0.05497783049941063
1761334197850286600,3.93228662109375,-0.15149445831775665,-0.2419024556875229,-0.36835145950317383
1761334197868988200,3.95098828125,-0.205861434340477,-0.8863648176193237,-1.6035200357437134
1761334197887689700,3.969689697265625,-0.40378162264823914,-0.3860665261745453,-2.20461106300354
1761334197906391000,3.98839111328125,-0.2516762912273407,1.0286962985992432,-1.3390156030654907
1761334197925092600,4.007092529296875,-0.06352993845939636,1.212566614151001,-0.004276053514331579
1761334197943794200,4.025794189453125,-0.18325942754745483,0.026878049597144127,1.0971131324768066
1761334197962495700,4.044495849609375,-0.25961753726005554,-1.0830632448196411,1.712864875793457
1761334197981197300,4.063197265625,-0.2528980076313019,-0.8344413042068481,1.3665045499801636
1761334197999898600,4.081898681640625,-0.34636032581329346,0.17776164412498474,0.27977606654167175
1761334198018600200,4.10060009765625,-0.4147771894931793,0.7721330523490906,-0.3995055556297302
1761334198037301800,4.1193017578125,-0.4862483739852905,0.667064368724823,-0.3298669755458832
1761334198056003000,4.138003173828125,-0.5229002237319946,0.21319180727005005,-0.04153880476951599
1761334198074704600,4.15670458984375,-0.4471530318260193,-0.268169641494751,0.07635809481143951
1761334198093406200,4.17540625,-0.29016077518463135,-0.5790998339653015,-0.05070177838206291
1761334198112107500,4.194107421875,-0.17226386070251465,-0.5491674542427063,-0.328645259141922
1761334198140160000,4.222159912109375,-0.18081597983837128,-0.17531819641590118,-0.38240134716033936
1761334198158861300,4.240861328125,-0.17043127119541168,0.3347539007663727,0.0030543238390237093
1761334198177563000,4.25956298828125,-0.15760311484336853,0.5082395076751709,0.5161807537078857
1761334198196264400,4.278264404296875,-0.09957095980644226,0.1637117564678192,0.8955277800559998
1761334198214965800,4.2969658203125,0.047036588191986084,-0.2211330533027649,1.025641918182373
1761334198233667300,4.315667236328125,0.15210533142089844,-0.185092031955719,0.8301652073860168
1761334198252369000,4.334368896484375,0.031154103577136993,-0.09346231073141098,0.16737695038318634
1761334198271070200,4.3530703125,-0.15515965223312378,-0.23823726177215576,-0.7336485981941223
1761334198289771800,4.371771728515625,-0.3433060050010681,-0.09407317638397217,-1.3836086988449097
1761334198308473300,4.390473388671875,-0.4214966893196106,-0.1380554437637329,-2.098320484161377
1761334198327175000,4.4091748046875,-0.33108872175216675,0.4159989058971405,-1.7763947248458862
1761334198345876500,4.42787646484375,-0.37323838472366333,0.7342594861984253,-0.8014546036720276
1761334198364577800,4.446577880859375,-0.5681042671203613,0.024434590712189674,-0.02626718580722809
1761334198383279400,4.465279296875,-0.6322450637817383,-0.5497782826423645,0.5919279456138611
1761334198401981000,4.48398095703125,-0.6139190793037415,-0.4862483739852905,0.7629700899124146
1761334198420682200,4.50268212890625,-0.656679630279541,0.14233149588108063,0.471587598323822
1761334198439383800,4.5213837890625,-0.7568614482879639,0.5009090900421143,0.2993237376213074
1761334198458085400,4.54008544921875,-0.7922916412353516,0.1484401375055313,0.30970844626426697
1761334198476786700,4.55878662109375,-0.6078104376792908,-0.5033525824546814,0.25473061203956604
1761334198495488300,4.57748828125,-0.2968802750110626,-1.0390809774398804,0.13072505593299866
1761334198514189800,4.59618994140625,-0.07086031138896942,-1.2107340097427368,0.09162971377372742
1761334198532891400,4.614891357421875,-0.12400554865598679,-0.9303470849990845,0.1698204129934311
1761334198551592700,4.6335927734375,-0.22174391150474548,-0.27977606654167175,0.3860665261745453
1761334198570294300,4.652294189453125,-0.20647229254245758,0.3946186602115631,0.6927206516265869
1761334198588995800,4.670995849609375,-0.20463970303535461,0.4838049113750458,0.9822705388069153
1761334198607697400,4.689697509765625,-0.23212862014770508,-0.06841685622930527,1.1062761545181274
1761334198626398700,4.708398681640625,-0.1954767256975174,-0.5790998339653015,1.0054833889007568
1761334198645100300,4.727100341796875,-0.2626718580722809,-0.41905322670936584,0.4825831651687622
1761334198663801900,4.7458017578125,-0.34208428859710693,-0.023823726922273636,-0.31031930446624756
1761334198682503200,4.764503173828125,-0.3280344009399414,-0.29504770040512085,-0.8943060636520386
1761334198701204700,4.783204833984375,-0.23518294095993042,-0.6304124593734741,-1.3011419773101807
1761334198719906300,4.80190625,0.17837251722812653,-0.7544180154800415,-2.1025965213775635
1761334198738607900,4.82060791015625,0.4776962697505951,-0.4630354940891266,-1.6615521907806396
1761334198757309200,4.83930908203125,0.4166097939014435,-0.43004879355430603,-0.08674279600381851
1761334198776010800,4.8580107421875,0.2809978127479553,-0.3707949221134186,1.0146464109420776
1761334198794712300,4.87671240234375,0.2559523284435272,0.043982263654470444,1.1881320476531982
1761334198813413600,4.89541357421875,0.10873392969369888,0.36835145950317383,0.7183769941329956
1761334198832115200,4.914115234375,-0.17531819641590118,0.5681042671203613,-0.04764745384454727
1761334198850816800,4.932816650390625,-0.4098902642726898,0.7819069027900696,-0.5302306413650513
1761334198869518300,4.951518310546875,-0.48013970255851746,0.5558869242668152,-0.5082395076751709
1761334198888220000,4.970219970703125,-0.379347026348114,-0.04520399495959282,-0.12095122784376144
1761334198906921200,4.988921142578125,-0.21807873249053955,-0.6359102129936218,0.19181154668331146
1761334198925622800,5.007622802734375,-0.06291907280683517,-0.998763918876648,0.26389357447624207
1761334198944324400,5.026324462890625,-0.21197007596492767,-0.8246674537658691,0.22663083672523499
1761334198963025700,5.045025634765625,-0.2626718580722809,-0.2052505612373352,0.2009745091199875
1761334198981727200,5.063727294921875,-0.20708316564559937,0.2461785078048706,0.3481929302215576
1761334199000428800,5.0824287109375,-0.14049890637397766,0.16554436087608337,0.6456840634346008
1761334199019130000,5.101130126953125,-0.12950333952903748,-0.2669478952884674,0.8466585874557495
1761334199037831700,5.119831787109375,-0.10629047453403473,-0.34208428859710693,0.6524035930633545
1761334199056533200,5.138533203125,-0.22785256803035736,0.16737695038318634,0.1692095398902893
1761334199075234800,5.15723486328125,-0.3646862804889679,0.29077163338661194,-0.26878049969673157
1761334199093936400,5.175936279296875,-0.36285367608070374,-0.7232639193534851,-0.8600975871086121
1761334199112637700,5.1946376953125,-0.16187916696071625,-1.2315033674240112,-1.7977750301361084
1761334199131339300,5.21333935546875,0.2816086709499359,-0.5033525824546814,-2.5137085914611816
1761334199150040800,5.232040771484375,0.3426951467990875,0.9999856352806091,-1.858250617980957
1761334199168742100,5.2507421875,0.2052505612373352,1.1319323778152466,-0.3225366175174713
1761334199187443700,5.269443603515625,-0.19242240488529205,0.06291907280683517,1.0806198120117188
1761334199206145300,5.288145263671875,-0.48013970255851746,-0.7794634699821472,1.7275255918502808
1761334199224846600,5.3068466796875,-0.4514290690422058,-0.3090975880622864,1.3952151536941528
1761334199243548200,5.325548095703125,-0.3946186602115631,0.17653992772102356,0.6902772188186646
1761334199262249700,5.344249755859375,-0.337808221578598,0.011606430634856224,0.27000224590301514
1761334199280951300,5.362951416015625,-0.29077163338661194,-0.2938259541988373,0.036651886999607086
1761334199299652600,5.381652587890625,-0.09040798991918564,-0.5992583632469177,-0.03176496922969818
1761334199318354200,5.400354248046875,0.1539379209280014,-0.9260709881782532,0.01588248461484909
1761334199337055700,5.4190556640625,0.28466299176216125,-0.7519745230674744,-0.036651886999607086
1761334199355757300,5.43775732421875,0.21197007596492767,-0.17776164412498474,-0.029932374134659767
1761334199374458600,5.456458740234375,0.09529490768909454,0.25411975383758545,0.17104214429855347
1761334199393160200,5.47516015625,0.08429934084415436,0.3494146466255188,0.5039634704589844
1761334199411861800,5.49386181640625,0.09162971377372742,0.09101885557174683,0.8741474747657776
1761334199430563300,5.512563232421875,0.12156209349632263,-0.28527384996414185,1.0042617321014404
1761334199449264600,5.5312646484375,0.17653992772102356,-0.3035998046398163,0.7892373204231262
1761334199467966200,5.54996630859375,0.011606430634856224,-0.12217295914888382,0.13927717506885529
1761334199486667800,5.568667724609375,-0.10934479534626007,-0.11606431007385254,-0.6957749724388123
1761334199505369000,5.587369140625,0.18142683804035187,-0.1844811588525772,-1.3335177898406982
1761334199524070700,5.606070556640625,0.6414080262184143,-0.6169734001159668,-2.028071165084839
1761334199542772200,5.624772216796875,0.8093958497047424,-0.4410443603992462,-2.263864755630493
1761334199561473500,5.6434736328125,0.6224712133407593,0.22785256803035736,-0.758694052696228
1761334199580175000,5.662175048828125,0.4068359434604645,0.5100721120834351,0.6688969135284424
1761334199598876700,5.680876708984375,0.1539379209280014,0.5033525824546814,1.2986985445022583
1761334199617578200,5.699578125,-0.05742128938436508,-0.18264856934547424,1.286481261253357
1761334199636279800,5.71827978515625,-0.34086254239082336,-0.2254091054201126,0.8717040419578552
1761334199654981000,5.736981201171875,-0.4526508152484894,0.430659681558609,0.22357651591300964
1761334199673682700,5.7556826171875,-0.3738492429256439,0.7250964641571045,-0.06597339361906052
1761334199692384300,5.77438427734375,-0.2919933497905731,0.5442805290222168,-0.06475166976451874
1761334199711085600,5.79308544921875,-0.21135921776294708,-0.0360410213470459,0.0818558782339096
1761334199729787100,5.811787109375,-0.08979712426662445,-0.44959646463394165,0.03481929376721382
1761334199748488700,5.83048876953125,0.012217295356094837,-0.6444623470306396,-0.20647229254245758
1761334199767190000,5.84918994140625,0.06047561392188072,-0.3384190797805786,-0.3970620930194855
1761334199785891600,5.8678916015625,0.12583814561367035,0.07635809481143951,-0.29565855860710144
1761334199804593200,5.88659326171875,0.17715078592300415,0.2669478952884674,0.12705987691879272
1761334199823294700,5.905294677734375,0.19242240488529205,0.28588470816612244,0.5668824911117554
1761334199841996000,5.92399609375,0.1740964651107788,0.17043127119541168,0.6438514590263367
1761334199860697600,5.942697509765625,0.19425499439239502,0.1337793916463852,0.42394015192985535
1761334199879399200,5.961399169921875,0.3243691921234131,-0.14110976457595825,0.037262752652168274
1761334199898100700,5.980100830078125,0.2987128794193268,-0.45448338985443115,-0.20647229254245758
1761334199916802000,5.998802001953125,0.22663083672523499,-0.49418962001800537,-0.22907429933547974
1761334199935503600,6.017503662109375,0.09957095980644226,-0.2419024556875229,-0.3842339515686035
1761334199954205200,6.036205078125,0.12278381735086441,-0.10567960888147354,-1.4104868173599243
1761334199972906800,6.05490673828125,0.2577849328517914,0.8118392825126648,-1.9443825483322144
1761334199991608000,6.073608154296875,0.07269290834665298,1.7568471431732178,-0.9841031432151794
1761334200010309600,6.0923095703125,-0.21746785938739777,1.3090832233428955,0.18753549456596375
1761334200029011200,6.11101123046875,-0.28466299176216125,0.45875945687294006,1.1789690256118774
1761334200047712500,6.12971240234375,-0.3182605504989624,-0.27977606654167175,1.7055344581604004
1761334200066414000,6.1484140625,-0.4428769648075104,-0.18203771114349365,1.4049890041351318
1761334200085115600,6.16711572265625,-0.48502662777900696,0.31520622968673706,0.676227331161499
1761334200103817200,6.185817138671875,-0.48075059056282043,0.41355544328689575,-0.009773836471140385
1761334200122518500,6.2045185546875,-0.4147771894931793,0.13988803327083588,-0.2626718580722809
1761334200141220000,6.22322021484375,-0.2626718580722809,-0.2309068888425827,-0.18753549456596375
1761334200159921700,6.241921630859375,-0.07635809481143951,-0.5338957905769348,-0.0824667438864708
1761334200178623200,6.260623291015625,0.1178968995809555,-0.6334667801856995,-0.10629047453403473
1761334200197324500,6.279324462890625,0.16126830875873566,-0.5797106623649597,-0.12461641430854797
1761334200216026000,6.298026123046875,0.09651663154363632,-0.4056142270565033,-0.007941242307424545
1761334200234727700,6.316727783203125,-0.001832594396546483,-0.036651886999607086,0.18325942754745483
1761334200253429000,6.335428955078125,-0.0513126403093338,0.3237583339214325,0.31459537148475647
1761334200272130600,6.354130615234375,-0.028099779039621353,0.34147340059280396,0.3133736252784729
1761334200290832100,6.37283203125,0.07635809481143951,-0.08979712426662445,0.12583814561367035
1761334200309533400,6.391533447265625,0.18875721096992493,-0.38850998878479004,-0.235793799161911
1761334200328235000,6.410235107421875,0.43921178579330444,-0.925460159778595,-1.0372483730316162
1761334200346936600,6.4289365234375,0.6676751971244812,-1.6817107200622559,-2.2400412559509277
1761334200365638100,6.44763818359375,0.3298669755458832,-0.7660244107246399,-3.1300711631774902
1761334200384339700,6.466339599609375,0.20647229254245758,1.8784091472625732,-2.7904303073883057
1761334200403041000,6.485041015625,0.318871408700943,2.710407018661499,-0.7220421433448792
1761334200421742600,6.50374267578125,0.15821397304534912,0.740368127822876,1.323133111000061
1761334200440444200,6.522444091796875,0.10506874322891235,-0.8796452879905701,2.592510223388672
1761334200459145700,6.541145751953125,-0.06414080411195755,-0.6267472505569458,2.3066253662109375
1761334200477847000,6.559846923828125,-0.28038692474365234,0.3402516841888428,0.9816597104072571
1761334200496548600,6.578548583984375,-0.39400777220726013,0.5925388336181641,0.14172062277793884
1761334200515250200,6.597250244140625,-0.42088583111763,-0.08429934084415436,0.1484401375055313
1761334200533951500,6.615951416015625,-0.3390299379825592,-0.7348703145980835,0.42332929372787476
1761334200552653000,6.634653076171875,-0.19792018830776215,-1.0384701490402222,0.4990765154361725
1761334200571354600,6.653354736328125,-0.10690133273601532,-0.943786084651947,0.11117739230394363
1761334200590056000,6.672055908203125,-0.12461641430854797,-0.5119046568870544,-0.4563159942626953
1761334200608757500,6.690757568359375,-0.11423171311616898,-0.09834922850131989,-0.6371319890022278
1761334200627459000,6.709458984375,-0.026878049597144127,0.11545344442129135,-0.2767217457294464
1761334200646160600,6.72816064453125,0.06475166976451874,0.17287473380565643,0.24801109731197357
1761334200664862200,6.7468623046875,0.05497783049941063,0.03481929376721382,0.5955931544303894
1761334200683563500,6.7655634765625,0.08124501258134842,-0.030543239787220955,0.7031053900718689
1761334200702265000,6.78426513671875,0.2254091054201126,-0.1337793916463852,0.5998691916465759
1761334200720966700,6.802966552734375,0.31581708788871765,-0.27916520833969116,0.5015199780464172
1761334200739668000,6.82166796875,0.08491020649671555,-0.2724456787109375,0.4361574649810791
1761334200758369500,6.84036962890625,-0.018325943499803543,-0.665842592716217,-0.17531819641590118
1761334200777071000,6.859071044921875,0.056810423731803894,-0.6585122346878052,-1.2712095975875854
1761334200795772400,6.8777724609375,0.2467893660068512,0.12278381735086441,-2.877784013748169
1761334200814474000,6.896473876953125,0.2834412455558777,1.6548327207565308,-2.7110178470611572
1761334200833175600,6.915175537109375,0.3090975880622864,1.5234967470169067,-0.2724456787109375
1761334200851877000,6.933877197265625,0.22968515753746033,0.18325942754745483,1.766010046005249
1761334200870578400,6.952578369140625,0.017715077847242355,-0.80389803647995,2.5100433826446533
1761334200889280000,6.971280029296875,-0.2254091054201126,-0.33169957995414734,1.5381574630737305
1761334200907981600,6.989981689453125,-0.19914191961288452,0.6267472505569458,0.08857539296150208
1761334200926683100,7.00868310546875,-0.2657261788845062,0.4679224193096161,-0.3084867000579834
1761334200945384400,7.027384521484375,-0.360410213470459,-0.370184063911438,-0.015271619893610477
1761334200964086000,7.0460859375,-0.3585776388645172,-0.9352339506149292,0.18142683804035187
1761334200982787600,7.06478759765625,-0.3133736252784729,-1.2070688009262085,0.0030543238390237093
1761334201001489200,7.0834892578125,-0.2315177470445633,-1.0323615074157715,-0.4324922561645508
1761334201020190500,7.1021904296875,-0.15699224174022675,-0.564439058303833,-0.6365211009979248
1761334201038892000,7.12089208984375,-0.09407317638397217,-0.09590577334165573,-0.3066541254520416
1761334201057593600,7.139593505859375,-0.04886918142437935,0.09162971377372742,0.29626941680908203
1761334201076295000,7.158294921875,-0.023823726922273636,0.10323614627122879,0.7599157691001892
1761334201094996500,7.17699658203125,-0.021991131827235222,-0.0030543238390237093,0.9187406301498413
1761334201113698000,7.195697998046875,-0.056810423731803894,-0.030543239787220955,0.8442151546478271
1761334201132399400,7.2143994140625,-0.04153880476951599,0.15638138353824615,0.7116574645042419
1761334201151101000,7.233100830078125,0.002443459117785096,-0.03543015569448471,0.39339691400527954
1761334201169802500,7.251802490234375,-0.06230820715427399,-0.6340776681900024,-0.10323614627122879
1761334201188504000,7.270504150390625,-0.2364046722650528,-1.102000117301941,-0.7379246354103088
1761334201207205600,7.28920556640625,-0.15210533142089844,-0.28588470816612244,-1.6890411376953125
1761334201225907000,7.307906982421875,0.2993237376213074,1.3439024686813354,-3.2644612789154053
1761334201244608500,7.3266083984375,0.5558869242668152,2.283412456512451,-2.604116439819336
1761334201263310000,7.34531005859375,0.40805765986442566,1.6475023031234741,0.19303326308727264
1761334201282011400,7.364011474609375,0.10384701192378998,0.4043924808502197,1.7360776662826538
1761334201300713000,7.382712890625,0.05864302068948746,-0.10323614627122879,2.017075538635254
1761334201319414500,7.40141455078125,-0.05497783049941063,0.0616973415017128,1.508836030960083
1761334201338115800,7.42011572265625,-0.17715078592300415,0.23335035145282745,0.7904590368270874
1761334201356817400,7.4388173828125,-0.38789913058280945,0.021380268037319183,0.47952884435653687
1761334201375519000,7.45751904296875,-0.5271763205528259,-0.40866854786872864,0.36774060130119324
1761334201394220500,7.476220458984375,-0.4324922561645508,-0.7153226733207703,0.19242240488529205
1761334201412922000,7.494922119140625,-0.205861434340477,-0.7024945020675659,-0.18203771114349365
1761334201431623400,7.51362353515625,-0.05436696484684944,-0.4514290690422058,-0.4886918365955353
1761334201450325000,7.532324951171875,0.0513126403093338,-0.050090912729501724,-0.2974911332130432
1761334201469026600,7.551026611328125,0.0818558782339096,0.018325943499803543,0.32070401310920715
1761334201487727900,7.569727783203125,0.11545344442129135,-0.13194678723812103,0.8497129082679749
1761334201506429400,7.588429443359375,0.09712749719619751,-0.21502439677715302,1.0103703737258911
1761334201525131000,7.607131103515625,0.02626718580722809,-0.15515965223312378,0.9413426518440247
1761334201543832300,7.625832275390625,-0.043982263654470444,-0.06536252796649933,0.7757982611656189
1761334201562534000,7.644533935546875,-0.12583814561367035,-0.17287473380565643,0.5436696410179138
1761334201581235500,7.6632353515625,-0.19669845700263977,-0.4416552484035492,0.06230820715427399
1761334201599937000,7.68193701171875,-0.47525280714035034,-0.648127555847168,-0.4734202027320862
1761334201618638300,7.700638427734375,-0.8051197528839111,-0.32009315490722656,-0.9914335608482361
1761334201637340000,7.71933984375,-0.8545998334884644,0.7049379348754883,-1.6334524154663086
1761334201656041500,7.73804150390625,-0.39217519760131836,0.7611374855041504,-2.363435745239258
1761334201674743000,7.756742919921875,-0.09590577334165573,0.027488915249705315,-2.291353702545166
1761334201693444400,7.7754443359375,-0.09468404203653336,-0.2932150959968567,-0.3231474757194519
1761334201712146000,7.79414599609375,-0.28954991698265076,-0.5345066785812378,1.1759146451950073
1761334201730847500,7.812847412109375,-0.49480047821998596,0.04581485688686371,1.4886775016784668
1761334201749549000,7.831549072265625,-0.5406153202056885,0.6548470258712769,1.0146464109420776
1761334201768250400,7.85025048828125,-0.6255255341529846,0.7635809779167175,0.4056142270565033
1761334201786952000,7.868951904296875,-0.6371319890022278,0.268169641494751,0.1747073233127594
1761334201805653500,7.887653564453125,-0.5913171172142029,-0.35124725103378296,0.1594357043504715
1761334201824354800,7.906354736328125,-0.5375609993934631,-0.7330377101898193,0.10751219838857651
1761334201843056400,7.925056396484375,-0.3799578845500946,-0.9828814268112183,0.05436696484684944
1761334201861758000,7.943758056640625,-0.14294235408306122,-1.0793980360031128,-0.009773836471140385
1761334201880459300,7.962459228515625,-0.05070177838206291,-0.9511164426803589,-0.03848448023200035
1761334201899160800,7.981160888671875,-0.04764745384454727,-0.5986474752426147,0.024434590712189674
1761334201917862400,7.9998623046875,-0.008552107028663158,-0.16615521907806396,0.17043127119541168
1761334201936564000,8.01856396484375,0.01893680728971958,0.0824667438864708,0.4147771894931793
1761334201955265500,8.037265625,-0.0720820426940918,0.013439024798572063,0.66645348072052
1761334201973966800,8.055966796875,-0.16859868168830872,-0.24495677649974823,0.7599157691001892
1761334201992668400,8.07466845703125,-0.19669845700263977,-0.43310311436653137,0.7703005075454712
1761334202011370000,8.093369873046875,-0.18325942754745483,-0.7880155444145203,0.66645348072052
1761334202030071300,8.1120712890625,-0.2254091054201126,-0.9505056142807007,0.4379900395870209
1761334202048772900,8.13077294921875,-0.3384190797805786,-0.9859357476234436,0.08613193035125732
1761334202067474400,8.149474365234376,-0.3488037884235382,-0.8338304162025452,-0.4098902642726898
1761334202086175700,8.16817578125,-0.2834412455558777,0.03543015569448471,-1.5577051639556885
1761334202104877300,8.186877197265625,-0.08674279600381851,0.7037162184715271,-2.760498046875
1761334202123579000,8.205578857421875,0.01893680728971958,0.9083559513092041,-1.564424753189087
1761334202142280400,8.224280517578125,0.04153880476951599,0.3347539007663727,0.24801109731197357
1761334202160981800,8.242981689453124,0.043371398001909256,0.22846342623233795,1.2614357471466064
1761334202179683300,8.261683349609376,-0.09101885557174683,0.1588248461484909,1.4996730089187622
1761334202198385000,8.280385009765626,-0.2730565667152405,0.3139844834804535,1.0329723358154297
1761334202217086500,8.29908642578125,-0.29565855860710144,0.5699368119239807,0.41355544328689575
1761334202235787800,8.317787841796875,-0.2577849328517914,0.49418962001800537,0.13744457066059113
1761334202254489300,8.3364892578125,-0.23335035145282745,0.02260199747979641,0.18142683804035187
1761334202273191000,8.35519091796875,-0.14294235408306122,-0.5259546041488647,0.24984370172023773
1761334202291892200,8.373892333984376,0.04825831577181816,-0.943786084651947,0.24434591829776764
1761334202310593800,8.39259375,0.19120067358016968,-0.9547816514968872,0.004886918235570192
1761334202329295400,8.41129541015625,0.20219624042510986,-0.7476984858512878,-0.14294235408306122
1761334202347996700,8.42999658203125,0.16065743565559387,-0.29565855860710144,0.04214967042207718
1761334202366698200,8.4486982421875,0.07086031138896942,0.08857539296150208,0.3995055556297302
1761334202385399800,8.46739990234375,-0.06719512492418289,0.06352993845939636,0.5864301919937134
1761334202404101400,8.486101318359376,-0.12705987691879272,-0.09468404203653336,0.5693259835243225
1761334202422803000,8.504802978515626,-0.14477495849132538,-0.32620179653167725,0.43493571877479553
1761334202441504300,8.523504150390625,-0.25350889563560486,-0.5369501113891602,0.33169957995414734
1761334202460205800,8.542205810546875,-0.26022839546203613,-0.9669989347457886,-0.47464191913604736
1761334202478907400,8.560907470703125,-0.2370155304670334,-1.2046253681182861,-1.796553373336792
1761334202497608700,8.579608642578124,-0.10873392969369888,-0.6133082509040833,-2.7739369869232178
1761334202516310300,8.598310302734374,0.07452550530433655,0.4172206521034241,-2.8875577449798584
1761334202535011800,8.61701171875,0.27427828311920166,0.7220421433448792,-0.7464767694473267
1761334202553713400,8.63571337890625,0.4056142270565033,0.49602219462394714,1.0097594261169434
1761334202572414700,8.654414794921875,0.28527384996414185,0.3897317349910736,1.7715078592300415
1761334202591116300,8.6731162109375,0.037262752652168274,0.7733548283576965,1.7708970308303833
1761334202609817900,8.69181787109375,-0.1649334877729416,0.7177661061286926,1.201570987701416
1761334202628519200,8.710519287109374,-0.1740964651107788,0.37690356373786926,0.7073814272880554
1761334202647220700,8.729220703125,-0.21197007596492767,-0.06230820715427399,0.47097674012184143
1761334202665922300,8.74792236328125,-0.2260199636220932,-0.17837251722812653,0.14110976457595825
1761334202684624000,8.766623779296875,-0.14782927930355072,-0.2364046722650528,-0.15210533142089844
1761334202703325400,8.785325439453125,0.07574722915887833,-0.6243038177490234,-0.2889390289783478
1761334202722026800,8.80402685546875,0.2712239623069763,-0.5308414697647095,-0.37751442193984985
1761334202740728300,8.822728271484374,0.23518294095993042,-0.13500112295150757,-0.2675587832927704
1761334202759430000,8.841429931640626,0.2003636509180069,0.3652971386909485,0.08429934084415436
1761334202778131200,8.860131103515625,0.2461785078048706,0.7043271064758301,0.5241219997406006
1761334202796832800,8.878832763671875,0.18203771114349365,0.49663305282592773,0.9297361969947815
1761334202815534300,8.897534423828125,0.08124501258134842,0.11056652665138245,0.5797106623649597
1761334202834235600,8.916235595703125,0.1539379209280014,-0.29138249158859253,-0.4673115611076355
1761334202852937200,8.934937255859374,0.17348559200763702,-0.7519745230674744,-1.4422518014907837
1761334202871638800,8.953638671875,0.18325942754745483,-0.6896663308143616,-2.3035709857940674
1761334202890340400,8.97234033203125,0.1795942485332489,0.4477638900279999,-1.8478659391403198
1761334202909041700,8.991041748046875,0.21868959069252014,1.0751219987869263,0.07880155742168427
1761334202927743200,9.0097431640625,0.32681265473365784,0.6695078015327454,1.9303326606750488
1761334202946444800,9.02844482421875,0.17531819641590118,0.0977383628487587,2.747058868408203
1761334202965146400,9.047146484375,-0.003665188793092966,0.17837251722812653,2.076329469680786
1761334202983848000,9.065847900390626,-0.01893680728971958,0.6652317643165588,0.8625410795211792
1761334203002549200,9.08454931640625,-0.0409279391169548,0.2724456787109375,0.573602020740509
1761334203021250800,9.103250732421875,0.0054977829568088055,-0.12583814561367035,0.7147117853164673
1761334203039952400,9.121952392578125,-0.04459312930703163,-0.18387030065059662,0.5229002237319946
1761334203058653700,9.14065380859375,-0.1282816082239151,-0.06352993845939636,-0.012217295356094837
1761334203077355300,9.159355224609374,-0.09712749719619751,0.10018182545900345,-0.5137372612953186
1761334203096056800,9.178056884765626,-0.02260199747979641,0.04886918142437935,-0.6688969135284424
1761334203114758100,9.196758056640626,0.02626718580722809,0.2162461280822754,-0.4416552484035492
1761334203133459700,9.215459716796875,0.0409279391169548,0.1747073233127594,-0.049480047076940536
1761334203152161300,9.234161376953125,0.22785256803035736,-0.43371400237083435,-0.24801109731197357
1761334203170862600,9.252862548828125,0.31459537148475647,-0.5351175665855408,-1.0855066776275635
1761334203189564200,9.271564208984374,0.2730565667152405,0.056810423731803894,-1.5460987091064453
1761334203208265700,9.290265625,0.2864955961704254,0.7880155444145203,-0.8173370957374573
1761334203226967300,9.30896728515625,0.44348782300949097,0.5137372612953186,0.5198459029197693
1761334203245668900,9.3276689453125,0.5943714380264282,-0.24251331388950348,1.4025455713272095
1761334203264370200,9.3463701171875,0.5699368119239807,-0.6023126840591431,1.3322961330413818
1761334203283071700,9.36507177734375,0.4214966893196106,-0.4630354940891266,0.7202095985412598
1761334203301773300,9.383773193359374,0.3078758418560028,-0.14721840620040894,0.06719512492418289
1761334203320475000,9.402474853515624,0.2632827162742615,0.1288924664258957,-0.37751442193984985
1761334203339176200,9.42117626953125,0.21258094906806946,0.25961753726005554,-0.4978547990322113
1761334203357877800,9.439877685546875,0.19792018830776215,0.23029601573944092,-0.43921178579330444
1761334203376579300,9.458579345703125,0.20158538222312927,0.015271619893610477,-0.268169641494751
1761334203395280600,9.47728076171875,0.2614501118659973,-0.4068359434604645,0.1539379209280014
1761334203413982200,9.495982177734374,0.3347539007663727,0.023212861269712448,-0.003665188793092966
1761334203432683800,9.514683837890624,0.33231043815612793,0.33108872175216675,-0.2309068888425827
1761334203451385300,9.53338525390625,0.25961753726005554,0.2993237376213074,-0.0922405794262886
