time,seconds_elapsed,z,y,x
1761330830698755300,0.06175537109375,0,0,0
1761330830717456400,0.080456298828125,-0.07887077331542969,-0.32496213912963867,0.185333251953125
1761330830736157200,0.0991572265625,0.18436050415039062,-0.47294163703918457,-0.10038876533508301
1761330830754858200,0.117858154296875,0.30706787109375,-0.5741803646087646,-0.6769876480102539
1761330830773559000,0.13655908203125,0.45977306365966797,-0.6051928997039795,-1.1614623069763184
1761330830792260000,0.155260009765625,0.13527297973632812,-0.7476437091827393,-1.16036057472229
1761330830810961200,0.173961181640625,-0.4472942352294922,-0.7884202003479004,-0.7698750495910645
1761330830829662000,0.192661865234375,-1.0478458404541016,-0.9056606292724609,-0.2752610445022583
1761330830848363000,0.211363037109375,-1.766550064086914,-1.0281944274902344,-0.16931354999542236
1761330830867063800,0.230063720703125,-2.4636545181274414,-1.0141568183898926,-0.3299887180328369
1761330830885764900,0.248764892578125,-2.732916831970215,-0.9348726272583008,-0.4169658422470093
1761330830904465700,0.267465576171875,-2.8387603759765625,-0.9829577207565308,-0.3777740001678467
1761330830923166700,0.286166748046875,-3.0511980056762695,-0.8714476823806763,-0.2942321300506592
1761330830941867500,0.304867431640625,-3.0450334548950195,-0.5504775047302246,-0.19344651699066162
1761330830960568600,0.323568603515625,-2.809175491333008,-0.41564488410949707,-0.019046425819396973
1761330830979269600,0.34226953125,-2.8592042922973633,-0.3166491985321045,-0.18476450443267822
1761330830997970400,0.360970458984375,-3.1444249153137207,-0.17823553085327148,-0.4718332290649414
1761330831016671500,0.37967138671875,-3.1075944900512695,-0.01675558090209961,-0.43975698947906494
1761330831035372300,0.398372314453125,-3.0664663314819336,-0.012022018432617188,-0.25339269638061523
1761330831054073300,0.4170732421875,-3.427145004272461,0.08970212936401367,-0.24135780334472656
1761330831072774400,0.4357744140625,-3.6974401473999023,0.3108682632446289,-0.1722809076309204
1761330831091475200,0.45447509765625,-3.688220977783203,0.5591933727264404,-0.221127450466156
1761330831110176300,0.47317626953125,-3.241964340209961,0.574937105178833,-0.4745568633079529
1761330831128877000,0.491876953125,-2.5944414138793945,0.5108308792114258,-0.34890812635421753
1761330831147578000,0.510578125,-1.511185646057129,0.6198379993438721,-0.12270450592041016
1761330831166279200,0.529279052734375,-0.7346506118774414,0.6077799797058105,0.11588019132614136
1761330831184980000,0.54797998046875,-0.3839731216430664,0.790395975112915,0.014094412326812744
1761330831203681000,0.566680908203125,-0.38200855255126953,1.0559844970703125,-0.16767728328704834
1761330831222381800,0.5853818359375,-0.7126436233520508,1.3184089660644531,-0.5247611999511719
1761330831241083000,0.604082763671875,-1.1658010482788086,1.6587533950805664,-0.9587392210960388
1761330831259783700,0.62278369140625,-0.9274110794067383,1.9470064640045166,-0.9879518747329712
1761330831278484700,0.641484619140625,-0.43265247344970703,1.8700284957885742,-0.9133346676826477
1761330831297185500,0.660185546875,0.16260147094726562,1.8839168548583984,-1.2583849430084229
1761330831315886600,0.678886474609375,0.892603874206543,1.6913847923278809,-1.451748251914978
1761330831334587400,0.69758740234375,1.4700050354003906,1.5016727447509766,-1.2044486999511719
1761330831353288400,0.716288330078125,1.6158275604248047,1.5247323513031006,-1.1730775833129883
1761330831371989500,0.734989501953125,1.8562488555908203,1.704390525817871,-1.6534886360168457
1761330831390690300,0.753690185546875,1.6775579452514648,1.559413194656372,-1.5779457092285156
1761330831409391400,0.772391357421875,1.6604127883911133,0.9415240287780762,-0.6952520608901978
1761330831428092200,0.791092041015625,2.4301443099975586,-0.038669586181640625,0.1551329493522644
1761330831446793200,0.809793212890625,3.1329774856567383,-1.1453434228897095,0.08007198572158813
1761330831465494300,0.828494384765625,3.473343849182129,-1.7089691162109375,-0.6638601422309875
1761330831484195000,0.847195068359375,3.5443944931030273,-1.5542432069778442,-1.6533167362213135
1761330831502895900,0.865895751953125,2.9105300903320312,-1.5918365716934204,-1.4958416223526
1761330831521597000,0.884596923828125,1.690800666809082,-1.5921375751495361,-0.7193019986152649
1761330831540298000,0.903298095703125,0.3728170394897461,-1.439633846282959,-0.16496077179908752
1761330831558998800,0.921998779296875,-0.7224969863891602,-1.4068080186843872,-0.12717512249946594
1761330831577699800,0.940699951171875,-1.495835304260254,-1.289074182510376,-0.4897468686103821
1761330831596400600,0.959400634765625,-1.958745002746582,-1.1778037548065186,-1.0539182424545288
1761330831615101700,0.978101806640625,-1.9208450317382812,-1.1831140518188477,-1.1736241579055786
1761330831633802500,0.996802490234375,-1.8490581512451172,-1.1117985248565674,-0.8035866022109985
1761330831652503600,1.015503662109375,-2.179196357727051,-0.878619909286499,-0.5983583927154541
1761330831671204600,1.03420458984375,-2.4996209144592285,-0.6423609256744385,-0.5062265396118164
1761330831689905400,1.052905517578125,-3.0790185928344727,-0.47628259658813477,-0.6151474714279175
1761330831708606500,1.0716064453125,-3.6325435638427734,-0.2585792541503906,-0.785513162612915
1761330831727307300,1.090307373046875,-3.879624366760254,0.025307416915893555,-0.8250097036361694
1761330831746008300,1.10900830078125,-3.5125837326049805,0.30634307861328125,-0.933856725692749
1761330831764709000,1.127709228515625,-2.8864994049072266,0.42337894439697266,-1.0898289680480957
1761330831783410200,1.14641015625,-1.9359827041625977,0.5225167274475098,-1.0697060823440552
1761330831802111000,1.165111083984375,-0.8509511947631836,0.6014881134033203,-0.9250404834747314
1761330831820812000,1.18381201171875,0.22306156158447266,0.7279565334320068,-0.938111424446106
1761330831839512800,1.202512939453125,0.48322486877441406,0.7973761558532715,-1.0694563388824463
1761330831858214000,1.2212138671875,0.48447704315185547,1.037600040435791,-1.297938585281372
1761330831876914700,1.239914794921875,0.14908218383789062,1.2530882358551025,-1.2025355100631714
1761330831895615700,1.25861572265625,-0.1923084259033203,1.4254992008209229,-0.9598584175109863
1761330831914316800,1.27731689453125,-0.04091835021972656,1.5836493968963623,-0.34553924202919006
1761330831933017600,1.296017578125,0.4102334976196289,1.6444485187530518,0.19597387313842773
1761330831951718700,1.31471875,0.7918338775634766,1.7330060005187988,0.35056084394454956
1761330831970419500,1.33341943359375,1.4681577682495117,1.697394609451294,0.3074759244918823
1761330831989120500,1.35212060546875,2.2983388900756836,1.4367671012878418,0.46969687938690186
1761330832007821300,1.3708212890625,3.449234962463379,1.2025682926177979,0.8462253212928772
1761330832026522400,1.3895224609375,4.31645393371582,0.9873664379119873,1.3135120868682861
1761330832045223200,1.40822314453125,4.289789199829102,0.5474569797515869,1.7244242429733276
1761330832063924200,1.42692431640625,3.4297590255737305,0.08255982398986816,1.4449043273925781
1761330832082625000,1.445625,2.455059051513672,-0.12430453300476074,0.5177570581436157
1761330832101326000,1.464326171875,1.8430509567260742,-0.19104480743408203,-0.3597552180290222
1761330832120027000,1.48302685546875,1.7722063064575195,-0.369251012802124,-0.2816755175590515
1761330832138728000,1.50172802734375,1.5142173767089844,-0.6663856506347656,0.4944726824760437
1761330832157428700,1.5204287109375,1.168853759765625,-1.057295799255371,0.9910533428192139
1761330832176129800,1.5391298828125,0.8612680435180664,-1.5165038108825684,1.2707514762878418
1761330832194830800,1.557830810546875,0.4199695587158203,-1.7360320091247559,1.263777732849121
1761330832213531600,1.57653173828125,-0.29532527923583984,-1.7734684944152832,0.9791767597198486
1761330832232232700,1.595232666015625,-1.1582012176513672,-1.7452764511108398,0.4088554382324219
1761330832250933500,1.61393359375,-1.7613296508789062,-1.6256515979766846,0.10530707240104675
1761330832269634600,1.632634521484375,-2.0875043869018555,-1.4903080463409424,0.04654538631439209
1761330832288335400,1.65133544921875,-2.387017250061035,-1.406187891960144,-0.07333962619304657
1761330832307036400,1.670036376953125,-2.6951513290405273,-1.2774510383605957,-0.20086200535297394
1761330832325737200,1.6887373046875,-2.768021583557129,-0.9509389400482178,-0.38498711585998535
1761330832344438300,1.707438232421875,-2.7630510330200195,-0.6849894523620605,-0.6002093553543091
1761330832363139000,1.72613916015625,-2.8361873626708984,-0.540968656539917,-0.7202447652816772
1761330832381840100,1.744840087890625,-2.8377857208251953,-0.322967529296875,-0.8228126764297485
1761330832400541000,1.763541015625,-2.762523651123047,0.003865957260131836,-0.5825501680374146
1761330832419242000,1.782241943359375,-2.7147035598754883,0.07808089256286621,0.032289057970047
1761330832437943000,1.800943115234375,-2.233626365661621,0.2833232879638672,0.36259180307388306
1761330832456643800,1.819643798828125,-1.3038825988769531,0.22095990180969238,0.7621680498123169
1761330832475345000,1.838344970703125,-0.7891569137573242,0.1631314754486084,1.078986406326294
1761330832494045700,1.857045654296875,-0.5003089904785156,0.4336204528808594,1.0305614471435547
1761330832512746800,1.875746826171875,-0.2741565704345703,0.665471076965332,0.8643413782119751
1761330832531447600,1.894447509765625,-0.36699390411376953,0.8169820308685303,0.6215415596961975
1761330832550148400,1.9131484375,-0.6075859069824219,1.0768263339996338,0.46323877573013306
1761330832568849400,1.931849365234375,-0.7808399200439453,1.4018898010253906,0.5184053182601929
1761330832587550200,1.95055029296875,-0.5269327163696289,1.600576639175415,0.5519336462020874
1761330832606251300,1.969251220703125,-0.1184244155883789,1.7023255825042725,0.15531355142593384
1761330832624952300,1.987952392578125,0.41638946533203125,1.8084821701049805,-0.36907726526260376
1761330832643653000,2.006653076171875,1.2984495162963867,1.7363593578338623,-0.7354138493537903
1761330832662354200,2.025354248046875,2.277981758117676,1.5490174293518066,-0.6191003918647766
1761330832681055000,2.044054931640625,2.7751169204711914,1.6318120956420898,-0.6782429814338684
1761330832699756000,2.062756103515625,2.7065629959106445,1.924093246459961,-1.1429598331451416
1761330832718456800,2.081456787109375,2.0541772842407227,1.9384233951568604,-1.0958060026168823
1761330832737158000,2.100157958984375,1.724721908569336,1.5444674491882324,-0.4978399872779846
1761330832755858700,2.118858642578125,2.035503387451172,0.6662440299987793,-0.2713143229484558
1761330832774559700,2.137559814453125,2.929269790649414,-0.3950216770172119,-0.46977943181991577
1761330832793260500,2.156260498046875,3.4923105239868164,-1.3432283401489258,-0.7383790016174316
1761330832811961600,2.174961669921875,3.08199405670166,-1.7434091567993164,-1.3481941223144531
1761330832830662400,2.193662353515625,1.7921466827392578,-1.762336254119873,-1.1806144714355469
1761330832849363500,2.212363525390625,0.40634822845458984,-1.2200877666473389,-0.7407511472702026
1761330832868064300,2.231064208984375,-0.07141494750976562,-0.6334660053253174,-0.9024637937545776
1761330832886765300,2.249765380859375,-0.6176128387451172,-0.9103975296020508,-1.2809301614761353
1761330832905466000,2.268466064453125,-1.491628646850586,-1.250903606414795,-1.740636944770813
1761330832924167200,2.287167236328125,-1.9592981338500977,-1.1565062999725342,-2.111816883087158
1761330832942868000,2.305867919921875,-2.111945152282715,-1.0560588836669922,-2.198549747467041
1761330832961569000,2.324569091796875,-2.2656383514404297,-1.122565507888794,-2.1545257568359375
1761330832980269800,2.343269775390625,-2.6193976402282715,-1.0750834941864014,-2.281829357147217
1761330832998971000,2.361970947265625,-2.9670310020446777,-0.9525971412658691,-2.431307554244995
1761330833017671700,2.380671630859375,-3.072442054748535,-0.8169729709625244,-2.486470937728882
1761330833036372700,2.399372802734375,-2.923802375793457,-0.5798273086547852,-2.3454179763793945
1761330833055073500,2.418073486328125,-2.644258499145508,-0.3120555877685547,-1.9638172388076782
1761330833073774600,2.436774658203125,-2.246183395385742,-0.22695374488830566,-1.5856170654296875
1761330833092475400,2.455475341796875,-1.939697265625,-0.16269373893737793,-1.0233787298202515
1761330833111176400,2.474176513671875,-1.398137092590332,0.02257084846496582,-0.8559772968292236
1761330833129877200,2.492877197265625,-0.6661853790283203,0.12792730331420898,-0.8755902051925659
1761330833148578300,2.511578369140625,-0.10572338104248047,0.21435880661010742,-0.9035400152206421
1761330833167279000,2.530279052734375,0.20096874237060547,0.21728849411010742,-1.14723801612854
1761330833185980200,2.548980224609375,0.4264965057373047,0.317795991897583,-1.0869404077529907
1761330833204681000,2.567680908203125,0.8943796157836914,0.49137115478515625,-0.5338728427886963
1761330833223381800,2.5863818359375,1.4621782302856445,0.7063117027282715,0.028559505939483643
1761330833242082800,2.605082763671875,1.6439123153686523,0.9441766738891602,0.11216375231742859
1761330833260783900,2.623783935546875,1.4725780487060547,1.2363393306732178,-0.1896059215068817
1761330833279484700,2.642484619140625,1.6870946884155273,1.3063230514526367,-0.484011709690094
1761330833298185700,2.661185791015625,2.272721290588379,1.0887932777404785,-0.3398706614971161
1761330833316886500,2.679886474609375,2.964883804321289,0.6242632865905762,0.26726222038269043
1761330833335587600,2.698587646484375,3.3708295822143555,0.47323083877563477,0.7278706431388855
1761330833354288400,2.717288330078125,2.990570068359375,0.5183947086334229,1.0399463176727295
1761330833372989200,2.7359892578125,2.1563949584960938,0.18937301635742188,1.311697006225586
1761330833391690200,2.754690185546875,1.6352567672729492,-0.033318519592285156,1.2076117992401123
1761330833410391000,2.77339111328125,1.1694269180297852,-0.18085098266601562,0.47686171531677246
1761330833429092000,2.792092041015625,0.7062292098999023,-0.4724156856536865,-0.19383323192596436
1761330833447793200,2.810793212890625,0.27385520935058594,-0.6645710468292236,-0.4852694869041443
1761330833466494000,2.829493896484375,0.1503314971923828,-0.5239031314849854,-0.5864341259002686
1761330833485194800,2.84819482421875,0.1973428726196289,-0.773362398147583,-0.5246147513389587
1761330833503895800,2.866895751953125,0.1827688217163086,-0.9897158145904541,-0.2550700902938843
1761330833522596600,2.8855966796875,-0.1988658905029297,-1.027665615081787,-0.10904157161712646
1761330833541297700,2.904297607421875,-0.8735256195068359,-1.0423023700714111,-0.12107974290847778
1761330833559998500,2.92299853515625,-1.2015085220336914,-1.1288671493530273,-0.29968321323394775
1761330833578699500,2.941699462890625,-1.1232681274414062,-1.2200250625610352,-0.3585124611854553
1761330833597400300,2.960400390625,-0.7166023254394531,-1.2052409648895264,-0.5122907757759094
1761330833616101400,2.979101318359375,-0.6795663833618164,-1.1794826984405518,-0.6658068299293518
1761330833634802200,2.99780224609375,-1.184727668762207,-0.9807577133178711,-0.9767873287200928
1761330833653503200,3.016503173828125,-1.661834716796875,-0.6673069000244141,-1.197964072227478
1761330833672204000,3.0352041015625,-1.8876681327819824,-0.4075746536254883,-1.1377763748168945
1761330833690905000,3.053905029296875,-1.8134355545043945,-0.20511198043823242,-0.9924442768096924
1761330833709606000,3.07260595703125,-1.8376927375793457,-0.26236414909362793,-0.6113721132278442
1761330833728306700,3.091306640625,-1.8462533950805664,-0.13334441184997559,-0.4029451906681061
1761330833747007700,3.1100078125,-1.8193168640136719,-0.0010051727294921875,-0.27528735995292664
1761330833765708500,3.12870849609375,-1.5420160293579102,0.14420843124389648,-0.1552102267742157
1761330833784409600,3.14740966796875,-1.050816535949707,0.14314961433410645,0.02915516495704651
1761330833803110700,3.166110595703125,-0.6050958633422852,0.03609204292297363,0.29257306456565857
1761330833821811500,3.1848115234375,-0.14364051818847656,0.013033866882324219,0.5388622879981995
1761330833840512300,3.20351220703125,0.11701297760009766,0.09133696556091309,0.8462226390838623
1761330833859213300,3.22221337890625,-0.23679542541503906,0.26321840286254883,0.9416965246200562
1761330833877914000,3.2409140625,-0.5250425338745117,0.41927337646484375,0.8226034045219421
1761330833896615200,3.259615234375,-0.34134483337402344,0.5127644538879395,0.5794603824615479
1761330833915316000,3.27831591796875,-0.2793264389038086,0.7913596630096436,0.3799847960472107
1761330833934017000,3.29701708984375,-0.34589385986328125,1.0518808364868164,0.004310056567192078
1761330833952717800,3.3157177734375,0.12670230865478516,1.1785345077514648,-0.30260539054870605
1761330833971419000,3.3344189453125,0.8144817352294922,1.2569301128387451,-0.28566107153892517
1761330833990119700,3.35311962890625,1.1782102584838867,1.3730249404907227,-0.35343611240386963
1761330834008820700,3.37182080078125,1.397566795349121,2.0361032485961914,-1.3128644227981567
1761330834027521500,3.390521484375,1.6103878021240234,2.0979344844818115,-1.8671331405639648
1761330834046222300,3.409222412109375,1.616347312927246,1.1749002933502197,-1.411624789237976
1761330834064923400,3.42792333984375,2.0252676010131836,0.26291537284851074,-1.0198309421539307
1761330834083624200,3.446624267578125,2.9652557373046875,-0.7680263519287109,-0.6463949680328369
1761330834102325200,3.4653251953125,3.5985984802246094,-1.589500904083252,-0.690775454044342
1761330834121026000,3.484026123046875,3.221567153930664,-1.7955013513565063,-1.4174408912658691
1761330834139727000,3.50272705078125,2.307492256164551,-1.7749546766281128,-1.9805138111114502
1761330834158428000,3.521427978515625,1.3391313552856445,-1.8736326694488525,-1.5769281387329102
1761330834177129000,3.54012890625,0.3661775588989258,-1.7754807472229004,-1.0687875747680664
1761330834195829800,3.558829833984375,-0.6329174041748047,-1.6136231422424316,-0.6412550210952759
1761330834214530800,3.57753076171875,-1.499502182006836,-1.4106483459472656,-0.24880476295948029
1761330834233231600,3.596231689453125,-2.114440441131592,-1.3121042251586914,0.0010206028819084167
1761330834251932400,3.614932373046875,-2.383223533630371,-1.2850706577301025,-0.14709138870239258
1761330834270633500,3.633633544921875,-2.3598012924194336,-1.1582913398742676,-0.6729645133018494
1761330834289334300,3.652334228515625,-2.402181625366211,-0.9167318344116211,-0.9588554501533508
1761330834308035300,3.671035400390625,-2.415524482727051,-0.5589776039123535,-1.3029588460922241
1761330834326736100,3.689736083984375,-2.246283531188965,-0.2770402431488037,-1.4228029251098633
1761330834345437200,3.708437255859375,-2.145766258239746,-0.165208101272583,-1.3603603839874268
1761330834364138000,3.727137939453125,-1.928980827331543,-0.1066889762878418,-1.3368902206420898
1761330834382839000,3.745839111328125,-1.5558834075927734,-0.16091513633728027,-0.9947425723075867
1761330834401539800,3.764539794921875,-1.1844024658203125,-0.11681008338928223,-0.6638760566711426
1761330834420240600,3.78324072265625,-0.9890975952148438,0.022168636322021484,-0.6055538058280945
1761330834438941700,3.801941650390625,-0.7741546630859375,0.1400911808013916,-0.7088716626167297
1761330834457642500,3.820642578125,-0.2845897674560547,0.2662672996520996,-0.5653771758079529
1761330834476343600,3.839343505859375,0.16167259216308594,0.20287370681762695,-0.1188870519399643
1761330834495044600,3.858044677734375,0.2138042449951172,0.32239508628845215,0.11188478767871857
1761330834513745400,3.876745361328125,-0.052077293395996094,0.7170040607452393,0.10689881443977356
1761330834532446200,3.8954462890625,0.036194801330566406,1.1036651134490967,-0.24324482679367065
1761330834551147300,3.914147216796875,0.2765817642211914,1.0524678230285645,-0.16021180152893066
1761330834569848000,3.93284814453125,1.0117721557617188,0.9475283622741699,0.34566301107406616
1761330834588548900,3.951548828125,1.7751531600952148,0.8793165683746338,0.6518411040306091
1761330834607250000,3.97025,2.7753162384033203,0.8036239147186279,0.9016575813293457
1761330834625950700,3.98895068359375,3.6742191314697266,1.0076580047607422,0.6720321178436279
1761330834644651800,4.00765185546875,3.379054069519043,1.1392035484313965,0.3291311264038086
1761330834663352800,4.026352783203125,3.0610570907592773,0.6999213695526123,0.9128655195236206
1761330834682053600,4.0450537109375,2.969841957092285,0.28843259811401367,1.3934835195541382
1761330834700754400,4.06375439453125,2.698516845703125,-0.2105705738067627,0.9142836332321167
1761330834719455500,4.08245556640625,1.8948163986206055,-0.46968650817871094,0.2208515852689743
1761330834738156300,4.10115625,0.8513612747192383,-0.47357821464538574,-0.2230294793844223
1761330834756857000,4.119857177734375,0.2095203399658203,-0.7094917297363281,-0.1859632134437561
1761330834775558100,4.13855810546875,0.3697662353515625,-1.1694073677062988,0.0018834322690963745
1761330834794259000,4.157259033203125,0.40300655364990234,-1.494433879852295,0.5008968114852905
1761330834812960000,4.1759599609375,0.10909175872802734,-1.5701067447662354,0.7819242477416992
1761330834831660800,4.194660888671875,-0.47603321075439453,-1.456653118133545,0.9157774448394775
1761330834850361900,4.21336181640625,-1.1385622024536133,-1.337277889251709,0.8506273031234741
1761330834869062700,4.232062744140625,-1.2768058776855469,-1.2438006401062012,0.8235907554626465
1761330834887763700,4.250763671875,-1.1839876174926758,-1.195631742477417,0.7008181810379028
1761330834906464500,4.269464599609375,-1.2507896423339844,-1.1185953617095947,0.39154988527297974
1761330834925165300,4.288165283203125,-1.4698090553283691,-1.01528000831604,0.2693614959716797
1761330834943866400,4.306866455078125,-1.701944351196289,-0.755831241607666,0.3100786507129669
1761330834962567400,4.3255673828125,-1.8560709953308105,-0.5095763206481934,0.4978325366973877
1761330834981268200,4.344268310546875,-1.7565937042236328,-0.36067819595336914,0.7585275769233704
1761330834999969000,4.362968994140625,-1.5542926788330078,-0.3666861057281494,1.1302587985992432
1761330835018670000,4.381670166015625,-1.0220022201538086,-0.3506789207458496,1.4182662963867188
1761330835037371000,4.400370849609375,-0.8519983291625977,-0.40583038330078125,1.4890072345733643
1761330835056071700,4.41907177734375,-0.9210424423217773,-0.20093822479248047,1.1107428073883057
1761330835074772700,4.437772705078125,-1.1192655563354492,-0.09929609298706055,0.8255362510681152
1761330835093473500,4.4564736328125,-1.384824275970459,0.16274547576904297,0.5608631372451782
1761330835112174600,4.475174560546875,-1.3723115921020508,0.5139665603637695,0.3840934634208679
1761330835130875400,4.49387548828125,-1.068960189819336,0.7421858310699463,0.356841117143631
1761330835149576400,4.512576416015625,-0.6379680633544922,1.026068925857544,0.23686081171035767
1761330835168277200,4.53127734375,-0.14745140075683594,1.2269916534423828,0.3221207857131958
1761330835186978300,4.549978271484375,0.27599334716796875,1.3223724365234375,0.29083675146102905
1761330835205679000,4.56867919921875,0.7294931411743164,1.299722671508789,-0.14070475101470947
1761330835224380000,4.5873798828125,0.9494991302490234,1.1804399490356445,-0.7112116813659668
1761330835243081000,4.6060810546875,1.1565628051757812,1.138782024383545,-1.0899534225463867
1761330835261781800,4.62478173828125,1.6204824447631836,1.024665355682373,-0.8573013544082642
1761330835280482800,4.64348291015625,2.359405517578125,1.2856440544128418,-0.4185282588005066
1761330835299183600,4.66218359375,2.3232879638671875,1.8173308372497559,-0.22431433200836182
1761330835317884700,4.680884765625,1.8720664978027344,1.6064972877502441,0.12171739339828491
1761330835336585500,4.69958544921875,1.9243803024291992,0.9033107757568359,0.6027566194534302
1761330835355286300,4.718286376953125,2.5036230087280273,-0.14643239974975586,0.4756009578704834
1761330835373987300,4.7369873046875,2.5806427001953125,-0.8469657897949219,0.08841532468795776
1761330835392688000,4.755688232421875,2.383255958557129,-1.2221779823303223,-0.17954695224761963
1761330835411389200,4.77438916015625,2.1287355422973633,-1.4602134227752686,-0.04430997371673584
1761330835430090000,4.793090087890625,1.619706153869629,-1.6639745235443115,0.21217280626296997
1761330835448791000,4.811791015625,0.8367929458618164,-1.8030917644500732,0.4644233286380768
1761330835467491800,4.830491943359375,-0.16181278228759766,-1.745588779449463,0.5831810235977173
1761330835486192600,4.849192626953125,-1.2543706893920898,-1.556229591369629,0.42896294593811035
1761330835504893700,4.867893798828125,-1.8551950454711914,-1.5463290214538574,0.1004909873008728
1761330835523594500,4.886594482421875,-1.8737974166870117,-1.6446597576141357,-0.03163498640060425
1761330835542295600,4.905295654296875,-1.7964353561401367,-1.6722373962402344,-0.12299752235412598
1761330835560996400,4.923996337890625,-2.0498881340026855,-1.3113796710968018,-0.21678823232650757
1761330835579697400,4.942697509765625,-2.462519645690918,-0.9886798858642578,-0.3653818964958191
1761330835598398200,4.961398193359375,-2.840963363647461,-0.7600588798522949,-0.2876260280609131
1761330835617099000,4.98009912109375,-2.9052586555480957,-0.5764789581298828,-0.16630089282989502
1761330835635800000,4.998800048828125,-2.770663261413574,-0.5534393787384033,-0.10365074872970581
1761330835654500900,5.0175009765625,-2.3919835090637207,-0.4488558769226074,-0.28277331590652466
1761330835673202000,5.036201904296875,-1.927621841430664,-0.3424193859100342,-0.4141539931297302
1761330835691902700,5.05490283203125,-1.4819402694702148,-0.3090839385986328,-0.6352437734603882
1761330835710603800,5.073603759765625,-0.986605167388916,-0.2623143196105957,-0.7247896790504456
1761330835729304600,5.0923046875,-0.5018520355224609,-0.0361323356628418,-0.6662305593490601
1761330835748005600,5.111005615234375,-0.25614261627197266,0.25107812881469727,-0.5329756736755371
1761330835766706400,5.12970654296875,0.1831188201904297,0.5658590793609619,-0.24818569421768188
1761330835785407200,5.1484072265625,0.7948389053344727,0.8094661235809326,0.20361396670341492
1761330835804108300,5.1671083984375,1.2085752487182617,1.096207857131958,0.5224722623825073
1761330835822809000,5.18580908203125,1.5759687423706055,1.5155982971191406,0.3828897774219513
1761330835841510000,5.204510009765625,1.7064628601074219,1.6977601051330566,0.1536787450313568
1761330835860211000,5.2232109375,1.6784563064575195,1.6955204010009766,0.16549724340438843
1761330835878911700,5.241911865234375,2.3368444442749023,1.592987060546875,0.3289746344089508
1761330835897612800,5.26061279296875,3.8035154342651367,1.1687266826629639,0.45699650049209595
1761330835916313600,5.279313720703125,4.420012474060059,1.3516499996185303,0.4385184645652771
1761330835935014700,5.2980146484375,3.1761579513549805,1.360914707183838,0.5721305012702942
1761330835953715500,5.316715576171875,2.1850624084472656,0.6365761756896973,1.5541250705718994
1761330835972416300,5.335416259765625,2.288163185119629,-0.08088111877441406,2.164384126663208
1761330835991117300,5.354117431640625,2.2163543701171875,-0.827704906463623,2.3463385105133057
1761330836009818000,5.372818115234375,1.092259407043457,-1.0354971885681152,1.8531819581985474
1761330836028519200,5.391519287109375,-0.07133197784423828,-1.032303810119629,1.006425380706787
1761330836047220000,5.410219970703125,-0.6160221099853516,-1.4006803035736084,0.8089919090270996
1761330836065921000,5.428921142578125,-0.7007722854614258,-1.7271180152893066,0.8911564350128174
1761330836084621800,5.447621826171875,-0.8003826141357422,-1.88905668258667,1.18538498878479
1761330836103322600,5.466322509765625,-1.0692577362060547,-1.86151123046875,1.2183377742767334
1761330836122023700,5.485023681640625,-1.5433626174926758,-1.7779016494750977,0.8838434219360352
1761330836140724500,5.503724365234375,-1.7504181861877441,-1.6580381393432617,0.4049760103225708
1761330836159425500,5.522425537109375,-1.737060546875,-1.4966187477111816,0.06273385882377625
1761330836178126300,5.541126220703125,-1.307002067565918,-1.3132848739624023,-0.1775500476360321
1761330836196827100,5.5598271484375,-1.168837547302246,-1.0633299350738525,-0.04055112600326538
1761330836215528200,5.578528076171875,-1.3481221199035645,-0.66558837890625,0.0819753110408783
1761330836234229000,5.59722900390625,-1.556992530822754,-0.3121180534362793,0.21029764413833618
1761330836252930000,5.615929931640625,-1.6968193054199219,-0.057734012603759766,0.3101031184196472
1761330836271630800,5.634630859375,-1.7869253158569336,0.03616476058959961,0.3690992593765259
1761330836290332000,5.653331787109375,-1.6621026992797852,-0.03157615661621094,0.4219328761100769
1761330836309032700,5.67203271484375,-1.196336269378662,-0.05312919616699219,0.4382125437259674
1761330836327733500,5.6907333984375,-0.4978361129760742,0.006220817565917969,0.5542629361152649
1761330836346434600,5.7094345703125,0.07689857482910156,0.15283632278442383,0.4965851902961731
1761330836365135400,5.72813525390625,0.39922142028808594,0.24952363967895508,0.45525604486465454
1761330836383836200,5.746836181640625,0.10312366485595703,0.5400676727294922,0.41046643257141113
1761330836402537200,5.765537109375,-0.36296653747558594,0.8912816047668457,0.2479928731918335
1761330836421238000,5.784238037109375,-0.5794239044189453,1.0480446815490723,0.11626952886581421
1761330836439939000,5.80293896484375,-0.49247169494628906,1.1923904418945312,0.1678876280784607
1761330836458640000,5.821639892578125,-0.3559398651123047,1.340400218963623,0.18098032474517822
1761330836477341000,5.8403408203125,-0.25336265563964844,1.4432568550109863,-0.15054291486740112
1761330836496041700,5.859041748046875,0.010371208190917969,1.5546903610229492,-0.3297359347343445
1761330836514742500,5.877742431640625,0.4976158142089844,1.4240708351135254,-0.29458290338516235
1761330836533443600,5.896443603515625,1.307948112487793,1.2689213752746582,-0.014938980340957642
1761330836552144400,5.915144287109375,2.3320131301879883,1.1363635063171387,0.20584344863891602
1761330836570845400,5.933845458984375,2.824758529663086,1.416316032409668,-0.25930655002593994
1761330836589546200,5.952546142578125,2.546236991882324,1.4116415977478027,-0.4162236750125885
1761330836608247300,5.971247314453125,2.380687713623047,0.737734317779541,-0.30672815442085266
1761330836626948000,5.989947998046875,2.1351232528686523,-0.002555370330810547,-0.42936190962791443
1761330836645649000,6.00864892578125,1.3627262115478516,-0.8290700912475586,-0.40291333198547363
1761330836664350000,6.027349853515625,0.6819038391113281,-1.5098466873168945,-0.27041125297546387
1761330836683050800,6.04605078125,0.36048316955566406,-1.7720017433166504,-0.25971758365631104
1761330836701751600,6.06475146484375,0.3046579360961914,-1.8026742935180664,-0.3942773640155792
1761330836720452600,6.08345263671875,0.38918304443359375,-1.6577863693237305,-0.3496777415275574
1761330836739153700,6.102153564453125,0.09030437469482422,-1.5260064601898193,-0.4481191039085388
1761330836757854500,6.1208544921875,-0.4124422073364258,-1.456636905670166,-0.5076513290405273
1761330836776555300,6.13955517578125,-0.9372968673706055,-1.3137872219085693,-0.5162947773933411
1761330836795256300,6.15825634765625,-1.2984371185302734,-1.1824283599853516,-0.5796653628349304
1761330836813957000,6.17695703125,-1.2213668823242188,-1.2032275199890137,-0.5007374286651611
1761330836832658000,6.195657958984375,-0.9434118270874023,-1.1712539196014404,-0.4041844606399536
1761330836851359000,6.21435888671875,-0.7374734878540039,-0.9179494380950928,-0.5580607652664185
1761330836870059800,6.233059814453125,-0.8306283950805664,-0.8098015785217285,-0.6491811871528625
1761330836888760800,6.2517607421875,-1.2672200202941895,-0.6100802421569824,-0.5991083383560181
1761330836907461600,6.270461669921875,-1.7807636260986328,-0.3278956413269043,-0.4953862726688385
1761330836926162400,6.289162353515625,-2.0414981842041016,-0.15964841842651367,-0.4748243987560272
1761330836944863500,6.307863525390625,-1.8710460662841797,-0.13329458236694336,-0.41863375902175903
1761330836963564300,6.326564208984375,-1.5115814208984375,-0.04081535339355469,-0.2622685134410858
1761330836982265300,6.345265380859375,-1.149235725402832,0.2110762596130371,-0.23566819727420807
1761330837000966100,6.363966064453125,-0.8633852005004883,0.3823885917663574,-0.23542994260787964
1761330837019667200,6.382667236328125,-0.5812654495239258,0.5402600765228271,-0.18224647641181946
1761330837038368000,6.401367919921875,-0.3939638137817383,0.7529184818267822,-0.18241581320762634
1761330837057068800,6.42006884765625,-0.5221338272094727,0.8023171424865723,-0.277068555355072
1761330837075769900,6.438769775390625,-0.438018798828125,0.9441869258880615,-0.3451623320579529
1761330837094470700,6.457470703125,-0.1970348358154297,1.0000548362731934,-0.2531605064868927
1761330837113171500,6.47617138671875,-0.018425941467285156,1.101649284362793,-0.1617438793182373
1761330837131872500,6.49487255859375,0.11334896087646484,1.2912135124206543,-0.1438184678554535
1761330837150573300,6.5135732421875,0.5615043640136719,1.3824357986450195,-0.07385805249214172
1761330837169274400,6.5322744140625,1.159480094909668,1.1637201309204102,0.39018258452415466
1761330837187975200,6.55097509765625,2.33646297454834,0.9735143184661865,0.8567179441452026
1761330837206676000,6.569676025390625,3.836054801940918,0.7564117908477783,0.7007761597633362
1761330837225377000,6.588376953125,4.103955268859863,1.1810345649719238,0.32473525404930115
1761330837244077800,6.607077880859375,2.969013214111328,1.1571550369262695,0.021011173725128174
1761330837262779000,6.62577880859375,2.1472225189208984,0.34995269775390625,0.8990694880485535
1761330837281479700,6.644479736328125,2.2164230346679688,-0.285153865814209,1.9807026386260986
1761330837300180700,6.6631806640625,2.3633060455322266,-1.0160584449768066,2.431765556335449
1761330837318881500,6.681881591796875,1.6157846450805664,-1.4613218307495117,1.9591190814971924
1761330837337582300,6.700582275390625,0.3062124252319336,-1.3267779350280762,0.8110082149505615
1761330837356283400,6.719283447265625,-0.6642036437988281,-1.3683404922485352,-0.0455644428730011
1761330837374984200,6.737984130859375,-1.1002283096313477,-1.461496353149414,-0.436109334230423
1761330837393685000,6.75668505859375,-1.2359967231750488,-1.4758822917938232,-0.31100142002105713
1761330837412386000,6.775385986328125,-1.397840976715088,-1.458195447921753,-0.004820793867111206
1761330837431087000,6.794087158203125,-1.4787788391113281,-1.3655774593353271,0.2604963779449463
1761330837449788000,6.812787841796875,-1.6228532791137695,-1.2533891201019287,0.4829205870628357
1761330837468488700,6.83148876953125,-1.7084035873413086,-1.1465363502502441,0.3493972420692444
1761330837487189800,6.850189697265625,-1.6990747451782227,-0.9821352958679199,-0.18668390810489655
1761330837505890600,6.868890625,-1.7540254592895508,-0.7197542190551758,-0.5533264875411987
1761330837524591400,6.88759130859375,-1.6958494186401367,-0.3138396739959717,-0.636378288269043
1761330837543292400,6.90629248046875,-1.4321393966674805,-0.027863502502441406,-0.7620121836662292
1761330837561993200,6.9249931640625,-1.1342201232910156,0.14382648468017578,0.0927739143371582
1761330837580694300,6.9436943359375,-0.8249073028564453,0.10083198547363281,0.9024081230163574
1761330837599395000,6.96239501953125,-0.6375589370727539,0.009293079376220703,0.8714802265167236
1761330837618095900,6.981095947265625,-0.512822151184082,0.09611392021179199,0.20510008931159973
1761330837636797000,6.999796875,-0.21427631378173828,0.3532109260559082,-0.055637210607528687
1761330837655497700,7.018497802734375,-0.10099601745605469,0.6646714210510254,0.5058363676071167
1761330837674198500,7.037198486328125,-0.22957324981689453,0.872251033782959,1.0246728658676147
1761330837692899600,7.055899658203125,-0.341522216796875,0.9565117359161377,0.7888679504394531
1761330837711600600,7.0746005859375,-0.36252880096435547,0.9444849491119385,0.28402891755104065
1761330837730301400,7.093301513671875,-0.4328956604003906,0.8266446590423584,-0.3265256881713867
1761330837749002200,7.112002197265625,-0.5238065719604492,0.5661535263061523,-0.9573259353637695
1761330837767703300,7.130703369140625,0.05359363555908203,0.7314620018005371,-1.4971961975097656
1761330837786404000,7.149404052734375,0.6092748641967773,1.0028960704803467,-1.4023488759994507
1761330837805105000,7.16810498046875,0.9176368713378906,0.8213107585906982,-0.8595902919769287
1761330837823806000,7.186805908203125,1.440999984741211,0.6472361087799072,-0.6483739614486694
1761330837842506800,7.2055068359375,2.3345279693603516,0.81931471824646,-0.5277009010314941
1761330837861207800,7.224207763671875,2.7994308471679688,1.3695673942565918,-0.1439969539642334
1761330837879908600,7.24290869140625,2.0633392333984375,1.4918439388275146,0.4896445572376251
1761330837898609400,7.261609375,1.0831642150878906,0.8785879611968994,0.6300767660140991
1761330837917310500,7.280310546875,0.8077888488769531,0.3829376697540283,-0.09917038679122925
1761330837936011300,7.29901123046875,0.9716682434082031,-0.1773228645324707,-0.7322356104850769
1761330837954712300,7.31771240234375,1.0792427062988281,-1.0491266250610352,-0.985260009765625
1761330837973413000,7.3364130859375,1.088644027709961,-1.5378694534301758,-1.131831407546997
1761330837992114000,7.355114013671875,0.9826765060424805,-1.7757489681243896,-0.8585895299911499
1761330838010815000,7.37381494140625,0.8849124908447266,-1.6914302110671997,-0.4700874388217926
1761330838029515800,7.392515869140625,0.6689023971557617,-1.5260381698608398,0.119657963514328
1761330838048216600,7.411216552734375,0.2997016906738281,-1.3237888813018799,0.2572128176689148
1761330838066917600,7.429917724609375,-0.2820415496826172,-1.3103420734405518,0.28187286853790283
1761330838085618400,7.448618408203125,-0.7173347473144531,-1.2978968620300293,0.07775944471359253
1761330838104319500,7.467319580078125,-1.0529451370239258,-1.196601390838623,-0.05160945653915405
1761330838123020300,7.486020263671875,-1.7233591079711914,-0.9142880439758301,-0.3686811029911041
1761330838141721300,7.504721435546875,-2.5359349250793457,-0.5604889392852783,-0.44718804955482483
1761330838160422100,7.523422119140625,-2.9183692932128906,-0.28353452682495117,-0.48142263293266296
1761330838179123000,7.542123046875,-2.9058523178100586,0.04305601119995117,-0.5303836464881897
1761330838197824000,7.560823974609375,-2.5903167724609375,0.301100492477417,-0.43911802768707275
1761330838216524800,7.57952490234375,-2.246631622314453,0.30124855041503906,-0.284291535615921
1761330838235225900,7.598225830078125,-1.7996025085449219,0.1940915584564209,-0.04579202085733414
1761330838253926700,7.6169267578125,-1.3745360374450684,0.4022979736328125,0.442185640335083
1761330838272627500,7.63562744140625,-0.6306285858154297,0.5495071411132812,0.4112929701805115
1761330838291328300,7.654328369140625,-0.22599411010742188,0.4485034942626953,0.20586149394512177
1761330838310029300,7.673029296875,0.06197071075439453,0.5248830318450928,-0.004880193620920181
1761330838328730000,7.691730224609375,0.49944496154785156,0.6688942909240723,-0.19331736862659454
1761330838347431200,7.71043115234375,0.9497175216674805,0.7228376865386963,-0.32859236001968384
1761330838366132000,7.729132080078125,1.2872772216796875,0.8419785499572754,-0.1528516262769699
1761330838384833000,7.7478330078125,1.3636341094970703,0.9904184341430664,-0.09902261197566986
1761330838403533800,7.766533935546875,1.5448923110961914,0.9418141841888428,0.2666556239128113
1761330838422235000,7.78523486328125,1.9760541915893555,0.6197662353515625,0.8406450748443604
1761330838440935700,7.803935791015625,2.5074987411499023,0.3066279888153076,0.9290971755981445
1761330838459636500,7.822636474609375,2.7998552322387695,0.7101404666900635,0.6537497639656067
1761330838478337300,7.841337158203125,2.519947052001953,0.675724983215332,0.17353719472885132
1761330838497038300,7.860038330078125,2.572667121887207,-0.07327508926391602,0.738681972026825
1761330838515739400,7.878739501953125,2.78409481048584,-1.0497469902038574,1.5276020765304565
1761330838534440200,7.897440185546875,3.2415380477905273,-1.9153516292572021,1.8503599166870117
1761330838553141000,7.91614111328125,2.6471567153930664,-2.218503475189209,1.3980536460876465
1761330838571842000,7.934842041015625,1.0680818557739258,-1.5847301483154297,0.09688767790794373
1761330838590542800,7.95354296875,-0.31691837310791016,-1.2817857265472412,-0.5372300148010254
1761330838609243600,7.97224365234375,-0.9986371994018555,-1.2682788372039795,-0.2974907159805298
1761330838627944700,7.99094482421875,-1.2856273651123047,-1.1091208457946777,0.16302332282066345
1761330838646645500,8.0096455078125,-1.5835609436035156,-0.9248178005218506,0.5327033996582031
1761330838665346600,8.0283466796875,-2.079418659210205,-0.724982738494873,0.5396372079849243
1761330838684047400,8.04704736328125,-2.4018430709838867,-0.5156683921813965,0.36288779973983765
1761330838702748200,8.065748046875,-2.5019655227661133,-0.4600694179534912,0.1490178257226944
1761330838721449200,8.08444921875,-2.331144332885742,-0.40059399604797363,-0.21326757967472076
1761330838740150000,8.10314990234375,-2.0079030990600586,-0.3133385181427002,-0.6845167279243469
1761330838758851000,8.12185107421875,-1.5129656791687012,-0.26554346084594727,-0.7941949367523193
1761330838777552000,8.1405517578125,-0.9157505035400391,-0.1825730800628662,-0.5417172908782959
1761330838796253000,8.1592529296875,-0.36514949798583984,-0.1862800121307373,-0.030077636241912842
1761330838814953700,8.17795361328125,0.08040142059326172,-0.18623042106628418,0.5338839292526245
1761330838833654500,8.196654541015626,0.3064393997192383,-0.03865480422973633,0.7237095832824707
1761330838852355300,8.215355224609375,0.3960714340209961,0.1079716682434082,0.5219573378562927
1761330838871056400,8.234056396484375,0.3403787612915039,0.24755287170410156,0.16582638025283813
1761330838889757200,8.252757080078124,0.08751487731933594,0.3658626079559326,-0.004777133464813232
1761330838908458200,8.271458251953124,-0.20090389251708984,0.5293445587158203,0.21425119042396545
1761330838927159000,8.290158935546875,-0.3442363739013672,0.7831413745880127,0.2896498441696167
1761330838945860000,8.308860107421875,-0.52850341796875,0.8237569332122803,0.4607846438884735
1761330838964561000,8.327560791015625,-0.6211624145507812,0.9488472938537598,0.2674015164375305
1761330838983261700,8.34626171875,-0.7298412322998047,0.9165821075439453,-0.4130169451236725
1761330839001962800,8.364962646484376,-0.652827262878418,0.7855749130249023,-0.896207332611084
1761330839020663600,8.38366357421875,-0.31102561950683594,0.4000110626220703,-0.7421643733978271
1761330839039364600,8.402364501953125,0.3011627197265625,0.17612123489379883,-0.4269774556159973
1761330839058065400,8.4210654296875,1.2898855209350586,0.4588322639465332,-0.38155242800712585
1761330839076766200,8.43976611328125,1.870741844177246,1.274630069732666,-0.5846225023269653
1761330839095467300,8.45846728515625,1.6907415390014648,1.6156482696533203,-0.5881918668746948
1761330839114168000,8.47716796875,1.3178596496582031,1.1579899787902832,-0.23712629079818726
1761330839132868900,8.495868896484374,1.1646060943603516,0.1453557014465332,-0.1227695643901825
1761330839151570000,8.51456982421875,1.36767578125,-0.7587728500366211,-0.15139776468276978
1761330839170270700,8.533270751953125,1.5209169387817383,-1.3702201843261719,-0.6630958914756775
1761330839188971800,8.5519716796875,1.623244285583496,-1.8926126956939697,-1.1679935455322266
1761330839207672600,8.570672607421875,1.7216148376464844,-2.1947062015533447,-1.0758583545684814
1761330839226373400,8.589373291015624,1.539337158203125,-2.075885057449341,-0.4316139817237854
1761330839245074400,8.608074462890626,0.8605585098266602,-1.6771905422210693,-0.06563419103622437
1761330839263775200,8.626775146484375,-0.19844436645507812,-1.4973833560943604,0.3102191090583801
1761330839282476000,8.64547607421875,-1.0360527038574219,-1.2142267227172852,0.4015600085258484
1761330839301177000,8.664177001953124,-1.5859127044677734,-1.0782930850982666,0.49052488803863525
1761330839319878100,8.682878173828126,-1.9376249313354492,-1.0063104629516602,0.47328004240989685
1761330839338579000,8.701578857421875,-1.9882841110229492,-0.9154233932495117,0.21479061245918274
1761330839357279700,8.72027978515625,-1.8932313919067383,-0.7123847007751465,0.050947874784469604
1761330839375980500,8.73898046875,-1.8495426177978516,-0.4432206153869629,-0.010555863380432129
1761330839394681600,8.757681640625,-1.8929224014282227,-0.16920900344848633,0.07138988375663757
1761330839413382400,8.77638232421875,-1.8051643371582031,-0.08602380752563477,0.12160592526197433
1761330839432083500,8.79508349609375,-1.572859764099121,-0.10274362564086914,0.24981512129306793
1761330839450784300,8.8137841796875,-1.2533340454101562,0.009746551513671875,0.4134531617164612
1761330839469485300,8.8324853515625,-0.9183225631713867,0.12111473083496094,0.4995926022529602
1761330839488186000,8.85118603515625,-0.5561113357543945,0.347522497177124,0.3173605501651764
1761330839506887000,8.869886962890625,-0.3198213577270508,0.4730873107910156,0.18928825855255127
1761330839525588000,8.888587890625,-0.026468276977539062,0.587285041809082,0.11933126300573349
1761330839544288800,8.907288818359374,0.34922027587890625,0.8007540702819824,-0.008587367832660675
1761330839562989600,8.925989501953126,0.6958074569702148,0.9221525192260742,-0.22829368710517883
1761330839581690600,8.944690673828125,0.9287900924682617,1.0703692436218262,-0.1801067441701889
1761330839600391400,8.963391357421875,1.088515281677246,1.2682485580444336,0.08592970669269562
1761330839619092500,8.982092529296875,1.3194732666015625,1.4274592399597168,0.28011631965637207
1761330839637793300,9.000793212890626,1.4461870193481445,1.2580838203430176,0.6742549538612366
1761330839656494000,9.019494140625,1.8073902130126953,1.0038576126098633,0.9715054035186768
1761330839675195100,9.038195068359375,2.2402219772338867,1.2183966636657715,0.7270327210426331
1761330839693896000,9.05689599609375,1.6908073425292969,1.4251084327697754,-0.013227667659521103
1761330839712597000,9.075596923828124,1.3829240798950195,0.8714747428894043,0.48039382696151733
1761330839731297800,9.0942978515625,2.0368785858154297,0.10638952255249023,0.9544914364814758
1761330839749998600,9.11299853515625,2.610300064086914,-0.7667417526245117,1.2759004831314087
1761330839768699600,9.13169970703125,2.6890974044799805,-1.6168732643127441,1.4098055362701416
1761330839787400400,9.150400390625,1.7858715057373047,-1.6771833896636963,0.7888345122337341
1761330839806101200,9.169101318359376,0.3244352340698242,-1.4123249053955078,-0.15846268832683563
1761330839824802300,9.18780224609375,-0.6517925262451172,-1.501185417175293,-0.32930871844291687
1761330839843503000,9.206503173828125,-0.9479608535766602,-1.4563558101654053,0.026192862540483475
1761330839862204200,9.2252041015625,-1.0163936614990234,-1.2499709129333496,0.683968186378479
1761330839880905000,9.243905029296876,-1.2280664443969727,-1.0287394523620605,0.9921867847442627
1761330839899605800,9.262605712890625,-1.5471343994140625,-0.950890064239502,0.9626093506813049
1761330839918306800,9.281306884765625,-1.7821555137634277,-0.8557844161987305,0.4351186454296112
1761330839937007600,9.300007568359375,-1.8330059051513672,-0.6713559627532959,-0.24291494488716125
1761330839955708700,9.318708740234374,-1.7943143844604492,-0.40866732597351074,-0.7410419583320618
1761330839974409500,9.337409423828126,-1.5361175537109375,-0.303225040435791,-0.8259897232055664
1761330839993110300,9.3561103515625,-1.3863544464111328,-0.17964744567871094,-0.5997272729873657
1761330840011811300,9.374811279296875,-1.306107521057129,-0.06225109100341797,-0.2044561207294464
1761330840030512000,9.39351220703125,-1.2142577171325684,-0.12563371658325195,0.2709423899650574
1761330840049213000,9.412212890625,-1.0180058479309082,-0.25264835357666016,0.3682924211025238
1761330840067914000,9.4309140625,-0.6708126068115234,-0.14826488494873047,0.18751350045204163
1761330840086614800,9.44961474609375,-0.2540702819824219,0.14966630935668945,-0.10028979182243347
1761330840105315800,9.46831591796875,0.006632804870605469,0.3992745876312256,-0.36052125692367554
1761330840124016600,9.4870166015625,0.16281795501708984,0.6241757869720459,-0.13785889744758606
1761330840142717400,9.505717529296875,0.5680294036865234,1.0340063571929932,-0.01904839277267456
1761330840161418500,9.52441845703125,0.986607551574707,1.1147527694702148,0.23472018539905548
1761330840180119300,9.543119384765625,1.0725507736206055,1.0008430480957031,0.5738039016723633
1761330840198820000,9.561820068359374,1.1130857467651367,1.0004355907440186,0.3015938699245453
1761330840217521200,9.580521240234376,0.6375179290771484,1.0178236961364746,-0.32448285818099976
1761330840236222200,9.59922216796875,0.3894033432006836,0.8663384914398193,-0.6363517642021179
1761330840254923000,9.617923095703125,0.9387845993041992,0.4678921699523926,-0.2580357491970062
1761330840273623800,9.636623779296874,1.8975334167480469,0.2548980712890625,0.08396488428115845
1761330840292324600,9.65532470703125,2.4066333770751953,0.37557125091552734,-0.4355326294898987
1761330840311025700,9.674025634765625,1.6483221054077148,0.9058232307434082,-1.358114242553711
1761330840329726500,9.6927265625,0.9471931457519531,0.8987617492675781,-1.1981180906295776
1761330840348427500,9.711427490234374,0.9460906982421875,0.25394678115844727,-0.04846549034118652
1761330840367128300,9.73012841796875,0.5682277679443359,-1.0200350284576416,0.620789110660553
1761330840385829400,9.748829345703125,-0.4030599594116211,-1.800140380859375,0.456051766872406
1761330840404530200,9.7675302734375,-0.8234195709228516,-1.968519687652588,-0.11864003539085388
1761330840423231000,9.78623095703125,-0.7535686492919922,-1.9060702323913574,-0.6161211729049683
1761330840441931800,9.804931884765624,-0.20833492279052734,-1.7185301780700684,-0.4714316725730896
1761330840460632800,9.8236328125,-0.1494302749633789,-1.4110372066497803,0.20208537578582764
1761330840479333600,9.842333740234375,-0.24242019653320312,-1.076064109802246,0.6588184237480164
1761330840498034700,9.86103466796875,-0.18642902374267578,-0.9046006202697754,0.637829065322876
1761330840516735500,9.879735595703124,-0.21054935455322266,-0.9916634559631348,0.6681010723114014
1761330840535436300,9.898436279296876,-0.42255592346191406,-0.926018238067627,0.6687118411064148
1761330840554137300,9.917137451171875,-0.6316080093383789,-0.6949563026428223,0.42134058475494385
1761330840572838100,9.935838134765625,-0.8094501495361328,-0.2566561698913574,0.17891936004161835
1761330840591539000,9.9545390625,-1.2885894775390625,0.01764059066772461,-0.009462833404541016
1761330840610240000,9.973239990234376,-2.0315961837768555,0.27434206008911133,-0.5368003249168396
1761330840628941000,9.991941162109375,-2.290005683898926,0.44341611862182617,-1.2303240299224854
1761330840647641900,10.010641845703125,-2.147202491760254,0.41794633865356445,-1.5528197288513184
1761330840666342700,10.0293427734375,-1.7619667053222656,0.320497989654541,-1.4501664638519287
1761330840685043700,10.048043701171874,-1.1482625007629395,0.3456578254699707,-1.1304118633270264
1761330840703744500,10.06674462890625,-0.5718221664428711,0.3605184555053711,-0.8349024057388306
1761330840722445300,10.0854453125,0.08619880676269531,0.3795318603515625,-0.473227858543396
1761330840741146400,10.104146484375,0.6676454544067383,0.37181806564331055,-0.04969024658203125
1761330840759847200,10.12284716796875,0.7203102111816406,0.3490571975708008,-0.07616609334945679
1761330840778548200,10.14154833984375,0.8380794525146484,0.5878090858459473,-0.37908297777175903
1761330840797249000,10.1602490234375,0.38833045959472656,0.6708707809448242,-0.5456838607788086
1761330840815949800,10.17894970703125,-0.07372379302978516,0.985039234161377,-0.6236269474029541
1761330840834650600,10.197650634765624,-0.20547008514404297,1.17628812789917,-0.4577004015445709
1761330840853351700,10.2163515625,-0.25598716735839844,1.0491719245910645,-0.016638129949569702
1761330840872052700,10.235052734375,0.19736671447753906,0.8549289703369141,0.5436127781867981
1761330840890753500,10.25375341796875,1.3431921005249023,0.7834305763244629,0.9781401753425598
1761330840909454300,10.272454345703125,1.956857681274414,1.1501893997192383,0.7911691069602966
1761330840928155400,10.2911552734375,1.7604961395263672,0.898094654083252,0.5177019834518433
1761330840946856200,10.309856201171876,1.943552017211914,0.35601806640625,0.898479700088501
1761330840965557000,10.328556884765625,2.2293519973754883,-0.24281907081604004,1.5252909660339355
1761330840984258000,10.347258056640625,2.284024238586426,-0.8097062110900879,1.5665974617004395
1761330841002958800,10.365958740234374,2.019906997680664,-0.9621729850769043,1.1126537322998047
1761330841021660000,10.384659912109376,1.2655305862426758,-0.9885427951812744,0.7162058353424072
1761330841040360700,10.403360595703125,0.45470333099365234,-1.1121153831481934,0.323947012424469
1761330841059061500,10.4220615234375,0.23213768005371094,-1.2496349811553955,0.20667517185211182
1761330841077762300,10.44076220703125,0.18148517608642578,-1.5718750953674316,0.7073863744735718
1761330841096463400,10.45946337890625,-0.26200008392333984,-1.4054148197174072,0.9915215969085693
1761330841115164200,10.4781640625,-0.7189369201660156,-1.009246587753296,0.8763379454612732
1761330841133865200,10.496865234375,-0.9993896484375,-0.8024499416351318,0.5570448637008667
1761330841152566000,10.51556591796875,-1.0221061706542969,-0.6840071678161621,0.19283565878868103
1761330841171267000,10.53426708984375,-0.8943653106689453,-0.6401729583740234,0.03375422954559326
1761330841189968000,10.5529677734375,-0.95635986328125,-0.5367670059204102,0.12946778535842896
1761330841208668700,10.571668701171875,-1.150705337524414,-0.2715141773223877,0.19624140858650208
1761330841227369500,10.590369384765625,-1.3934526443481445,-0.0606989860534668,0.1751587986946106
1761330841246070500,10.609070556640624,-1.599472999572754,0.04611349105834961,0.18755891919136047
1761330841264771600,10.627771484375,-1.5750494003295898,0.08842229843139648,0.2406769096851349
1761330841283472400,10.646472412109375,-1.5594758987426758,-0.12723970413208008,0.48364806175231934
1761330841302173200,10.665173095703125,-1.3202056884765625,-0.21022391319274902,0.6827889084815979
1761330841320874000,10.6838740234375,-0.8088865280151367,-0.11642742156982422,0.7067108154296875
1761330841339575000,10.702574951171876,-0.6126718521118164,0.0889749526977539,0.6095353960990906
1761330841358275800,10.72127587890625,-0.36370849609375,0.45010900497436523,0.4607515335083008
1761330841376977000,10.739976806640625,-0.3646869659423828,0.649599552154541,0.6018685102462769
1761330841395677700,10.758677734375,-0.5817127227783203,0.9276256561279297,0.6935642957687378
1761330841414378500,10.77737841796875,-0.6303377151489258,1.0881848335266113,0.7001115083694458
1761330841433079600,10.79607958984375,-0.6706972122192383,1.2407760620117188,0.6534340977668762
1761330841451780400,10.8147802734375,-0.5276308059692383,1.3337125778198242,0.5368363261222839
1761330841470481200,10.833481201171875,-0.3783731460571289,1.149275779724121,0.35840752720832825
1761330841489182200,10.85218212890625,-0.26222991943359375,1.1319007873535156,0.03678199648857117
1761330841507883000,10.870883056640626,0.09191322326660156,1.1336264610290527,0.0320359468460083
1761330841526584000,10.889583984375,0.6322450637817383,0.798893928527832,0.6513118147850037
1761330841545284900,10.908284912109375,1.773484230041504,1.0556774139404297,0.04505951702594757
1761330841563985700,10.926985595703124,2.053481101989746,1.5270450115203857,-0.2667427659034729
1761330841582686700,10.945686767578126,1.7490034103393555,0.966681957244873,0.5206340551376343
1761330841601387500,10.964387451171875,1.7407512664794922,0.7640221118927002,0.8092646598815918
