time,seconds_elapsed,z,y,x
1761330830698755300,0.06175537109375,0.08689551800489426,-0.5210676789283752,-0.4053087830543518
1761330830717456400,0.080456298828125,-0.07131846249103546,-0.15760311484336853,-0.5586358308792114
1761330830736157200,0.0991572265625,-0.21120649576187134,0.14538581669330597,-0.6246092319488525
1761330830754858200,0.117858154296875,-0.281455934047699,0.2809978127479553,-0.5616901516914368
1761330830773559000,0.13655908203125,-0.228921577334404,0.21502439677715302,-0.3992001414299011
1761330830792260000,0.155260009765625,-0.12446369975805283,0.2315177470445633,-0.12614357471466064
1761330830810961200,0.173961181640625,-0.07620538026094437,0.16126830875873566,0.12431098520755768
1761330830829662000,0.192661865234375,-0.1207985132932663,0.06902772188186646,0.29535311460494995
1761330830848363000,0.211363037109375,-0.18310672044754028,0.03909534588456154,0.37843072414398193
1761330830867063800,0.230063720703125,-0.23014330863952637,0.020769402384757996,0.3533852696418762
1761330830885764900,0.248764892578125,-0.2533561587333679,0.012217295356094837,0.23365578055381775
1761330830904465700,0.267465576171875,-0.23747368156909943,0.1637117564678192,0.12553271651268005
1761330830923166700,0.286166748046875,-0.20509785413742065,0.34086254239082336,0.028405211865901947
1761330830941867500,0.304867431640625,-0.21120649576187134,0.45448338985443115,0.0021380267571657896
1761330830960568600,0.323568603515625,-0.2906189262866974,0.481361448764801,0.08460476994514465
1761330830979269600,0.34226953125,-0.34987279772758484,0.41783151030540466,0.22999058663845062
1761330830997970400,0.360970458984375,-0.34437501430511475,0.23396120965480804,0.33628106117248535
1761330831016671500,0.37967138671875,-0.33948808908462524,0.07269290834665298,0.4016436040401459
1761330831035372300,0.398372314453125,-0.35964664816856384,0.1233946830034256,0.4780016839504242
1761330831054073300,0.4170732421875,-0.3657552897930145,0.19914191961288452,0.4621191918849945
1761330831072774400,0.4357744140625,-0.3883572816848755,0.11484257876873016,0.3191768527030945
1761330831091475200,0.45447509765625,-0.4634936451911926,-0.08857539296150208,0.09804379940032959
1761330831110176300,0.47317626953125,-0.4610501825809479,-0.21197007596492767,-0.13225223124027252
1761330831128877000,0.491876953125,-0.4176788032054901,-0.21380266547203064,-0.32589635252952576
1761330831147578000,0.510578125,-0.38469210267066956,-0.12705987691879272,-0.37720900774002075
1761330831166279200,0.529279052734375,-0.3926333487033844,-0.08429934084415436,-0.2770271897315979
1761330831184980000,0.54797998046875,-0.4091266989707947,-0.08796452730894089,-0.10415244847536087
1761330831203681000,0.566680908203125,-0.4280634820461273,-0.10018182545900345,0.05528326332569122
1761330831222381800,0.5853818359375,-0.4335612654685974,-0.10201441496610641,0.14691297709941864
1761330831241083000,0.604082763671875,-0.40546149015426636,-0.18631376326084137,0.08949168771505356
1761330831259783700,0.62278369140625,-0.39568766951560974,-0.24556763470172882,-0.04673115536570549
1761330831278484700,0.641484619140625,-0.4042397737503052,-0.15760311484336853,-0.18173226714134216
1761330831297185500,0.660185546875,-0.3620901107788086,-0.1484401375055313,-0.3087921440601349
1761330831315886600,0.678886474609375,-0.27107125520706177,-0.21685700118541718,-0.35277441143989563
1761330831334587400,0.69758740234375,-0.18493930995464325,-0.1594357043504715,-0.33139413595199585
1761330831353288400,0.716288330078125,-0.057268574833869934,0.09346231073141098,-0.34177884459495544
1761330831381340000,0.74433984375,0.18280129134655,0.328645259141922,-0.3484983444213867
1761330831400041000,0.763041015625,0.21517711877822876,0.04764745384454727,-0.4834994673728943
1761330831418741800,0.78174169921875,0.036804601550102234,-0.30054548382759094,-0.6575959324836731
1761330831437442800,0.80044287109375,-0.14706569910049438,-0.27550002932548523,-0.6869174242019653
1761330831456143600,0.8191435546875,-0.1672242283821106,-0.01588248461484909,-0.5677987933158875
1761330831474844700,0.8378447265625,-0.016340631991624832,0.21135921776294708,-0.2977965772151947
1761330831493545500,0.85654541015625,0.23777911067008972,0.13500112295150757,0.0461202897131443
1761330831512246500,0.87524658203125,0.3568977415561676,-0.07330377399921417,0.36621344089508057
1761330831530947300,0.893947265625,0.32268932461738586,-0.1795942485332489,0.5360338687896729
1761330831549648400,0.9126484375,0.2390008419752121,-0.16859868168830872,0.5250383019447327
1761330831568349200,0.93134912109375,0.15958842635154724,-0.05558869615197182,0.4266890585422516
1761330831587050200,0.95005029296875,0.1614210158586502,0.08002328872680664,0.27947062253952026
1761330831605751000,0.9687509765625,0.27259841561317444,0.13561198115348816,0.1597411334514618
1761330831624452000,0.9874521484375,0.38072147965431213,0.18387030065059662,0.1646280586719513
1761330831643153200,1.006153076171875,0.43631017208099365,0.28405213356018066,0.26480987668037415
1761330831661854000,1.02485400390625,0.4185950756072998,0.2107483446598053,0.36254823207855225
1761330831680555000,1.043554931640625,0.35506516695022583,0.10567960888147354,0.4511236250400543
1761330831699256000,1.062256103515625,0.2945895493030548,-0.046425722539424896,0.4108065664768219
1761330831717956900,1.080956787109375,0.24633121490478516,-0.1692095398902893,0.21349723637104034
1761330831736658000,1.099657958984375,0.19074252247810364,-0.21502439677715302,-0.07299833744764328
1761330831755358700,1.118358642578125,0.16814053058624268,-0.14172062277793884,-0.35277441143989563
1761330831774059800,1.137059814453125,0.19379685819149017,-0.05192350596189499,-0.5775726437568665
1761330831792760600,1.155760498046875,0.2231183648109436,0.043371398001909256,-0.6716458201408386
1761330831811461600,1.174461669921875,0.2292270064353943,0.03481929376721382,-0.5910117030143738
1761330831830162400,1.193162353515625,0.26160284876823425,0.1594357043504715,-0.35155269503593445
1761330831848863500,1.211863525390625,0.3611738085746765,0.20891575515270233,-0.11881320178508759
1761330831867564300,1.230564208984375,0.4747946560382843,0.1441640853881836,0.0925460159778595
1761330831886265300,1.249265380859375,0.5493201613426208,-0.03848448023200035,0.2153298407793045
1761330831904966100,1.267966064453125,0.5487092733383179,-0.23335035145282745,0.24831652641296387
1761330831923667200,1.286667236328125,0.46624255180358887,-0.1905898153781891,0.2263254076242447
1761330831942368300,1.3053681640625,0.35445427894592285,-0.053145237267017365,0.11392628401517868
1761330831961069000,1.324069091796875,0.27198755741119385,-0.06230820715427399,-0.07360920310020447
1761330831979770000,1.34277001953125,0.23961171507835388,-0.21441353857517242,-0.24953825771808624
1761330831998471000,1.361470947265625,0.23533566296100616,-0.30604326725006104,-0.3698786199092865
1761330832017172000,1.380171875,0.20906847715377808,-0.16859868168830872,-0.3344484567642212
1761330832035872800,1.398872802734375,0.1101083755493164,0.05803215503692627,-0.1737910360097885
1761330832054573800,1.41757373046875,-0.0206166859716177,0.30970844626426697,0.0021380267571657896
1761330832073274600,1.436274658203125,-0.09269873052835464,0.46608981490135193,0.13530655205249786
1761330832091975700,1.4549755859375,-0.064598947763443,0.32620179653167725,0.18295399844646454
1761330832110676500,1.473676513671875,0.033139415085315704,0.0360410213470459,0.23548837006092072
1761330832129377500,1.49237744140625,0.04413498193025589,-0.1905898153781891,0.3136790692806244
1761330832148078300,1.511078369140625,-0.05177079141139984,-0.25961753726005554,0.33505934476852417
1761330832166779400,1.529779296875,-0.14889828860759735,-0.17104214429855347,0.31123560667037964
1761330832185480400,1.54848046875,-0.2386954128742218,0.02260199747979641,0.3130682110786438
1761330832204181200,1.56718115234375,-0.33826637268066406,0.24434591829776764,0.3289506733417511
1761330832222882300,1.58588232421875,-0.3877464234828949,0.4453204274177551,0.3179551064968109
1761330832241583000,1.6045830078125,-0.3718639314174652,0.5229002237319946,0.2733619809150696
1761330832260284200,1.6232841796875,-0.3510945439338684,0.5180133581161499,0.23976442217826843
1761330832278985000,1.64198486328125,-0.3364337682723999,0.5204567909240723,0.24953825771808624
1761330832297686000,1.66068603515625,-0.2961167097091675,0.5216785073280334,0.27030766010284424
1761330832316386800,1.67938671875,-0.2484692484140396,0.4917461574077606,0.27458372712135315
1761330832335087600,1.698087646484375,-0.19654574990272522,0.4789179861545563,0.28924447298049927
1761330832353788700,1.71678857421875,-0.14889828860759735,0.41294458508491516,0.2861901521682739
1761330832372489500,1.735489501953125,-0.07742711156606674,0.2761108875274658,0.25809037685394287
1761330832391190500,1.7541904296875,-0.012675444595515728,0.08979712426662445,0.18723005056381226
1761330832409891600,1.7728916015625,0.029474224895238876,-0.006719512399286032,0.06811141967773438
1761330832428592400,1.79159228515625,0.009926552884280682,-0.09712749719619751,-0.12370011955499649
1761330832447293400,1.81029345703125,-0.02367101050913334,-0.16004657745361328,-0.2464839369058609
1761330832465994200,1.828994140625,-0.05849030241370201,-0.11728604137897491,-0.24953825771808624
1761330832484695300,1.8476953125,-0.09086613357067108,-0.023823726922273636,-0.2257145345211029
1761330832503396000,1.86639599609375,-0.11163553595542908,0.05742128938436508,-0.1695149689912796
1761330832522097200,1.88509716796875,-0.11713331937789917,0.10079269111156464,-0.06933315098285675
1761330832540798000,1.9037978515625,-0.08842267841100693,0.031154103577136993,-0.0009162971982732415
1761330832559499000,1.9224990234375,-0.07559451460838318,-0.03848448023200035,-0.0027488914784044027
1761330832578199800,1.94119970703125,-0.11896591633558273,-0.053145237267017365,-0.07055488228797913
1761330832596900900,1.95990087890625,-0.18677189946174622,-0.039706211537122726,-0.13958260416984558
1761330832615601700,1.9786015625,-0.19471314549446106,-0.1288924664258957,-0.20677772164344788
1761330832634302700,1.997302734375,-0.12385283410549164,-0.36835145950317383,-0.2831358313560486
1761330832653003800,2.016003662109375,0.016035201027989388,-0.5229002237319946,-0.2886336147785187
1761330832671704600,2.03470458984375,0.1565341055393219,-0.3585776388645172,-0.23487751185894012
1761330832690405400,2.0534052734375,0.3452913165092468,0.15760311484336853,-0.15729768574237823
1761330832709106400,2.0721064453125,0.5096139311790466,0.5564978122711182,-0.13164135813713074
1761330832727807200,2.09080712890625,0.49312058091163635,0.4477638900279999,-0.2684750556945801
1761330832746508300,2.10950830078125,0.2842048406600952,0.09285144507884979,-0.4401280879974365
1761330832765209000,2.128208984375,0.1101083755493164,-0.3274235129356384,-0.5036579966545105
1761330832783910100,2.14691015625,0.042913250625133514,-0.6322450637817383,-0.3949240744113922
1761330832802611000,2.16561083984375,0.13759729266166687,-0.7452550530433655,-0.16340632736682892
1761330832821312000,2.18431201171875,0.39538222551345825,-0.5302306413650513,0.10842850059270859
1761330832840012800,2.2030126953125,0.4943423271179199,-0.13683371245861053,0.2929096519947052
1761330832858713900,2.2217138671875,0.3770562708377838,0.050090912729501724,0.3289506733417511
1761330832877415000,2.240414794921875,0.24083344638347626,0.18753549456596375,0.4425715208053589
1761330832896115700,2.25911572265625,0.21517711877822876,0.1081230640411377,0.527481734752655
1761330832914816800,2.277816650390625,0.2658788859844208,-0.13072505593299866,0.4944950342178345
1761330832933517600,2.296517578125,0.347123920917511,-0.2919933497905731,0.4315759539604187
1761330832952218400,2.31521826171875,0.43203410506248474,-0.20830489695072174,0.3741546869277954
1761330832970919400,2.33391943359375,0.5236638188362122,0.07147117704153061,0.28924447298049927
1761330832989620200,2.3526201171875,0.6458367705345154,0.35796675086021423,0.15485422313213348
1761330833008321300,2.3713212890625,0.7948877811431885,0.40744680166244507,-0.006414080038666725
1761330833027022000,2.39002197265625,0.930499792098999,0.33719736337661743,-0.1536324918270111
1761330833045723100,2.40872314453125,1.0233511924743652,0.32620179653167725,-0.2568686306476593
1761330833064424200,2.427424072265625,1.067333459854126,0.3689623177051544,-0.3094030022621155
1761330833083125000,2.446125,1.0526727437973022,0.36774060130119324,-0.33505934476852417
1761330833101826000,2.464825927734375,0.9854776263237,0.2009745091199875,-0.33567020297050476
1761330833120526800,2.48352685546875,0.9292780160903931,0.06414080411195755,-0.2922987937927246
1761330833139227600,2.5022275390625,0.9054543375968933,0.12644900381565094,-0.19211697578430176
1761330833157928700,2.5209287109375,0.9048434495925903,0.22968515753746033,-0.08826996386051178
1761330833176629500,2.53962939453125,0.9787580966949463,0.2315177470445633,-0.013744457624852657
1761330833195330600,2.55833056640625,1.0343468189239502,0.17348559200763702,0.07238747924566269
1761330833214031400,2.57703125,0.9873101711273193,0.2101374864578247,0.21166464686393738
1761330833232732400,2.595732421875,0.8523091077804565,0.2364046722650528,0.37110036611557007
1761330833251433200,2.61443310546875,0.7099775671958923,0.1588248461484909,0.42852163314819336
1761330833270134300,2.63313427734375,0.6226239204406738,-0.04153880476951599,0.32100942730903625
1761330833288835000,2.6518349609375,0.6348412036895752,-0.11911863088607788,0.1438586562871933
1761330833307536100,2.6705361328125,0.6782126426696777,-0.07757982611656189,-0.008246674202382565
1761330833326237000,2.68923681640625,0.6995928883552551,0.036651886999607086,-0.0308486707508564
1761330833344938000,2.70793798828125,0.6519454121589661,0.06536252796649933,0.07422006875276566
1761330833363638800,2.726638671875,0.5334376692771912,-0.13988803327083588,0.12370011955499649
1761330833382339800,2.74533984375,0.3520108163356781,-0.25473061203956604,0.10659590363502502
1761330833401040600,2.76404052734375,0.20479241013526917,-0.027488915249705315,0.12370011955499649
1761330833419741700,2.78274169921875,0.15531237423419952,0.24495677649974823,0.13652828335762024
1761330833438442500,2.8014423828125,0.1870773434638977,0.347582072019577,0.1340848207473755
1761330833457143600,2.8201435546875,0.23716825246810913,0.2419024556875229,0.11331541836261749
1761330833475844400,2.83884423828125,0.26099199056625366,0.09162971377372742,0.1230892539024353
1761330833494545400,2.85754541015625,0.2835939824581146,0.07391463965177536,0.17134757339954376
1761330833513246200,2.87624609375,0.27259841561317444,0.18142683804035187,0.2306014597415924
1761330833531947300,2.894947265625,0.22739441692829132,0.23457208275794983,0.2202167510986328
1761330833550648000,2.91364794921875,0.18524473905563354,0.2107483446598053,0.1029307171702385
1761330833569348900,2.932348876953125,0.18035782873630524,0.25473061203956604,-0.016798781231045723
1761330833588050000,2.9510498046875,0.17486004531383514,0.3903425931930542,-0.06200277432799339
1761330833606750700,2.969750732421875,0.21090106666088104,0.6151408553123474,0.048563748598098755
1761330833625451800,2.98845166015625,0.25549420714378357,0.6841685771942139,0.19883649051189423
1761330833644152800,3.00715283203125,0.3312414288520813,0.5473348498344421,0.3026835024356842
1761330833662853600,3.025853515625,0.4027126133441925,0.27977606654167175,0.33139413595199585
1761330833681554400,3.044554443359375,0.4692968726158142,0.0922405794262886,0.30573782324790955
1761330833700255500,3.06325537109375,0.5254964232444763,0.0873536616563797,0.24404047429561615
1761330833718956300,3.081956298828125,0.5456549525260925,0.19364413619041443,0.14141519367694855
1761330833737657000,3.100656982421875,0.5468766689300537,0.28466299176216125,0.00946840364485979
1761330833756358100,3.119358154296875,0.540768027305603,0.24923282861709595,-0.13225223124027252
1761330833775059200,3.13805908203125,0.5102248191833496,0.10018182545900345,-0.24465134739875793
1761330833793760000,3.156760009765625,0.47174033522605896,0.02932151034474373,-0.29413139820098877
1761330833812461000,3.1754609375,0.43569931387901306,0.09285144507884979,-0.28496840596199036
1761330833831161900,3.194161865234375,0.388662725687027,0.23273947834968567,-0.18417572975158691
1761330833849863000,3.21286279296875,0.3153589367866516,0.3090975880622864,-0.06322450190782547
1761330833868563700,3.231563720703125,0.2444986253976822,0.2883281707763672,-0.03329212963581085
1761330833887264500,3.250264404296875,0.20601414144039154,0.23945899307727814,-0.03695731982588768
1761330833905965600,3.268965576171875,0.19868376851081848,0.27488914132118225,0.021685699000954628
1761330833924666400,3.287666259765625,0.1925751268863678,0.3121519088745117,0.03390299528837204
1761330833943367400,3.306367431640625,0.22189663350582123,0.17043127119541168,0.019242240116000175
1761330833962068200,3.325068115234375,0.24694208800792694,-0.08918625861406326,0.04734202101826668
1761330833980769300,3.343769287109375,0.25060728192329407,-0.14721840620040894,0.1127045527100563
1761330833999470000,3.362469970703125,0.2341139316558838,0.011606430634856224,0.14080433547496796
1761330834018171100,3.381171142578125,0.2994764447212219,0.028099779039621353,0.11575887352228165
1761330834036872000,3.399871826171875,0.36544984579086304,-0.05436696484684944,-0.008857538923621178
1761330834055573000,3.418572998046875,0.3685041666030884,-0.0054977829568088055,-0.24892739951610565
1761330834074273800,3.437273681640625,0.3764454126358032,0.19792018830776215,-0.4358520209789276
1761330834092974600,3.455974609375,0.3831649422645569,0.5106829404830933,-0.39370235800743103
1761330834111675600,3.474675537109375,0.43692103028297424,0.7519745230674744,-0.14019346237182617
1761330834130376400,3.49337646484375,0.6091849207878113,0.6988292932510376,0.12431098520755768
1761330834149077500,3.512077392578125,0.8058833479881287,0.5125155448913574,0.35705047845840454
1761330834167778600,3.530778564453125,0.921336829662323,0.3915643095970154,0.5109884142875671
1761330834186479400,3.549479248046875,0.975703775882721,0.40378162264823914,0.5580250024795532
1761330834205180200,3.56818017578125,0.9592103958129883,0.4098902642726898,0.48044514656066895
1761330834223881200,3.586881103515625,0.8767436742782593,0.39339691400527954,0.3081812858581543
1761330834242582000,3.60558203125,0.7673988938331604,0.39828383922576904,0.09132428467273712
1761330834261283000,3.624282958984375,0.7276926636695862,0.5088503360748291,-0.07299833744764328
1761330834279983900,3.64298388671875,0.7667880058288574,0.6627882719039917,-0.1542433500289917
1761330834298685000,3.661684814453125,0.819322407245636,0.7226530313491821,-0.17745621502399445
1761330834317385700,3.6803857421875,0.873078465461731,0.6017017960548401,-0.16218459606170654
1761330834336086800,3.699086669921875,0.9072869420051575,0.36835145950317383,-0.12492185086011887
1761330834354787600,3.71778759765625,0.9262236952781677,0.14294235408306122,-0.10415244847536087
1761330834373488400,3.73648828125,0.9567669630050659,0.03481929376721382,-0.09560033679008484
1761330834392189400,3.755189453125,0.949436604976654,0.07880155742168427,-0.09071341902017593
1761330834410890200,3.77389013671875,0.9121738076210022,0.18387030065059662,-0.09498947113752365
1761330834429591300,3.79259130859375,0.8914044499397278,0.31459537148475647,-0.11575887352228165
1761330834448292000,3.8112919921875,0.901178240776062,0.40805765986442566,-0.11636973917484283
1761330834466993200,3.8299931640625,0.8987348079681396,0.49480047821998596,-0.03756818547844887
1761330834485694000,3.84869384765625,0.8761327862739563,0.5845975875854492,0.11636973917484283
1761330834504395000,3.86739501953125,0.8058833479881287,0.5754346251487732,0.23243404924869537
1761330834523095800,3.886095703125,0.7008146047592163,0.389120876789093,0.250149130821228
1761330834541796600,3.904796630859375,0.6397281289100647,0.17165300250053406,0.21838416159152985
1761330834560497700,3.92349755859375,0.5920807123184204,0.001221729558892548,0.10048725455999374
1761330834579198500,3.942198486328125,0.5267181396484375,-0.056810423731803894,-0.04306596517562866
1761330834597899500,3.9608994140625,0.4747946560382843,-0.04459312930703163,-0.210442915558815
1761330834616600300,3.979600341796875,0.43753188848495483,0.22663083672523499,-0.24526220560073853
1761330834635301400,3.99830126953125,0.42959064245224,0.3756818473339081,-0.14996729791164398
1761330834654002200,4.017002197265625,0.3819431960582733,0.017715077847242355,-0.18295399844646454
1761330834672703200,4.035703125,0.24144430458545685,-0.13011419773101807,-0.1805105358362198
1761330834691404000,4.054404052734375,0.08689551800489426,0.07513637095689774,-0.09926552325487137
1761330834710104800,4.073104736328125,0.03802633285522461,0.3481929302215576,0.07299833744764328
1761330834728806000,4.091805908203125,0.04718930274248123,0.3695732057094574,0.19639302790164948
1761330834747506700,4.110506591796875,0.07651081681251526,0.16187916696071625,0.1744018942117691
1761330834766207700,4.129207763671875,0.11682789027690887,-0.021380268037319183,0.07299833744764328
1761330834784908500,4.147908447265625,0.18035782873630524,0.026878049597144127,0.022296564653515816
1761330834803609600,4.166609619140625,0.23594652116298676,0.2706131041049957,0.028405211865901947
1761330834822310400,4.185310302734375,0.2383899837732315,0.46975502371788025,0.05222893878817558
1761330834841011500,4.204011474609375,0.19685117900371552,0.48563748598098755,0.06322450190782547
1761330834859712300,4.222712158203125,0.15347976982593536,0.3597993552684784,0.06933315098285675
1761330834878413000,4.2414130859375,0.10644318908452988,0.29565855860710144,0.15241076052188873
1761330834897114000,4.260114013671875,0.09117157012224197,0.27916520833969116,0.26480987668037415
1761330834915815000,4.27881494140625,0.1314886510372162,0.24740023910999298,0.34605491161346436
1761330834934516000,4.297515869140625,0.17608177661895752,0.19730933010578156,0.3637699782848358
1761330834953216800,4.316216796875,0.19685117900371552,0.1441640853881836,0.32039856910705566
1761330834971917800,4.334917724609375,0.1815795600414276,0.08979712426662445,0.231212317943573
1761330834990618600,4.35361865234375,0.1363755613565445,0.07330377399921417,0.14263692498207092
1761330835009319700,4.372319580078125,0.0642935186624527,0.0818558782339096,0.08338304609060287
1761330835028020500,4.3910205078125,-0.017562363296747208,0.12217295914888382,0.08826996386051178
1761330835046721300,4.40972119140625,-0.0798705667257309,0.0922405794262886,0.07055488228797913
1761330835065422300,4.42842236328125,-0.0951421856880188,0.07086031138896942,0.029626941308379173
1761330835084123100,4.447123046875,-0.0847574844956398,0.12583814561367035,-0.026572618633508682
1761330835102824200,4.46582421875,-0.05482511222362518,0.2003636509180069,-0.10476330667734146
1761330835121525000,4.48452490234375,-0.01695149764418602,0.205861434340477,-0.1542433500289917
1761330835140226000,4.50322607421875,0.012980876490473747,0.18387030065059662,-0.12980876863002777
1761330835158926800,4.5219267578125,0.03558287397027016,0.13683371245861053,-0.03634645417332649
1761330835177627600,4.540627685546875,-0.003512472379952669,0.08857539296150208,0.06750056147575378
1761330835196328700,4.55932861328125,-0.05543597787618637,0.017104214057326317,0.16523891687393188
1761330835215029500,4.578029541015625,-0.04016435891389847,-0.059864748269319534,0.23243404924869537
1761330835233730600,4.59673046875,0.09972367435693741,-0.16676609218120575,0.2110537886619568
1761330835252431400,4.615431396484375,0.32818710803985596,-0.23396120965480804,0.09621120244264603
1761330835271132400,4.63413232421875,0.5108356475830078,0.06108647957444191,0.0015271619195118546
1761330835289833200,4.652833251953125,0.5438223481178284,0.5766563415527344,0.048563748598098755
1761330835308534000,4.671533935546875,0.45646870136260986,0.6401863098144531,0.008246674202382565
1761330835327235000,4.690235107421875,0.2438877671957016,0.3897317349910736,-0.14141519367694855
1761330835345936000,4.708935791015625,0.042913250625133514,0.17776164412498474,-0.19089524447917938
1761330835364637000,4.727636962890625,-0.07864884287118912,0.011606430634856224,-0.12553271651268005
1761330835383337700,4.746337646484375,-0.060322895646095276,-0.08491020649671555,-0.03817904740571976
1761330835402038500,4.76503857421875,0.036804601550102234,-0.16676609218120575,0.025961752980947495
1761330835420739600,4.783739501953125,0.13820815086364746,-0.17592905461788177,0.09865466505289078
1761330835439440600,4.802440673828125,0.22739441692829132,-0.034208428114652634,0.19089524447917938
1761330835458141400,4.821141357421875,0.2646571695804596,0.0977383628487587,0.2965748608112335
1761330835476842200,4.83984228515625,0.25060728192329407,0.13561198115348816,0.33505934476852417
1761330835495543300,4.858543212890625,0.22678354382514954,0.002443459117785096,0.27030766010284424
1761330835514244000,4.877244140625,0.26282456517219543,-0.08429934084415436,0.20861032605171204
1761330835532945000,4.89594482421875,0.32757624983787537,-0.008552107028663158,0.18417572975158691
1761330835551646000,4.91464599609375,0.3966039717197418,0.10384701192378998,0.21288637816905975
1761330835570347000,4.933346923828125,0.4338667094707489,0.13072505593299866,0.21410810947418213
1761330835589047800,4.9520478515625,0.45097091794013977,0.053756099194288254,0.15057817101478577
1761330835607748600,4.97074853515625,0.39599308371543884,-0.08552107214927673,-0.0027488914784044027
1761330835626449700,4.98944970703125,0.32757624983787537,-0.08613193035125732,-0.17195843160152435
1761330835645150500,5.008150390625,0.264046311378479,0.017104214057326317,-0.3289506733417511
1761330835663851300,5.026851318359375,0.233503058552742,0.1288924664258957,-0.4260781705379486
1761330835682552300,5.04555224609375,0.21456626057624817,0.15699224174022675,-0.47433650493621826
1761330835701253000,5.064253173828125,0.24633121490478516,0.13133592903614044,-0.4712821841239929
1761330835719954200,5.0829541015625,0.305585116147995,0.10201441496610641,-0.4053087830543518
1761330835738655000,5.101655029296875,0.3611738085746765,0.09346231073141098,-0.31490078568458557
1761330835757356000,5.12035595703125,0.407599538564682,0.08857539296150208,-0.24342961609363556
1761330835776056800,5.139056884765625,0.40637779235839844,0.14110976457595825,-0.12064579129219055
1761330835794757600,5.157757568359375,0.32940882444381714,0.22296564280986786,0.016798781231045723
1761330835813458700,5.176458740234375,0.21456626057624817,0.3445277214050293,0.09437860548496246
1761330835832159500,5.195159423828125,0.11988221108913422,0.43432486057281494,0.0925460159778595
1761330835850860500,5.213860595703125,0.0746782198548317,0.27000224590301514,-0.038789913058280945
1761330835869561300,5.232561279296875,0.06856957077980042,-0.02932151034474373,-0.28435754776000977
1761330835888262400,5.251262451171875,0.14004075527191162,-0.09529490768909454,-0.3643808364868164
1761330835906963200,5.269963134765625,0.25793763995170593,0.13255766034126282,-0.0668896958231926
1761330835925664000,5.2886640625,0.3098611533641815,-0.04459312930703163,0.2788597643375397
1761330835944365000,5.307364990234375,0.3013090491294861,-0.6035344004631042,0.3136790692806244
1761330835963065900,5.32606591796875,0.1974620372056961,-0.749531090259552,0.25931209325790405
1761330835981766700,5.3447666015625,0.06246092543005943,-0.4673115611076355,0.3442223072052002
1761330836000467700,5.3634677734375,-0.11224640160799026,-0.1288924664258957,0.4883863925933838
1761330836019168800,5.382168701171875,-0.24541492760181427,-0.0665842592716217,0.4828886091709137
1761330836037869600,5.40086962890625,-0.31261005997657776,-0.2315177470445633,0.3533852696418762
1761330836056570400,5.4195703125,-0.34926193952560425,-0.32559093832969666,0.19639302790164948
1761330836075271400,5.438271484375,-0.38408124446868896,-0.235793799161911,0.057726722210645676
1761330836093972200,5.45697216796875,-0.4689914286136627,-0.039706211537122726,-0.051618073135614395
1761330836112673000,5.475673095703125,-0.5514581799507141,0.18387030065059662,-0.13652828335762024
1761330836131374000,5.4943740234375,-0.586888313293457,0.2834412455558777,-0.22388194501399994
1761330836150075000,5.513074951171875,-0.559399425983429,0.2828303873538971,-0.24281874299049377
1761330836168776000,5.53177587890625,-0.48365217447280884,0.17348559200763702,-0.1847866028547287
1761330836187476700,5.550476806640625,-0.393244206905365,0.06230820715427399,-0.010079269297420979
1761330836206177800,5.569177734375,-0.3523162603378296,-0.017104214057326317,0.14630211889743805
1761330836224878600,5.587878662109375,-0.3321577310562134,-0.056199558079242706,0.20861032605171204
1761330836243579400,5.606579345703125,-0.3474293351173401,-0.07086031138896942,0.18661919236183167
1761330836262280400,5.625280517578125,-0.3724747896194458,-0.10506874322891235,0.07422006875276566
1761330836280981200,5.643981201171875,-0.37919431924819946,-0.1441640853881836,-0.09682206809520721
1761330836299682300,5.662682373046875,-0.34865108132362366,-0.1545487940311432,-0.2831358313560486
1761330836318383000,5.681383056640625,-0.29672756791114807,-0.10384701192378998,-0.40347617864608765
1761330836337084200,5.700084228515625,-0.2704603672027588,-0.010384701192378998,-0.3802633285522461
1761330836355785000,5.718784912109375,-0.21670427918434143,0.07024945318698883,-0.21227550506591797
1761330836374485800,5.73748583984375,-0.17821979522705078,0.050090912729501724,0.008246674202382565
1761330836393186800,5.756186767578125,-0.15500694513320923,-0.05070177838206291,0.14691297709941864
1761330836411887600,5.7748876953125,-0.12202023714780807,-0.10140355676412582,0.18234314024448395
1761330836430588700,5.793588623046875,-0.08414662629365921,-0.028099779039621353,0.1902843713760376
1761330836449289500,5.81228955078125,-0.08597921580076218,0.07269290834665298,0.2098320573568344
1761330836467990500,5.830990478515625,-0.1104138121008873,0.021380268037319183,0.2098320573568344
1761330836486691300,5.84969140625,-0.1055268943309784,-0.16798780858516693,0.12736530601978302
1761330836505392000,5.86839208984375,-0.07498364895582199,-0.3958403766155243,-0.0021380267571657896
1761330836524093200,5.88709326171875,-0.03222311660647392,-0.555276095867157,-0.1792888194322586
1761330836542794000,5.9057939453125,0.017256930470466614,-0.3390299379825592,-0.2776380479335785
1761330836561494800,5.924494873046875,0.08872810751199722,0.14477495849132538,-0.21716243028640747
1761330836580195800,5.94319580078125,0.15836669504642487,0.26022839546203613,-0.1078176349401474
1761330836598896600,5.961896728515625,0.13454297184944153,-0.05803215503692627,0.023518294095993042
1761330836617597700,5.98059765625,0.09666935354471207,-0.4068359434604645,0.24342961609363556
1761330836636298500,5.999298583984375,0.0899498388171196,-0.5577195286750793,0.39248061180114746
1761330836654999300,6.017999267578125,0.1259908676147461,-0.5125155448913574,0.34055712819099426
1761330836673700400,6.036700439453125,0.1925751268863678,-0.27366742491722107,0.1640172004699707
1761330836692401200,6.055401123046875,0.2897026240825653,0.007941242307424545,-0.02412915788590908
1761330836711102200,6.074102294921875,0.35323256254196167,0.12461641430854797,-0.09987638890743256
1761330836729803000,6.092802978515625,0.35384342074394226,0.0873536616563797,-0.03695731982588768
1761330836748504000,6.111504150390625,0.35384342074394226,-0.06780599057674408,0.03451386094093323
1761330836767204900,6.130204833984375,0.35445427894592285,-0.18387030065059662,0.04245510324835777
1761330836785905700,6.14890576171875,0.3452913165092468,-0.21502439677715302,-0.022907428443431854
1761330836804606700,6.167606689453125,0.3678933084011078,-0.1233946830034256,-0.11942406743764877
1761330836823307500,6.1863076171875,0.40088000893592834,0.04153880476951599,-0.15790854394435883
1761330836842008300,6.20500830078125,0.42103853821754456,0.10445787757635117,-0.10354158282279968
1761330836860709400,6.22370947265625,0.4589121639728546,0.037262752652168274,0.015577051788568497
1761330836879410400,6.242410400390625,0.48273590207099915,-0.06352993845939636,0.11636973917484283
1761330836898111200,6.261111328125,0.4839576184749603,-0.10751219838857651,0.10965022444725037
1761330836916812000,6.27981201171875,0.47357290983200073,-0.06475166976451874,-0.022907428443431854
1761330836935513000,6.29851318359375,0.48762279748916626,0.04581485688686371,-0.19944734871387482
1761330836954214000,6.3172138671875,0.502894401550293,0.18631376326084137,-0.3179551064968109
1761330836972914700,6.335914794921875,0.4912880063056946,0.2577849328517914,-0.34238970279693604
1761330836991615700,6.35461572265625,0.4607447683811188,0.21502439677715302,-0.2831358313560486
1761330837010316500,6.373316650390625,0.42103853821754456,0.07513637095689774,-0.17256930470466614
1761330837029017600,6.392017578125,0.3770562708377838,0.006108647678047419,-0.04550942778587341
1761330837047718400,6.410718505859375,0.35934120416641235,0.05192350596189499,0.04428769648075104
1761330837066419200,6.429419189453125,0.3764454126358032,0.13988803327083588,0.07605266571044922
1761330837085120300,6.448120361328125,0.36911505460739136,0.2162461280822754,0.11392628401517868
1761330837103821000,6.466821044921875,0.3306305706501007,0.19730933010578156,0.1383608728647232
1761330837122522000,6.485522216796875,0.2835939824581146,0.2003636509180069,0.08521563559770584
1761330837141223000,6.504222900390625,0.2390008419752121,0.16249002516269684,-0.03940077871084213
1761330837159924000,6.522924072265625,0.20112723112106323,0.08674279600381851,-0.20189081132411957
1761330837178624800,6.541624755859375,0.14920371770858765,0.0030543238390237093,-0.37659814953804016
1761330837197325600,6.56032568359375,0.11804962158203125,0.09407317638397217,-0.3283398151397705
1761330837216026600,6.579026611328125,0.14004075527191162,0.3652971386909485,0.05283980444073677
1761330837234727400,6.5977275390625,0.14431680738925934,0.164322629570961,0.3631591200828552
1761330837253428200,6.61642822265625,0.19135339558124542,-0.40805765986442566,0.3533852696418762
1761330837272129300,6.63512939453125,0.16325360536575317,-0.5186241865158081,0.21410810947418213
1761330837290830000,6.653830078125,0.0435241162776947,-0.19242240488529205,0.14019346237182617
1761330837309531100,6.67253125,-0.1104138121008873,0.25900667905807495,0.24220788478851318
1761330837328232000,6.69123193359375,-0.24236060678958893,0.42882707715034485,0.3436114490032196
1761330837346933000,6.70993310546875,-0.2643517255783081,0.22907429933547974,0.3484983444213867
1761330837365633800,6.7286337890625,-0.22525638341903687,-0.10934479534626007,0.27091851830482483
1761330837384334600,6.74733447265625,-0.15317434072494507,-0.22357651591300964,0.17684535682201385
1761330837403035600,6.76603564453125,-0.125074565410614,-0.17165300250053406,0.08155044913291931
1761330837421736400,6.784736328125,-0.145843967795372,-0.09040798991918564,0.007635809946805239
1761330837440437500,6.8034375,-0.24113887548446655,-0.01588248461484909,-0.032070402055978775
1761330837459138300,6.82213818359375,-0.383470356464386,0.08796452730894089,-0.07849612087011337
1761330837477839000,6.840839111328125,-0.47754353284835815,0.22479823231697083,-0.1182023361325264
1761330837496540200,6.8595400390625,-0.4909825623035431,0.32009315490722656,-0.14080433547496796
1761330837515241000,6.878240966796875,-0.46166107058525085,0.3860665261745453,-0.19822561740875244
1761330837533941800,6.896941650390625,-0.36453354358673096,0.38179048895835876,-0.2525925934314728
1761330837552642800,6.915642822265625,-0.20509785413742065,0.3066541254520416,-0.22999058663845062
1761330837571344000,6.93434375,-0.228921577334404,0.21930044889450073,-0.2153298407793045
1761330837590044700,6.953044677734375,-0.34376415610313416,0.12767073512077332,-0.21777328848838806
1761330837608745500,6.971745361328125,-0.3718639314174652,0.1496618688106537,-0.2672533392906189
1761330837627446500,6.990446533203125,-0.24174973368644714,0.17165300250053406,-0.24892739951610565
1761330837646147300,7.009147216796875,-0.10369429737329483,0.1490510106086731,-0.18356487154960632
1761330837664848100,7.02784814453125,-0.13423752784729004,0.19730933010578156,-0.15302163362503052
1761330837683549200,7.046549072265625,-0.23625195026397705,0.2510654330253601,-0.1701258420944214
1761330837702250000,7.06525,-0.25763222575187683,0.328645259141922,-0.189673513174057
1761330837720951000,7.083950927734375,-0.15317434072494507,0.5613847374916077,-0.22449280321598053
1761330837739651800,7.10265185546875,0.06001746281981468,0.9187406301498413,-0.30085089802742004
1761330837758352600,7.1213525390625,0.30741769075393677,1.0488548278808594,-0.38270679116249084
1761330837777053700,7.1400537109375,0.4955640435218811,0.925460159778595,-0.33017241954803467
1761330837795754500,7.15875439453125,0.560315728187561,0.6249146461486816,-0.23426663875579834
1761330837814455600,7.17745556640625,0.6097957491874695,-0.040317077189683914,-0.19394956529140472
1761330837833156400,7.19615625,0.7252492308616638,-0.46059203147888184,-0.13041962683200836
1761330837851857200,7.214857177734375,0.8028290271759033,-0.4508182108402252,0.07360920310020447
1761330837870558200,7.23355810546875,0.7399099469184875,-0.1380554437637329,0.23732095956802368
1761330837889259000,7.252259033203125,0.5242747068405151,0.09834922850131989,0.15790854394435883
1761330837907959800,7.270959716796875,0.29275694489479065,0.15210533142089844,0.013133592903614044
1761330837926660900,7.289660888671875,0.1718057245016098,0.049480047076940536,-0.044898562133312225
1761330837945361700,7.308361572265625,0.13393209874629974,-0.15088360011577606,-0.06383536756038666
1761330837964062700,7.327062744140625,0.20418155193328857,-0.22968515753746033,-0.07422006875276566
1761330837982763500,7.345763427734375,0.3428478538990021,-0.3481929302215576,-0.11148282140493393
1761330838001464600,7.364464599609375,0.45158177614212036,-0.34086254239082336,-0.13652828335762024
1761330838020165400,7.383165283203125,0.513279139995575,-0.11362084746360779,-0.1029307171702385
1761330838048216600,7.411216552734375,0.44180795550346375,0.2822195291519165,-0.029016077518463135
1761330838066917600,7.429917724609375,0.40637779235839844,0.2626718580722809,0.04001164436340332
1761330838085618400,7.448618408203125,0.4082103967666626,0.14294235408306122,0.14080433547496796
1761330838104319500,7.467319580078125,0.42531460523605347,0.06780599057674408,0.3026835024356842
1761330838123020300,7.486020263671875,0.4741837978363037,0.02260199747979641,0.4169152081012726
1761330838141721300,7.504721435546875,0.5163334608078003,-0.002443459117785096,0.36621344089508057
1761330838160422100,7.523422119140625,0.5474875569343567,-0.06230820715427399,0.19822561740875244
1761330838179123000,7.542123046875,0.5719221234321594,-0.15088360011577606,-0.005192350596189499
1761330838197824000,7.560823974609375,0.5707004070281982,-0.16126830875873566,-0.19089524447917938
1761330838216524800,7.57952490234375,0.5578722357749939,-0.15699224174022675,-0.33567020297050476
1761330838235225900,7.598225830078125,0.5206094980239868,-0.143553227186203,-0.4309650957584381
1761330838253926700,7.6169267578125,0.3819431960582733,-0.01282816007733345,-0.5256491303443909
1761330838272627500,7.63562744140625,0.26648977398872375,0.10018182545900345,-0.5146535634994507
1761330838291328300,7.654328369140625,0.2182314395904541,0.14172062277793884,-0.4376846253871918
1761330838310029300,7.673029296875,0.1925751268863678,0.10323614627122879,-0.33017241954803467
1761330838328730000,7.691730224609375,0.17974695563316345,-0.01282816007733345,-0.1542433500289917
1761330838347431200,7.71043115234375,0.19929464161396027,-0.1331685185432434,0.04978547990322113
1761330838366132000,7.729132080078125,0.18341214954853058,-0.1533270627260208,0.20799945294857025
1761330838384833000,7.7478330078125,0.1461493968963623,-0.185092031955719,0.24953825771808624
1761330838403533800,7.766533935546875,0.10216713696718216,-0.26450446248054504,0.13652828335762024
1761330838422235000,7.78523486328125,0.012980876490473747,-0.26389357447624207,-0.0027488914784044027
1761330838440935700,7.803935791015625,-0.06643154472112656,-0.05742128938436508,-0.03695731982588768
1761330838459636500,7.822636474609375,-0.16905683279037476,0.047036588191986084,0.06200277432799339
1761330838478337300,7.841337158203125,-0.18066325783729553,-0.4221075773239136,0.015577051788568497
1761330838497038300,7.860038330078125,-0.20082180202007294,-0.7867938280105591,-0.11514800786972046
1761330838515739400,7.878739501953125,-0.25152358412742615,-0.6994401812553406,-0.20311254262924194
1761330838534440200,7.897440185546875,-0.2857320010662079,-0.20280711352825165,-0.029626941308379173
1761330838553141000,7.91614111328125,-0.33887723088264465,0.3066541254520416,0.324063777923584
1761330838571842000,7.934842041015625,-0.30833399295806885,0.3292561173439026,0.5653553605079651
1761330838590542800,7.95354296875,-0.22036947309970856,-0.0054977829568088055,0.6148353815078735
1761330838609243600,7.97224365234375,-0.16355904936790466,-0.2254091054201126,0.5568032264709473
1761330838627944700,7.99094482421875,-0.15561780333518982,-0.06352993845939636,0.4926624298095703
1761330838646645500,8.0096455078125,-0.2124282270669937,0.24923282861709595,0.43890634179115295
1761330838665346600,8.0283466796875,-0.31261005997657776,0.4062250852584839,0.3448331654071808
1761330838684047400,8.04704736328125,-0.41218101978302,0.39339691400527954,0.22388194501399994
1761330838702748200,8.065748046875,-0.49342602491378784,0.2993237376213074,0.10231985151767731
1761330838721449200,8.08444921875,-0.5154171586036682,0.20280711352825165,-0.016187917441129684
1761330838740150000,8.10314990234375,-0.43050694465637207,0.15149445831775665,-0.13652828335762024
1761330838758851000,8.12185107421875,-0.28328853845596313,0.12461641430854797,-0.23793183267116547
1761330838777552000,8.1405517578125,-0.14217877388000488,0.10445787757635117,-0.2922987937927246
1761330838796253000,8.1592529296875,-0.05787943676114082,0.08063415437936783,-0.291687935590744
1761330838814953700,8.17795361328125,-0.0694858655333519,0.043982263654470444,-0.24831652641296387
1761330838833654500,8.196654541015626,-0.11957678198814392,0.036651886999607086,-0.1847866028547287
1761330838852355300,8.215355224609375,-0.13423752784729004,0.047036588191986084,-0.10659590363502502
1761330838871056400,8.234056396484375,-0.09941824525594711,0.0824667438864708,0.006414080038666725
1761330838889757200,8.252757080078124,-0.01695149764418602,0.11423171311616898,0.10659590363502502
1761330838908458200,8.271458251953124,0.02764163166284561,0.1594357043504715,0.1798996776342392
1761330838927159000,8.290158935546875,0.039858926087617874,0.23762640357017517,0.24770566821098328
1761330838945860000,8.308860107421875,-0.0102319847792387,0.3243691921234131,0.31673339009284973
1761330838964561000,8.327560791015625,-0.10735948383808136,0.29626941680908203,0.3656025826931
1761330838983261700,8.34626171875,-0.1409570425748825,0.06963858753442764,0.36254823207855225
1761330839001962800,8.364962646484376,-0.07254019379615784,-0.2205221801996231,0.25870123505592346
1761330839020663600,8.38366357421875,0.04535670951008797,-0.3836230933666229,0.0821613147854805
1761330839039364600,8.402364501953125,0.18402300775051117,-0.2675587832927704,-0.10476330667734146
1761330839058065400,8.4210654296875,0.33429574966430664,0.23884813487529755,-0.14996729791164398
1761330839076766200,8.43976611328125,0.40149086713790894,0.5259546041488647,-0.06811141967773438
1761330839095467300,8.45846728515625,0.37461283802986145,0.40805765986442566,-0.021685699000954628
1761330839114168000,8.47716796875,0.22250749170780182,0.13500112295150757,-0.06627883017063141
1761330839132868900,8.495868896484374,0.07406735420227051,-0.05070177838206291,-0.16829325258731842
1761330839151570000,8.51456982421875,-0.028557928279042244,-0.04581485688686371,-0.23854269087314606
1761330839170270700,8.533270751953125,-0.014508038759231567,0.05253437161445618,-0.2519817352294922
1761330839188971800,8.5519716796875,0.15531237423419952,0.06963858753442764,-0.2153298407793045
1761330839207672600,8.570672607421875,0.3917170464992523,0.10384701192378998,-0.0772743970155716
1761330839226373400,8.589373291015624,0.5242747068405151,0.2003636509180069,0.1444695144891739
1761330839245074400,8.608074462890626,0.5658134818077087,0.2809978127479553,0.36132651567459106
1761330839263775200,8.626775146484375,0.5383245944976807,0.19120067358016968,0.4523453712463379
1761330839282476000,8.64547607421875,0.4815141558647156,0.04825831577181816,0.4199695289134979
1761330839301177000,8.664177001953124,0.4277580678462982,0.004886918235570192,0.3136790692806244
1761330839319878100,8.682878173828126,0.3813323378562927,0.07452550530433655,0.17867794632911682
1761330839338579000,8.701578857421875,0.37522369623184204,0.15821397304534912,0.07788526266813278
1761330839357279700,8.72027978515625,0.38927358388900757,0.13744457066059113,0.0308486707508564
1761330839375980500,8.73898046875,0.38927358388900757,0.006719512399286032,-0.0027488914784044027
1761330839394681600,8.757681640625,0.34345871210098267,-0.14660754799842834,-0.07483093440532684
1761330839413382400,8.77638232421875,0.2994764447212219,-0.22174391150474548,-0.1701258420944214
1761330839432083500,8.79508349609375,0.25793763995170593,-0.1893680840730667,-0.2721402645111084
1761330839450784300,8.8137841796875,0.20662501454353333,-0.0977383628487587,-0.36743515729904175
1761330839469485300,8.8324853515625,0.13698641955852509,0.010384701192378998,-0.4211912751197815
1761330839488186000,8.85118603515625,0.0844520553946495,0.07819069176912308,-0.40836310386657715
1761330839506887000,8.869886962890625,0.05635227635502815,0.08002328872680664,-0.34055712819099426
1761330839525588000,8.888587890625,0.036804601550102234,0.05436696484684944,-0.21838416159152985
1761330839544288800,8.907288818359374,0.011148282326757908,0.03909534588456154,-0.03329212963581085
1761330839562989600,8.925989501953126,0.0019853105768561363,-0.05803215503692627,0.14691297709941864
1761330839581690600,8.944690673828125,-0.003512472379952669,-0.15027274191379547,0.26358816027641296
1761330839600391400,8.963391357421875,-0.05787943676114082,-0.21868959069252014,0.29596397280693054
1761330839619092500,8.982092529296875,-0.13240493834018707,-0.28038692474365234,0.24770566821098328
1761330839637793300,9.000793212890626,-0.22953243553638458,-0.3127627670764923,0.1182023361325264
1761330839656494000,9.019494140625,-0.32788166403770447,-0.1802051067352295,-0.010690134018659592
1761330839675195100,9.038195068359375,-0.41157013177871704,0.1594357043504715,0.03329212963581085
1761330839693896000,9.05689599609375,-0.40546149015426636,-0.02871064469218254,-0.0204639695584774
1761330839712597000,9.075596923828124,-0.43172869086265564,-0.38301220536231995,-0.22937972843647003
1761330839731297800,9.0942978515625,-0.45310893654823303,-0.49663305282592773,-0.3228420317173004
1761330839749998600,9.11299853515625,-0.4799869954586029,-0.3909534513950348,-0.22937972843647003
1761330839768699600,9.13169970703125,-0.5025889873504639,-0.05558869615197182,0.06933315098285675
1761330839787400400,9.150400390625,-0.5251910090446472,0.13988803327083588,0.3906480371952057
1761330839806101200,9.169101318359376,-0.47204574942588806,-0.08002328872680664,0.5128209590911865
1761330839824802300,9.18780224609375,-0.3773617148399353,-0.39400777220726013,0.44379326701164246
1761330839843503000,9.206503173828125,-0.2906189262866974,-0.42332929372787476,0.3094030022621155
1761330839862204200,9.2252041015625,-0.29733842611312866,-0.2162461280822754,0.19089524447917938
1761330839880905000,9.243905029296876,-0.3871355652809143,0.024434590712189674,0.10170898586511612
1761330839899605800,9.262605712890625,-0.5056433081626892,0.12644900381565094,0.032070402055978775
1761330839918306800,9.281306884765625,-0.5789470672607422,0.0873536616563797,-0.0021380267571657896
1761330839937007600,9.300007568359375,-0.5606211423873901,0.0360410213470459,-0.0027488914784044027
1761330839955708700,9.318708740234374,-0.4744892120361328,-0.03237583488225937,-0.025350889191031456
1761330839974409500,9.337409423828126,-0.34865108132362366,-0.05558869615197182,-0.0461202897131443
1761330839993110300,9.3561103515625,-0.24724751710891724,-0.09651663154363632,-0.07910698652267456
1761330840011811300,9.374811279296875,-0.20693044364452362,-0.14599667489528656,-0.13958260416984558
1761330840030512000,9.39351220703125,-0.23686282336711884,-0.14538581669330597,-0.24281874299049377
1761330840049213000,9.412212890625,-0.25641047954559326,-0.13500112295150757,-0.3759872615337372
1761330840067914000,9.4309140625,-0.23441936075687408,-0.07757982611656189,-0.47494736313819885
1761330840086614800,9.44961474609375,-0.17394374310970306,0.08613193035125732,-0.5048797130584717
1761330840105315800,9.46831591796875,-0.04932733252644539,0.30970844626426697,-0.4657844007015228
1761330840124016600,9.4870166015625,0.05513054504990578,0.37262752652168274,-0.3900371491909027
1761330840142717400,9.505717529296875,0.09178243577480316,0.24373504519462585,-0.24465134739875793
1761330840161418500,9.52441845703125,0.08384118974208832,0.14110976457595825,-0.03390299528837204
1761330840180119300,9.543119384765625,0.004428769461810589,0.18631376326084137,0.1798996776342392
1761330840198820000,9.561820068359374,-0.08170316368341446,0.2730565667152405,0.4053087830543518
1761330840217521200,9.580521240234376,-0.1153007298707962,0.20341797173023224,0.467006117105484
1761330840236222200,9.59922216796875,-0.06704241037368774,-0.021380268037319183,0.3539961278438568
1761330840254923000,9.617923095703125,0.012980876490473747,-0.19120067358016968,0.17562362551689148
1761330840273623800,9.636623779296874,0.11621702462434769,0.1490510106086731,0.13164135813713074
1761330840292324600,9.65532470703125,0.3165806829929352,0.7935133576393127,0.31184646487236023
1761330840311025700,9.674025634765625,0.5462658405303955,0.6921098232269287,0.5128209590911865
1761330840329726500,9.6927265625,0.6281217336654663,0.007330377586185932,0.5604684352874756
1761330840348427500,9.711427490234374,0.46196648478507996,-0.3744601011276245,0.5965094566345215
1761330840367128300,9.73012841796875,0.2793179154396057,-0.20952661335468292,0.5861247777938843
1761330840385829400,9.748829345703125,0.2133445292711258,0.08429934084415436,0.3808741867542267
1761330840404530200,9.7675302734375,0.24510949850082397,0.21319180727005005,0.09987638890743256
1761330840423231000,9.78623095703125,0.35873034596443176,0.17653992772102356,-0.10965022444725037
1761330840441931800,9.804931884765624,0.4399753510951996,0.10323614627122879,-0.18356487154960632
1761330840460632800,9.8236328125,0.40698865056037903,0.11362084746360779,-0.17256930470466614
1761330840479333600,9.842333740234375,0.3043633699417114,0.010995565913617611,-0.18845178186893463
1761330840498034700,9.86103466796875,0.212733656167984,-0.12583814561367035,-0.19333870708942413
1761330840516735500,9.879735595703124,0.14981459081172943,-0.15577052533626556,-0.16523891687393188
1761330840535436300,9.898436279296876,0.11255183815956116,0.01893680728971958,-0.11026109009981155
1761330840554137300,9.917137451171875,0.08628465235233307,0.21502439677715302,-0.04306596517562866
1761330840572838100,9.935838134765625,0.028863361105322838,0.30604326725006104,0.06566796451807022
1761330840591539000,9.9545390625,-0.04505127668380737,0.16004657745361328,0.15485422313213348
1761330840610240000,9.973239990234376,-0.06215549260377884,-0.10690133273601532,0.11881320178508759
1761330840628941000,9.991941162109375,0.027030766010284424,-0.3585776388645172,-0.035735588520765305
1761330840647641900,10.010641845703125,0.17852523922920227,-0.42882707715034485,-0.21166464686393738
1761330840666342700,10.0293427734375,0.32330018281936646,-0.3335321843624115,-0.36254823207855225
1761330840685043700,10.048043701171874,0.4137081801891327,-0.2364046722650528,-0.4627300798892975
1761330840703744500,10.06674462890625,0.4747946560382843,-0.2205221801996231,-0.45967575907707214
1761330840722445300,10.0854453125,0.4912880063056946,-0.2974911332130432,-0.3741546869277954
1761330840741146400,10.104146484375,0.43081238865852356,-0.38667741417884827,-0.2006690800189972
1761330840759847200,10.12284716796875,0.3672824501991272,-0.31459537148475647,0.0021380267571657896
1761330840778548200,10.14154833984375,0.378888875246048,-0.0769689604640007,0.2776380479335785
1761330840797249000,10.1602490234375,0.39049530029296875,0.0409279391169548,0.43951719999313354
1761330840815949800,10.17894970703125,0.38560840487480164,-0.021380268037319183,0.4462367296218872
1761330840834650600,10.197650634765624,0.3404043912887573,-0.14233149588108063,0.3326158821582794
1761330840853351700,10.2163515625,0.2787070572376251,-0.31031930446624756,0.1444695144891739
1761330840872052700,10.235052734375,0.19868376851081848,-0.4838049113750458,-0.08277218043804169
1761330840890753500,10.25375341796875,0.08811724185943604,-0.31093016266822815,-0.1701258420944214
1761330840909454300,10.272454345703125,-0.0206166859716177,0.04825831577181816,-0.08888082206249237
1761330840928155400,10.2911552734375,-0.07803797721862793,-0.2370155304670334,-0.17745621502399445
1761330840946856200,10.309856201171876,-0.0896444097161293,-0.4404335021972656,-0.27519458532333374
1761330840965557000,10.328556884765625,-0.14950916171073914,-0.24006985127925873,-0.2874118685722351
1761330840984258000,10.347258056640625,-0.17333288490772247,0.09896009415388107,-0.1902843713760376
1761330841002958800,10.365958740234374,-0.1769980639219284,0.33231043815612793,0.006414080038666725
1761330841021660000,10.384659912109376,-0.22769984602928162,0.2571740746498108,0.1591302752494812
1761330841040360700,10.403360595703125,-0.249690979719162,-0.08002328872680664,0.16035200655460358
1761330841059061500,10.4220615234375,-0.1977674663066864,-0.2974911332130432,0.08032871782779694
1761330841077762300,10.44076220703125,-0.14217877388000488,-0.11178825795650482,0.03451386094093323
1761330841096463400,10.45946337890625,-0.13240493834018707,0.20708316564559937,-0.01435532234609127
1761330841115164200,10.4781640625,-0.18493930995464325,0.3543015718460083,-0.06872228533029556
1761330841133865200,10.496865234375,-0.23503021895885468,0.27366742491722107,-0.09865466505289078
1761330841152566000,10.51556591796875,-0.2386954128742218,0.13255766034126282,-0.09071341902017593
1761330841171267000,10.53426708984375,-0.18493930995464325,0.14294235408306122,-0.013133592903614044
1761330841189968000,10.5529677734375,-0.1366809904575348,0.2211330533027649,0.07116574794054031
1761330841208668700,10.571668701171875,-0.12202023714780807,0.2315177470445633,0.13775001466274261
1761330841227369500,10.590369384765625,-0.12385283410549164,0.1747073233127594,0.15546508133411407
1761330841246070500,10.609070556640624,-0.13484840095043182,0.08002328872680664,0.09621120244264603
1761330841264771600,10.627771484375,-0.1513417512178421,0.007330377586185932,0.0027488914784044027
1761330841283472400,10.646472412109375,-0.16966769099235535,-0.0824667438864708,-0.11759147047996521
1761330841302173200,10.665173095703125,-0.1776089370250702,-0.16065743565559387,-0.24770566821098328
1761330841320874000,10.6838740234375,-0.16966769099235535,-0.04520399495959282,-0.2929096519947052
1761330841339575000,10.702574951171876,-0.13790272176265717,0.14049890637397766,-0.2837466895580292
1761330841358275800,10.72127587890625,-0.1000291109085083,0.17531819641590118,-0.21716243028640747
1761330841376977000,10.739976806640625,-0.10613775253295898,0.12278381735086441,-0.09621120244264603
1761330841395677700,10.758677734375,-0.15073087811470032,-0.010995565913617611,-0.048563748598098755
1761330841414378500,10.77737841796875,-0.1928805559873581,-0.01282816007733345,-0.012522728182375431
1761330841433079600,10.79607958984375,-0.2484692484140396,0.11606431007385254,-0.006414080038666725
1761330841451780400,10.8147802734375,-0.2857320010662079,0.2968802750110626,-0.011300998739898205
1761330841470481200,10.833481201171875,-0.30833399295806885,0.35246896743774414,-0.021685699000954628
1761330841489182200,10.85218212890625,-0.2857320010662079,0.21502439677715302,-0.04978547990322113
1761330841507883000,10.870883056640626,-0.21181736886501312,-0.0824667438864708,-0.11575887352228165
1761330841526584000,10.889583984375,-0.1721111536026001,-0.25350889563560486,-0.15118902921676636
1761330841545284900,10.908284912109375,-0.11102467030286789,-0.47036588191986084,-0.11881320178508759
1761330841563985700,10.926985595703124,0.08200860023498535,0.046425722539424896,-0.10659590363502502
1761330841582686700,10.945686767578126,0.07040216773748398,0.1386663019657135,-0.1701258420944214
1761330841601387500,10.964387451171875,-0.08292489498853683,0.0873536616563797,-0.2306014597415924
