time,seconds_elapsed,z,y,x
1761330843312519700,0.058519775390625,0,0,0
1761330843331220500,0.077220458984375,-0.21318817138671875,0.0889892578125,0.09939759969711304
1761330843349921500,0.095921630859375,-0.5405092239379883,0.21646595001220703,0.076454758644104
1761330843368622300,0.114622314453125,-0.21861743927001953,0.4365377426147461,0.07839924097061157
1761330843387323100,0.1333232421875,-0.012109756469726562,0.44043779373168945,0.022809207439422607
1761330843406024200,0.152024169921875,0.7599935531616211,0.6512355804443359,0.040192365646362305
1761330843424725000,0.17072509765625,1.2249040603637695,0.3741464614868164,0.20608031749725342
1761330843443426000,0.189426025390625,0.698491096496582,0.05425405502319336,-0.036660611629486084
1761330843462126800,0.208126953125,1.0047893524169922,-0.0006470680236816406,0.21611757576465607
1761330843480827600,0.22682763671875,2.0823612213134766,-0.020356178283691406,0.69552081823349
1761330843499528700,0.24552880859375,2.2772903442382812,0.1518864631652832,0.8601830005645752
1761330843518229500,0.2642294921875,1.8986520767211914,-0.04436159133911133,1.0223761796951294
1761330843536930300,0.282930419921875,1.4575872421264648,-0.4113006591796875,1.6107738018035889
1761330843555631400,0.30163134765625,1.1597166061401367,-0.8766770362854004,1.8628357648849487
1761330843574332400,0.32033251953125,0.9333305358886719,-1.2930197715759277,1.2845392227172852
1761330843593033200,0.339033203125,0.6668195724487305,-1.35874605178833,0.3733503818511963
1761330843611734000,0.357734130859375,0.4607820510864258,-1.4569029808044434,0.044442176818847656
1761330843630434800,0.376434814453125,0.38632965087890625,-1.7729825973510742,0.0678795576095581
1761330843649135900,0.395135986328125,-0.08322715759277344,-1.8771028518676758,0.06695830821990967
1761330843667836700,0.413836669921875,-0.6648292541503906,-1.7918477058410645,-0.11737227439880371
1761330843686537700,0.432537841796875,-1.2870368957519531,-1.7675890922546387,-0.22041815519332886
1761330843705238500,0.451238525390625,-1.9587955474853516,-1.634136438369751,-0.36816340684890747
1761330843723939600,0.469939697265625,-2.406707763671875,-1.5002613067626953,-0.4975011646747589
1761330843742640400,0.488640380859375,-2.4426794052124023,-1.4646971225738525,-0.4496970772743225
1761330843761341200,0.507341064453125,-2.3025264739990234,-1.3009850978851318,-0.3049778938293457
1761330843780042000,0.5260419921875,-2.0939111709594727,-1.0349929332733154,-0.2620488703250885
1761330843798743000,0.544742919921875,-1.9796090126037598,-0.9183576107025146,-0.1118396520614624
1761330843817443800,0.56344384765625,-1.8809747695922852,-0.8290743827819824,-0.08899128437042236
1761330843836145000,0.582144775390625,-2.0254039764404297,-0.7769145965576172,-0.05652356147766113
1761330843854845700,0.600845703125,-2.1447343826293945,-0.5430800914764404,-0.057199716567993164
1761330843873546800,0.619546630859375,-1.7789807319641113,-0.3878340721130371,0.2087482511997223
1761330843892247600,0.63824755859375,-1.4141569137573242,-0.4556610584259033,0.7106748819351196
1761330843910948400,0.6569482421875,-1.250821590423584,-0.38249993324279785,0.8197276592254639
1761330843929649200,0.675649169921875,-1.2955608367919922,-0.04002070426940918,0.5320039987564087
1761330843948350200,0.69435009765625,-1.2939929962158203,0.15047931671142578,0.22305938601493835
1761330843967051300,0.71305126953125,-1.270583152770996,0.3063218593597412,0.09136345982551575
1761330843985752000,0.731751953125,-1.2928624153137207,0.4700281620025635,-0.0007416754961013794
1761330844004452900,0.750452880859375,-1.2116308212280273,0.6553771495819092,-0.0956711620092392
1761330844023154000,0.76915380859375,-0.8595466613769531,0.7332746982574463,-0.25716885924339294
1761330844041854700,0.787854736328125,-0.10601139068603516,0.8150801658630371,-0.3137718737125397
1761330844060555500,0.806555419921875,0.5522441864013672,0.7527034282684326,-0.1593398153781891
1761330844079256600,0.825256591796875,0.9764041900634766,0.9840893745422363,-0.36498022079467773
1761330844097957400,0.843957275390625,1.1149225234985352,1.2002999782562256,-0.8089495897293091
1761330844116658400,0.862658447265625,1.4505672454833984,1.4901552200317383,-0.9487584829330444
1761330844135359200,0.881359130859375,1.8284006118774414,1.5705821514129639,-0.563376784324646
1761330844154060000,0.90006005859375,2.155668258666992,1.5589635372161865,-0.05636756122112274
1761330844172761000,0.918760986328125,2.2762155532836914,1.5389525890350342,0.22894875705242157
1761330844191462000,0.9374619140625,2.1597442626953125,1.5824475288391113,0.04106602072715759
1761330844210163000,0.956162841796875,1.8445243835449219,1.5416884422302246,0.2007221132516861
1761330844228863700,0.97486376953125,1.3509979248046875,0.5609912872314453,1.005652666091919
1761330844247564500,0.993564453125,1.537306785583496,-0.8807628154754639,0.9623904824256897
1761330844266265600,1.012265625,2.1907167434692383,-1.7354953289031982,0.3862251937389374
1761330844284966400,1.03096630859375,2.438760757446289,-2.029755115509033,-0.5415580868721008
1761330844303667200,1.049667236328125,2.04288387298584,-1.896073341369629,-1.136796474456787
1761330844322368300,1.0683681640625,1.2888479232788086,-1.5355033874511719,-0.8697122931480408
1761330844341069000,1.087069091796875,0.46405506134033203,-1.0852055549621582,-0.5372828841209412
1761330844359770000,1.10577001953125,-0.3781719207763672,-1.1698782444000244,-0.2573060393333435
1761330844378471000,1.124470947265625,-1.2417268753051758,-1.1730525493621826,-0.20132693648338318
1761330844397171700,1.143171630859375,-1.8624610900878906,-1.0337469577789307,-0.5163611173629761
1761330844415872800,1.161872802734375,-1.8683109283447266,-1.1312386989593506,-0.7458029389381409
1761330844434573600,1.180573486328125,-1.498215675354004,-1.237809658050537,-0.7471179962158203
1761330844453274400,1.1992744140625,-1.1986875534057617,-1.1836752891540527,-0.7529406547546387
1761330844471975400,1.217975341796875,-1.1960420608520508,-1.1125574111938477,-0.8585278391838074
1761330844490676500,1.236676513671875,-1.4471254348754883,-0.7478499412536621,-1.1470896005630493
1761330844509377300,1.255377197265625,-1.8988237380981445,-0.47153472900390625,-1.5130387544631958
1761330844528078000,1.274078125,-2.2284011840820312,-0.32965993881225586,-1.6000761985778809
1761330844546779000,1.29277880859375,-2.263310432434082,-0.1488335132598877,-1.2159063816070557
1761330844565480000,1.31147998046875,-2.103682518005371,0.017690658569335938,-0.36275729537010193
1761330844584180700,1.3301806640625,-2.2509584426879883,-0.11222624778747559,0.10009381175041199
1761330844602881800,1.3488818359375,-2.3250365257263184,-0.008862972259521484,0.08155274391174316
1761330844621582600,1.36758251953125,-2.3320698738098145,0.07803773880004883,0.22408372163772583
1761330844640283600,1.38628369140625,-1.8274059295654297,0.24144196510314941,-0.040214307606220245
1761330844658984400,1.404984375,-1.074580192565918,0.2709057331085205,-0.3466845750808716
1761330844677685200,1.423685302734375,-0.8976211547851562,0.25147056579589844,-0.6371610164642334
1761330844696386300,1.44238623046875,-0.8557815551757812,0.40552568435668945,-0.7514327168464661
1761330844715087000,1.461087158203125,-0.35919857025146484,0.8439431190490723,-0.7910908460617065
1761330844733788000,1.479787841796875,0.2721586227416992,1.01639723777771,-0.6774424314498901
1761330844752489000,1.498489013671875,0.36785030364990234,0.9385340213775635,-0.4532584547996521
1761330844771189800,1.517189697265625,0.6262083053588867,1.0275709629058838,-0.19655141234397888
1761330844789890800,1.535890869140625,1.3697919845581055,1.1439239978790283,0.1932414472103119
1761330844808591600,1.554591552734375,2.6647872924804688,1.054450511932373,0.4024273455142975
1761330844827292400,1.57329248046875,4.395611763000488,0.828178882598877,0.7938438057899475
1761330844845993500,1.591993408203125,5.181224822998047,0.753803014755249,1.3081426620483398
1761330844864694300,1.6106943359375,3.6885128021240234,1.040626049041748,0.9343292713165283
1761330844883395300,1.629395263671875,1.3656549453735352,0.8214330673217773,0.012703776359558105
1761330844902096100,1.64809619140625,0.12325382232666016,0.2565035820007324,-0.4262687563896179
1761330844920797000,1.666796875,0.21446895599365234,-0.06669282913208008,-0.21995675563812256
1761330844939498000,1.685498046875,0.6694869995117188,-0.17249202728271484,0.12488937377929688
1761330844958198800,1.70419873046875,1.2974977493286133,-0.6159036159515381,0.6309203505516052
1761330844976899600,1.722899658203125,1.542337417602539,-0.9819676876068115,0.8501542210578918
1761330844995600600,1.7416005859375,2.0208864212036133,-1.3932712078094482,0.7678809762001038
1761330845014301700,1.7603017578125,1.4298343658447266,-1.881680965423584,1.0259552001953125
1761330845033002500,1.77900244140625,0.1036081314086914,-1.8316947221755981,0.8590348362922668
1761330845051703300,1.797703369140625,-0.7108993530273438,-1.780907392501831,0.6788889169692993
1761330845070404400,1.816404296875,-0.7847204208374023,-1.7712459564208984,0.4042712450027466
1761330845089105200,1.835105224609375,-0.6378164291381836,-1.6621744632720947,-0.0816228985786438
1761330845107806000,1.853805908203125,-0.7978105545043945,-1.6277012825012207,-0.3501685857772827
1761330845126507000,1.872507080078125,-1.3704423904418945,-1.327594518661499,-0.9528888463973999
1761330845145207800,1.891207763671875,-2.375013828277588,-0.9144103527069092,-0.3480253517627716
1761330845163908900,1.909908935546875,-2.5443782806396484,-0.6255807876586914,0.5418786406517029
1761330845182609700,1.928609619140625,-2.389873504638672,-0.35619544982910156,0.3965536952018738
1761330845201310500,1.947310546875,-2.185641288757324,-0.4554448127746582,-0.07092458009719849
1761330845220011500,1.966011474609375,-1.9238858222961426,-0.5353918075561523,0.3589925169944763
1761330845238712300,1.98471240234375,-1.79095458984375,-0.3071718215942383,0.32716280221939087
1761330845257413000,2.0034130859375,-1.5278301239013672,-0.1657867431640625,0.08017504215240479
1761330845276114200,2.0221142578125,-1.7963447570800781,-0.35570406913757324,1.0277421474456787
1761330845294815000,2.04081494140625,-1.6782593727111816,-0.1470496654510498,0.9547534584999084
1761330845313516000,2.05951611328125,-1.7036151885986328,0.45590734481811523,0.8238368034362793
1761330845332216800,2.078216796875,-1.9615850448608398,0.5342614650726318,0.5136831402778625
1761330845350917600,2.096917724609375,-1.7715654373168945,0.8252103328704834,-0.0035206079483032227
1761330845369618700,2.11561865234375,-1.4431133270263672,1.1764271259307861,-0.04720103740692139
1761330845388319500,2.134319580078125,-0.9676837921142578,1.4357612133026123,0.09268778562545776
1761330845407020500,2.1530205078125,-0.5703973770141602,1.644644021987915,0.2513592839241028
1761330845425721300,2.171721435546875,0.0014181137084960938,1.782487154006958,0.1998496651649475
1761330845444422400,2.19042236328125,0.4886493682861328,1.9019837379455566,0.19484388828277588
1761330845463123200,2.209123291015625,1.1446704864501953,2.0240635871887207,-0.11275750398635864
1761330845481824000,2.227823974609375,1.7127151489257812,1.986013412475586,-0.04195535182952881
1761330845500525000,2.246525146484375,2.2130918502807617,1.801154613494873,0.17079347372055054
1761330845519225900,2.265225830078125,2.447880744934082,1.778038740158081,0.21268469095230103
1761330845537926700,2.2839267578125,2.2879714965820312,1.8396670818328857,-0.0009385645389556885
1761330845556627700,2.302627685546875,2.0129032135009766,1.733670949935913,0.14482471346855164
1761330845575328500,2.32132861328125,1.9936809539794922,1.0294547080993652,0.5102943181991577
1761330845594029600,2.340029541015625,2.2081966400146484,-0.02944350242614746,0.6138834953308105
1761330845612730600,2.358730712890625,2.6056957244873047,-1.0598275661468506,0.260269433259964
1761330845631431200,2.37743115234375,3.1003828048706055,-1.863703727722168,0.01085139811038971
1761330845650132000,2.396132080078125,2.9738874435424805,-2.1834635734558105,-0.16871818900108337
1761330845668833000,2.4148330078125,2.276228904724121,-2.165039539337158,-0.12431545555591583
1761330845687533800,2.433533935546875,1.1751842498779297,-1.9933345317840576,0.24017788469791412
1761330845706234600,2.452234619140625,0.1133565902709961,-1.7749505043029785,0.28405681252479553
1761330845724935700,2.470935791015625,-0.6916704177856445,-1.677726149559021,0.07292893528938293
1761330845743636500,2.489636474609375,-1.3235931396484375,-1.625049114227295,-0.33069664239883423
1761330845762337500,2.508337646484375,-1.6907167434692383,-1.6237568855285645,-0.55012047290802
1761330845781038300,2.527038330078125,-1.804659366607666,-1.5198845863342285,-0.5286695957183838
1761330845799739100,2.5457392578125,-1.9218111038208008,-1.2987658977508545,-0.28938594460487366
1761330845818440200,2.564440185546875,-2.0487747192382812,-0.9637932777404785,-0.08933350443840027
1761330845837141000,2.58314111328125,-2.390899658203125,-0.6196246147155762,-0.2872343063354492
1761330845855841800,2.601841796875,-2.7504191398620605,-0.37580394744873047,-0.5907628536224365
1761330845874542800,2.62054296875,-2.8935256004333496,-0.560603141784668,-0.46238216757774353
1761330845893243600,2.63924365234375,-2.533784866333008,-0.48904943466186523,-0.6231292486190796
1761330845911944700,2.65794482421875,-2.222838878631592,-0.5328810214996338,-0.7420134544372559
1761330845930645500,2.6766455078125,-2.146087646484375,-0.428255558013916,-0.8932294249534607
1761330845949346300,2.69534619140625,-2.1881237030029297,-0.6317825317382812,-0.7659043669700623
1761330845968047400,2.71404736328125,-2.0453362464904785,-0.6788334846496582,-0.9028784036636353
1761330845986748200,2.732748046875,-1.6834087371826172,-0.4683094024658203,-1.0938825607299805
1761330846005449200,2.75144921875,-1.068410873413086,-0.2886343002319336,-1.1619786024093628
1761330846024150000,2.77014990234375,-0.6842670440673828,-0.05916094779968262,-0.9357690811157227
1761330846042851000,2.78885107421875,-0.5310182571411133,0.1750011444091797,-0.360243022441864
1761330846061551900,2.8075517578125,-0.28261756896972656,0.5915617942810059,-0.031662724912166595
1761330846080252700,2.826252685546875,0.05053234100341797,1.0033724308013916,0.09878793358802795
1761330846098953700,2.84495361328125,0.29004669189453125,1.482140302658081,-0.08361838757991791
1761330846117654500,2.863654541015625,0.7030668258666992,2.1735942363739014,-0.5267937779426575
1761330846136355300,2.882355224609375,1.3634920120239258,2.24163818359375,-0.21121063828468323
1761330846155056400,2.901056396484375,2.3260412216186523,2.2254092693328857,0.7218614220619202
1761330846173757200,2.919757080078125,3.6832828521728516,2.501976251602173,1.618795394897461
1761330846192458200,2.938458251953125,4.257150650024414,2.633516788482666,2.0154030323028564
1761330846211159000,2.957158935546875,3.959284782409668,1.7802696228027344,2.774089813232422
1761330846229859800,2.97585986328125,4.111618995666504,0.6028852462768555,3.3095521926879883
1761330846248561000,2.994560791015625,3.882963180541992,-0.07912325859069824,2.6840057373046875
1761330846267261700,3.01326171875,2.970881462097168,-0.12686395645141602,1.5501632690429688
1761330846285962800,3.031962646484375,2.168168067932129,-0.39507341384887695,1.186398983001709
1761330846304663600,3.05066357421875,1.4585437774658203,-0.8439610004425049,1.4604365825653076
1761330846323364600,3.069364501953125,0.8576259613037109,-1.4467952251434326,1.5734593868255615
1761330846342065400,3.0880654296875,0.41716670989990234,-1.8393199443817139,1.5521061420440674
1761330846360766200,3.10676611328125,-0.10668087005615234,-2.2794177532196045,1.1630107164382935
1761330846379467300,3.12546728515625,-0.6608133316040039,-2.427140951156616,0.4925152063369751
1761330846398168000,3.14416796875,-1.424731731414795,-2.3180932998657227,-0.008180022239685059
1761330846416869000,3.162869140625,-2.2771072387695312,-2.125331401824951,-0.19794276356697083
1761330846435570000,3.18156982421875,-2.767758369445801,-1.8162755966186523,-0.27551040053367615
1761330846454270700,3.200270751953125,-2.835404872894287,-1.4713349342346191,-0.4551256000995636
1761330846472971800,3.2189716796875,-2.781888961791992,-1.469665765762329,-0.20995572209358215
1761330846491672600,3.237672607421875,-2.5414819717407227,-1.2101678848266602,-0.17414966225624084
1761330846510373400,3.256373291015625,-2.348790168762207,-0.9317209720611572,0.06727179884910583
1761330846529074400,3.275074462890625,-1.897322654724121,-0.875828742980957,0.20736661553382874
1761330846547775200,3.293775146484375,-1.4770822525024414,-0.7671873569488525,0.3366410434246063
1761330846566476300,3.312476318359375,-1.185018539428711,-0.5961809158325195,0.42132633924484253
1761330846585177000,3.331177001953125,-1.0667476654052734,-0.5262341499328613,0.538953423500061
1761330846603878000,3.3498779296875,-0.9297161102294922,-0.23998689651489258,0.5004836320877075
1761330846622579000,3.368578857421875,-0.8375577926635742,-0.42731237411499023,0.5596071481704712
1761330846641279700,3.38727978515625,-0.38834476470947266,0.06220269203186035,0.3215489983558655
1761330846659980500,3.40598046875,-0.4432106018066406,0.46144819259643555,0.38714951276779175
1761330846678681600,3.424681640625,-0.6102828979492188,0.7807402610778809,0.3926432132720947
1761330846697382700,3.443382568359375,-0.2929058074951172,1.0076115131378174,0.5126748085021973
1761330846716083500,3.46208349609375,0.13802337646484375,1.336421251296997,0.37789320945739746
1761330846734784300,3.4807841796875,0.47954845428466797,1.3798623085021973,0.10171109437942505
1761330846753485300,3.4994853515625,0.7694253921508789,1.669708251953125,-0.5104940533638
1761330846772186000,3.51818603515625,1.2230157852172852,1.8353281021118164,-0.9413809776306152
1761330846790887000,3.536886962890625,1.7964963912963867,1.913116455078125,-0.7534087896347046
1761330846809588000,3.555587890625,2.6150245666503906,1.7944631576538086,-0.4784562885761261
1761330846828288800,3.574288818359375,2.9912214279174805,2.0503811836242676,-0.3379688262939453
1761330846846989800,3.59298974609375,2.301280975341797,2.3828883171081543,-0.25120311975479126
1761330846865690600,3.611690673828125,1.4104843139648438,1.7512688636779785,0.0581398606300354
1761330846884391400,3.630391357421875,1.4917993545532227,0.41762256622314453,0.19841104745864868
1761330846903092500,3.649092529296875,2.331719398498535,-0.879277229309082,0.10141009092330933
1761330846921793300,3.667793212890625,3.0264034271240234,-1.8082733154296875,-0.07035690546035767
1761330846940494000,3.686494140625,2.9015674591064453,-2.1582987308502197,-0.37853676080703735
1761330846959195100,3.705195068359375,1.772618293762207,-2.118990421295166,-0.5521772503852844
1761330846977896200,3.723896240234375,0.4572896957397461,-1.8881912231445312,-0.28201138973236084
1761330846996597000,3.742596923828125,-0.5936508178710938,-1.8495616912841797,-0.10240340232849121
1761330847015297800,3.7612978515625,-1.2910804748535156,-1.8560335636138916,-0.40860265493392944
1761330847033998800,3.779998779296875,-1.760396957397461,-1.9425606727600098,-0.7948718667030334
1761330847052699600,3.79869970703125,-1.9129981994628906,-1.9855341911315918,-1.1054553985595703
1761330847071400400,3.817400390625,-1.8174901008605957,-1.8469605445861816,-1.3615484237670898
1761330847090101500,3.8361015625,-1.8828067779541016,-1.580148696899414,-1.4095487594604492
1761330847108802300,3.85480224609375,-1.8783235549926758,-1.1580195426940918,-1.169724464416504
1761330847127503400,3.87350341796875,-1.7485713958740234,-0.8293819427490234,-0.8375597596168518
1761330847146204200,3.8922041015625,-1.9653043746948242,-0.6277451515197754,-0.7040010690689087
1761330847164905000,3.910905029296875,-2.3140950202941895,-0.43778324127197266,-0.6305630207061768
1761330847183606000,3.92960595703125,-2.2777862548828125,-0.4009714126586914,-0.7302820682525635
1761330847202306800,3.948306884765625,-2.107046604156494,-0.2110438346862793,-0.6255491971969604
1761330847221008000,3.9670078125,-1.5424485206604004,-0.0845184326171875,-0.5106759071350098
1761330847239708700,3.985708740234375,-0.8990774154663086,-0.04046344757080078,-0.4954017400741577
1761330847258409700,4.00440966796875,-0.5087852478027344,-0.143707275390625,-0.4627501666545868
1761330847277110500,4.023110595703125,-0.6797208786010742,-0.09226131439208984,-0.4484708309173584
1761330847295811300,4.041811279296875,-0.6410684585571289,0.15156126022338867,-0.6577367782592773
1761330847314512400,4.060512451171875,-0.3336019515991211,0.5356450080871582,-0.8141628503799438
1761330847333213200,4.079213134765625,-0.08665943145751953,0.8449206352233887,-0.3732468783855438
1761330847351914000,4.0979140625,0.07201480865478516,1.313119888305664,-0.11935481429100037
1761330847370615000,4.116614990234375,0.09593009948730469,1.7278733253479004,-0.1666955202817917
1761330847389315800,4.13531591796875,-0.14054584503173828,1.882469654083252,-0.5276482105255127
1761330847408017000,4.154016845703125,-0.019776344299316406,1.9834480285644531,-1.2030898332595825
1761330847426717700,4.1727177734375,0.9353427886962891,1.6251039505004883,-1.3759243488311768
1761330847445418500,4.19141845703125,2.154557228088379,1.1999056339263916,-1.0152084827423096
1761330847464119600,4.21011962890625,3.5661983489990234,0.9982049465179443,-0.18121874332427979
1761330847482820400,4.2288203125,4.009860992431641,1.4451227188110352,0.27432000637054443
1761330847501521400,4.247521484375,3.5488357543945312,1.4239399433135986,0.916502058506012
1761330847520222200,4.26622216796875,3.6464786529541016,1.0913243293762207,1.5095771551132202
1761330847538923000,4.284923095703125,3.657543182373047,0.4445786476135254,1.720041036605835
1761330847557624000,4.3036240234375,2.599822998046875,-0.10278511047363281,1.3766206502914429
1761330847576324900,4.322324951171875,0.8386144638061523,-0.38785767555236816,1.0201066732406616
1761330847595025700,4.341025634765625,-0.5029335021972656,-0.8167984485626221,0.7009212970733643
1761330847613726700,4.359726806640625,-0.7761688232421875,-1.3553295135498047,0.2982701063156128
1761330847632427500,4.378427490234375,-0.5384349822998047,-1.9664459228515625,-0.031058162450790405
1761330847651128600,4.397128662109375,-0.5263090133666992,-2.3507933616638184,-0.0025559663772583008
1761330847669829400,4.415829345703125,-0.7523870468139648,-2.4405627250671387,0.3536655306816101
1761330847688530400,4.434530517578125,-1.1746501922607422,-2.3603692054748535,0.4179387092590332
1761330847707231200,4.453231201171875,-1.6745905876159668,-2.1730687618255615,0.12825003266334534
1761330847725932000,4.47193212890625,-2.031193733215332,-1.8268671035766602,-0.2741597294807434
1761330847744633000,4.490633056640625,-1.9525623321533203,-1.6057100296020508,-0.7142703533172607
1761330847763334000,4.509333984375,-1.9102106094360352,-1.3318071365356445,-0.6566252708435059
1761330847782035000,4.528034912109375,-1.8737821578979492,-0.9657244682312012,-0.39830854535102844
1761330847800735700,4.54673583984375,-1.9052395820617676,-0.4926180839538574,-0.2636432647705078
1761330847819436500,4.5654365234375,-1.6916818618774414,-0.27306699752807617,-0.39136841893196106
1761330847838137600,4.5841376953125,-1.6220388412475586,-0.13358831405639648,-0.19700592756271362
1761330847856838400,4.60283837890625,-1.4227447509765625,-0.14501667022705078,0.10302352160215378
1761330847875539200,4.621539306640625,-1.070572853088379,-0.1761026382446289,0.8718741536140442
1761330847894240300,4.640240234375,-0.6485691070556641,0.07402849197387695,1.230292558670044
1761330847912941000,4.658941162109375,-0.3159780502319336,0.2872786521911621,1.2530184984207153
1761330847931642000,4.67764208984375,0.06725692749023438,0.48772621154785156,1.2269525527954102
1761330847950343000,4.696343017578125,0.1688404083251953,0.8027243614196777,1.0772075653076172
1761330847969043700,4.715043701171875,-0.059363365173339844,1.0876359939575195,0.9903331398963928
1761330847987744800,4.733744873046875,-0.3457155227661133,1.3003182411193848,0.9627664685249329
1761330848006445600,4.752445556640625,-0.514892578125,1.5150947570800781,1.118289589881897
1761330848025146400,4.771146484375,-0.5395288467407227,1.6382756233215332,0.9857314825057983
1761330848043847400,4.789847412109375,-0.6755685806274414,1.5710844993591309,0.24046358466148376
1761330848062548500,4.808548583984375,-0.6554183959960938,1.5518302917480469,-0.6313424110412598
1761330848081249300,4.827249267578125,-0.37390995025634766,1.6094598770141602,-1.0585638284683228
1761330848099950000,4.8459501953125,0.4004850387573242,1.5380992889404297,-1.0310187339782715
1761330848118651000,4.86465087890625,1.5535621643066406,1.6027946472167969,-0.7639381289482117
1761330848137352000,4.88335205078125,2.5567970275878906,1.9312033653259277,-0.6337128281593323
1761330848156052700,4.902052734375,2.734036445617676,1.8838272094726562,-0.5765910744667053
1761330848174753800,4.92075390625,2.562291145324707,1.0776524543762207,-0.6283795833587646
1761330848193454600,4.93945458984375,2.5966176986694336,0.19415664672851562,-0.59172523021698
1761330848212155600,4.95815576171875,2.6181764602661133,-0.6484050750732422,0.5808117389678955
1761330848230856400,4.9768564453125,2.6372900009155273,-1.3926880359649658,1.2305920124053955
1761330848249557200,4.99555712890625,2.2785472869873047,-1.796269416809082,0.7025288343429565
1761330848268258300,5.01425830078125,1.2571592330932617,-1.8902149200439453,-0.15579240024089813
1761330848286959000,5.032958984375,0.11148357391357422,-1.836193561553955,-0.6272224187850952
1761330848305660200,5.05166015625,-0.46863460540771484,-1.643537998199463,-0.6098973155021667
1761330848324361000,5.07036083984375,-0.8600635528564453,-1.4605717658996582,-0.5015423893928528
1761330848343061800,5.089061767578125,-1.3984532356262207,-1.3493168354034424,-0.6517490148544312
1761330848361762800,5.1077626953125,-1.9681215286254883,-1.2120530605316162,-0.8675240874290466
1761330848380463600,5.126463623046875,-2.2970547676086426,-1.112401008605957,-0.8463588953018188
1761330848399164400,5.145164306640625,-2.1490883827209473,-1.078650951385498,-0.8320897817611694
1761330848417865500,5.163865478515625,-2.0124435424804688,-0.7435731887817383,-1.0638960599899292
1761330848436566300,5.182566162109375,-1.7085180282592773,-0.9674768447875977,-0.5805714130401611
1761330848455267300,5.201267333984375,-1.2329540252685547,-0.8265047073364258,-0.40946897864341736
1761330848473968000,5.219968017578125,-1.1305675506591797,-0.6520276069641113,-0.43353235721588135
1761330848492669000,5.2386689453125,-0.9917612075805664,-0.32852721214294434,-0.6566810607910156
1761330848511370000,5.257369873046875,-0.8806552886962891,-0.15346097946166992,-0.4626586437225342
1761330848530070800,5.27607080078125,-1.1593437194824219,-0.020746707916259766,-0.17443931102752686
1761330848548771600,5.294771484375,-1.6058497428894043,0.11963343620300293,0.03993907570838928
1761330848567472600,5.31347265625,-1.4490227699279785,0.15993261337280273,-0.02837511897087097
1761330848586173700,5.332173583984375,-0.5853376388549805,0.22140288352966309,-0.2500748634338379
1761330848604874500,5.35087451171875,0.21755313873291016,0.39488792419433594,-0.7238194346427917
1761330848623575300,5.3695751953125,0.5630111694335938,0.6722233295440674,-0.8787211775779724
1761330848642276000,5.388276123046875,0.6115531921386719,0.9325592517852783,-0.6757690906524658
1761330848660977200,5.40697705078125,0.9564828872680664,1.212130069732666,-0.5280649662017822
1761330848679678000,5.425677978515625,1.119694709777832,1.229687213897705,-0.4356135427951813
1761330848698379000,5.44437890625,1.191117286682129,1.2144947052001953,-0.21924561262130737
1761330848717079800,5.463079833984375,1.2903127670288086,1.4891703128814697,-0.523806631565094
1761330848735780900,5.48178076171875,1.068345069885254,0.7723808288574219,-0.057525038719177246
1761330848754481700,5.500481689453125,1.233072280883789,0.8406426906585693,-0.06293070316314697
1761330848773182500,5.519182373046875,1.657893180847168,0.5169785022735596,0.312563419342041
1761330848791883300,5.53788330078125,2.158599853515625,0.8923237323760986,0.35425645112991333
1761330848810584300,5.556584228515625,1.4783964157104492,1.381119966506958,-0.1515183448791504
1761330848829285000,5.57528515625,0.7780075073242188,0.5212278366088867,0.6113426089286804
1761330848847986200,5.593986083984375,1.4068374633789062,-0.026296615600585938,1.3814647197723389
1761330848866687000,5.61268701171875,2.0400705337524414,-0.5111219882965088,1.2031149864196777
1761330848885388000,5.631387939453125,1.7220430374145508,-0.7483217716217041,0.7725585699081421
1761330848904088800,5.6500888671875,0.6460247039794922,-1.0404162406921387,0.7479439973831177
1761330848922789600,5.66878955078125,-0.26628971099853516,-1.2660043239593506,0.8081873059272766
1761330848941490400,5.687490478515625,-0.46794605255126953,-1.4597742557525635,0.8439089059829712
1761330848960191500,5.70619140625,-0.41841888427734375,-1.4660680294036865,0.7264472246170044
1761330848978892500,5.724892578125,-0.5187292098999023,-1.1453723907470703,0.6361923217773438
1761330848997593300,5.74359326171875,-0.9197587966918945,-0.9339501857757568,0.7841651439666748
1761330849016294100,5.762294189453125,-1.8195266723632812,-0.7052927017211914,0.5660741329193115
1761330849034995200,5.7809951171875,-2.2323169708251953,-0.5700092315673828,-0.2297469675540924
1761330849053696000,5.799696044921875,-2.281437397003174,-0.45549750328063965,-0.5014405250549316
1761330849072396800,5.818396728515625,-2.1297607421875,-0.3059988021850586,-0.5506718158721924
1761330849091097900,5.837097900390625,-1.663325309753418,-0.35744452476501465,-0.5329849123954773
1761330849109798700,5.855798583984375,-1.2016010284423828,-0.30028700828552246,-0.2866382598876953
1761330849128499700,5.874499755859375,-0.6831140518188477,-0.3877849578857422,-0.13157688081264496
1761330849147200500,5.893200439453125,-0.33721923828125,-0.5131361484527588,-0.29244524240493774
1761330849165901300,5.9119013671875,-0.29543113708496094,-0.49109506607055664,-0.05157288536429405
1761330849184602400,5.930602294921875,-0.1042947769165039,-0.446056604385376,0.5882430672645569
1761330849203303200,5.94930322265625,0.1811962127685547,-0.2682936191558838,0.7887281775474548
1761330849222004200,5.968004150390625,0.32613658905029297,0.05005311965942383,0.18306419253349304
1761330849240705000,5.986705078125,0.16051864624023438,0.27349853515625,-0.23478271067142487
1761330849259405800,6.00540576171875,-0.17666053771972656,0.491757869720459,-0.06363669037818909
1761330849278107000,6.02410693359375,-0.21520519256591797,0.7631006240844727,0.2353588342666626
1761330849296807700,6.0428076171875,-0.2200775146484375,1.0117192268371582,0.40722331404685974
1761330849315508500,6.061508544921875,-0.2010498046875,1.1817190647125244,0.3201344907283783
1761330849334209500,6.08020947265625,-0.24761486053466797,1.2739009857177734,0.1581634283065796
1761330849352910300,6.098910400390625,-0.2441415786743164,1.3117706775665283,-0.015174150466918945
1761330849371611400,6.117611328125,-0.1314678192138672,1.3503315448760986,-0.08526724576950073
1761330849390312200,6.136312255859375,0.32683467864990234,1.3394713401794434,0.06132388114929199
1761330849409013000,6.155012939453125,0.9722375869750977,1.26524019241333,0.0351603627204895
1761330849427714000,6.173714111328125,1.594365119934082,1.2737412452697754,-0.1321873664855957
1761330849446414800,6.192414794921875,1.7987995147705078,1.748337745666504,-0.5183241367340088
1761330849465115600,6.21111572265625,1.1544857025146484,2.115882396697998,-0.7576018571853638
1761330849483816700,6.229816650390625,0.8691301345825195,1.5530083179473877,-0.4845125079154968
1761330849502517500,6.248517578125,1.2584295272827148,0.8653967380523682,-0.4297618865966797
1761330849521218600,6.267218505859375,2.0334339141845703,-0.21066927909851074,-0.13916558027267456
1761330849539919400,6.28591943359375,2.732686996459961,-1.3125972747802734,-0.06670212745666504
1761330849558620200,6.3046201171875,2.713968276977539,-1.9062877893447876,-0.2826416492462158
1761330849577321000,6.323321044921875,2.0584516525268555,-2.210999011993408,-0.44272327423095703
1761330849596022000,6.34202197265625,1.1520357131958008,-2.2305803298950195,-0.30313950777053833
1761330849614723000,6.36072314453125,0.1542215347290039,-1.992722511291504,-0.07721948623657227
1761330849633424000,6.379423828125,-0.6835403442382812,-1.7867231369018555,-0.017682909965515137
1761330849652124700,6.398124755859375,-1.418914794921875,-1.5919921398162842,-0.15379375219345093
1761330849670825700,6.41682568359375,-1.9096956253051758,-1.3263959884643555,-0.22535794973373413
1761330849689526500,6.435526611328125,-1.8462185859680176,-1.3047232627868652,-0.15759092569351196
1761330849708227300,6.454227294921875,-1.395045280456543,-1.2425742149353027,-0.13285097479820251
1761330849726928400,6.472928466796875,-0.9192905426025391,-1.0123064517974854,-0.07337826490402222
1761330849745629200,6.491629150390625,-0.9816303253173828,-0.7820329666137695,-0.005038082599639893
1761330849764330200,6.510330322265625,-1.3605566024780273,-0.4832649230957031,0.025113821029663086
1761330849783031000,6.529031005859375,-1.8701972961425781,-0.2154996395111084,-0.17933636903762817
1761330849801731800,6.54773193359375,-2.1274547576904297,-0.011397361755371094,-0.24212536215782166
1761330849820432600,6.5664326171875,-2.0513124465942383,0.14843130111694336,-0.2676612138748169
1761330849839133700,6.5851337890625,-1.8829851150512695,0.13709306716918945,-0.18988175690174103
1761330849857834500,6.60383447265625,-1.530351161956787,0.1804335117340088,-0.23714381456375122
1761330849876535600,6.62253564453125,-1.0631523132324219,0.15461945533752441,-0.4618381857872009
1761330849895236400,6.641236328125,-0.7538375854492188,0.14880824089050293,-0.7628084421157837
1761330849913937200,6.659937255859375,-0.6199178695678711,0.21313166618347168,-0.745589554309845
1761330849932638200,6.67863818359375,-0.41234779357910156,0.3298361301422119,-0.5467209815979004
1761330849951339000,6.697339111328125,-0.23212242126464844,0.5507032871246338,-0.34786257147789
1761330849970039800,6.716039794921875,-0.24966812133789062,0.8042893409729004,-0.15298950672149658
1761330849988740900,6.734740966796875,-0.3159141540527344,0.9963405132293701,-0.13430865108966827
1761330850007441700,6.753441650390625,-0.07311630249023438,1.2397303581237793,-0.14008699357509613
1761330850026142700,6.772142822265625,0.33167266845703125,1.421151876449585,-0.17399337887763977
1761330850044843500,6.790843505859375,0.8405303955078125,1.4218158721923828,-0.0022254884243011475
1761330850063544300,6.80954443359375,1.633819580078125,1.123514175415039,0.44803741574287415
1761330850082245400,6.828245361328125,2.7644243240356445,0.8240973949432373,0.751091480255127
1761330850100946200,6.8469462890625,3.6428709030151367,0.802229642868042,0.7402205467224121
1761330850119647200,6.865647216796875,3.427495002746582,1.13616943359375,0.43560367822647095
1761330850138348000,6.88434814453125,1.9375925064086914,1.5325775146484375,-0.18113726377487183
1761330850157048800,6.903048828125,0.8196325302124023,0.45192432403564453,0.7131224870681763
1761330850175750000,6.92175,0.8855066299438477,-0.2890477180480957,1.250510573387146
1761330850194450700,6.94045068359375,0.9811305999755859,-0.5974950790405273,0.741296648979187
1761330850213151500,6.9591513671875,0.39293766021728516,-0.8315794467926025,-0.2223556637763977
1761330850231852500,6.9778525390625,-0.5387706756591797,-1.0357089042663574,-0.5962648391723633
1761330850250553300,6.99655322265625,-0.9931859970092773,-1.2100353240966797,-0.7332050204277039
1761330850269254400,7.01525439453125,-0.6957063674926758,-1.1378271579742432,-0.680665910243988
1761330850287955200,7.033955078125,-0.10257911682128906,-1.1396234035491943,-0.02205514907836914
1761330850306656000,7.052656005859375,0.1646099090576172,-1.1534407138824463,0.7186060547828674
1761330850325357000,7.071357177734375,-0.168426513671875,-1.0314974784851074,1.0469681024551392
1761330850344057900,7.090057861328125,-0.6466035842895508,-0.8256735801696777,0.8554934859275818
1761330850362759000,7.108759033203125,-0.9693565368652344,-0.7093346118927002,0.32565003633499146
1761330850381459700,7.127459716796875,-1.0847969055175781,-0.6508183479309082,-0.22703799605369568
1761330850400160500,7.146160400390625,-1.1113414764404297,-0.4330172538757324,-0.5081261396408081
1761330850418861600,7.164861572265625,-1.1042814254760742,-0.2427663803100586,-0.4649338722229004
1761330850437562400,7.183562255859375,-1.220001220703125,-0.008189678192138672,-0.23776674270629883
1761330850456263200,7.20226318359375,-1.303727149963379,0.2777097225189209,0.22322016954421997
1761330850474964200,7.220964111328125,-1.1177978515625,-0.09283733367919922,0.8189151287078857
1761330850493665000,7.2396650390625,-1.174102783203125,-0.05730009078979492,0.6450140476226807
1761330850512365800,7.25836572265625,-1.381950855255127,-0.0517573356628418,0.4019852876663208
1761330850531067000,7.27706689453125,-0.999302864074707,0.08011555671691895,0.3555377125740051
1761330850549767700,7.295767578125,-0.3402557373046875,0.22216534614562988,0.4980906844139099
1761330850568468500,7.314468505859375,-0.20702457427978516,0.33880615234375,0.5988962054252625
1761330850587169500,7.33316943359375,-0.18103885650634766,0.6041624546051025,0.5116890072822571
1761330850605870300,7.351870361328125,-0.3190603256225586,0.773209810256958,0.46040618419647217
1761330850624571400,7.3705712890625,-0.4006204605102539,1.0040221214294434,0.2687547206878662
1761330850643272200,7.389272216796875,-0.46850013732910156,1.248960256576538,0.034339964389801025
1761330850661973000,7.407972900390625,-0.5234279632568359,1.455122470855713,-0.02524709701538086
1761330850680674000,7.426674072265625,-0.25469017028808594,1.6245379447937012,-0.06644070148468018
1761330850699374800,7.445374755859375,0.30563831329345703,1.7252657413482666,-0.1587028205394745
1761330850718075600,7.46407568359375,1.2033538818359375,1.6831448078155518,-0.1264236569404602
1761330850736776700,7.482776611328125,1.9885025024414062,1.3989877700805664,0.06992784142494202
1761330850755477500,7.5014775390625,2.6143970489501953,1.1608741283416748,0.07204869389533997
1761330850774178600,7.520178466796875,2.874669075012207,1.2792072296142578,-0.522207498550415
1761330850792879400,7.53887939453125,2.6436100006103516,1.613192081451416,-1.50691556930542
1761330850811580200,7.557580078125,2.2873611450195312,1.215825080871582,-1.0705028772354126
1761330850830281000,7.576281005859375,2.5788841247558594,0.10649347305297852,0.2743481993675232
1761330850848982000,7.59498193359375,3.388690948486328,-0.4407389163970947,-0.0686236023902893
1761330850867683000,7.61368310546875,3.3975725173950195,-1.1471115350723267,-0.4129052460193634
1761330850886383900,7.6323837890625,2.918330192565918,-1.7084472179412842,-0.11794763803482056
1761330850905084700,7.651084716796875,1.9048519134521484,-2.161729574203491,0.35332220792770386
1761330850923785500,7.669785400390625,1.1370658874511719,-2.609609842300415,0.9433708190917969
1761330850942486500,7.688486572265625,0.22279644012451172,-2.4507596492767334,0.9307186603546143
1761330850961187300,7.707187255859375,-0.5685005187988281,-2.061260938644409,0.7375441789627075
1761330850979888400,7.725888427734375,-1.363070011138916,-1.6070106029510498,0.5160003900527954
1761330850998589200,7.744589111328125,-2.1704087257385254,-1.4222943782806396,0.010997757315635681
1761330851017290000,7.7632900390625,-3.1185302734375,-1.2161774635314941,-0.6754611730575562
1761330851035991000,7.781990966796875,-3.469414710998535,-1.0100717544555664,-1.0500282049179077
1761330851054691800,7.80069189453125,-3.2235145568847656,-0.9190354347229004,-0.698229193687439
1761330851073392600,7.819392578125,-2.9177732467651367,-0.6428370475769043,-0.39535823464393616
1761330851092093700,7.83809375,-2.507205009460449,-0.45342302322387695,-0.535312294960022
1761330851110794500,7.85679443359375,-2.27780818939209,-0.4420905113220215,-1.0045452117919922
1761330851129495600,7.87549560546875,-1.9569807052612305,-0.36208105087280273,-1.137747049331665
1761330851148196400,7.8941962890625,-1.5256342887878418,-0.2322390079498291,-0.911898672580719
1761330851166897200,7.912897216796875,-0.8632841110229492,-0.09688878059387207,-0.5315492749214172
1761330851185598200,7.93159814453125,-0.43915653228759766,-0.09583926200866699,-0.21373558044433594
1761330851204299000,7.950299072265625,-0.40923404693603516,-0.08531308174133301,-0.3195885419845581
1761330851222999800,7.968999755859375,-0.7094488143920898,0.13828539848327637,-0.6735726594924927
1761330851241700900,7.987700927734375,-0.8844633102416992,0.4062795639038086,-0.9406409859657288
1761330851260401700,8.006401611328124,-0.8324337005615234,0.5695321559906006,-0.8303640484809875
1761330851279102500,8.0251025390625,-0.4576091766357422,0.6771876811981201,-0.5071483850479126
1761330851297803500,8.043803466796875,-0.052725791931152344,0.7884888648986816,-0.11718711256980896
1761330851316504300,8.06250439453125,0.09158515930175781,0.9858667850494385,-0.14237719774246216
1761330851335205000,8.081205078125,0.1870269775390625,1.381608009338379,-0.5144344568252563
1761330851353906200,8.09990625,0.2635021209716797,1.425555944442749,-0.5392512083053589
1761330851372607000,8.11860693359375,0.6113824844360352,1.244713544845581,-0.6261211633682251
1761330851391308000,8.13730810546875,1.1784753799438477,1.2991037368774414,0.489058256149292
1761330851410008800,8.1560087890625,1.976740837097168,1.3112120628356934,1.5145996809005737
1761330851428709600,8.174709716796874,2.4762001037597656,1.4174792766571045,1.1017382144927979
1761330851447410700,8.19341064453125,2.3842296600341797,1.179326057434082,0.8216939568519592
1761330851466111500,8.212111572265625,2.6261444091796875,0.8349051475524902,1.3071867227554321
1761330851484812500,8.2308125,3.1245880126953125,0.5993831157684326,1.3189711570739746
1761330851503513300,8.249513427734374,3.3166885375976562,-0.09505772590637207,0.708489716053009
1761330851522214100,8.268214111328126,3.05850887298584,-0.5894629955291748,0.11568033695220947
1761330851540915000,8.2869150390625,2.488448143005371,-1.008739709854126,-0.07155290246009827
1761330851559616000,8.305615966796875,1.8382205963134766,-1.2168705463409424,0.1291433870792389
1761330851578316800,8.32431689453125,1.4780120849609375,-1.2102665901184082,0.11665058135986328
1761330851597017900,8.343017822265624,1.1338300704956055,-1.1710176467895508,0.7424725890159607
1761330851615718700,8.36171875,0.4806356430053711,-1.5407583713531494,1.1201828718185425
1761330851634419500,8.38041943359375,-0.49338436126708984,-1.631723403930664,1.0471558570861816
1761330851653120500,8.39912060546875,-1.4569501876831055,-1.7097854614257812,0.4236624240875244
1761330851671821300,8.4178212890625,-2.203301429748535,-1.5580317974090576,-0.16446948051452637
1761330851690522000,8.436522216796876,-2.289361000061035,-1.3311736583709717,-0.05478695034980774
1761330851709223200,8.45522314453125,-2.2413434982299805,-1.2996277809143066,0.3163042664527893
1761330851727924000,8.473924072265625,-2.331329345703125,-1.2600042819976807,0.3912084400653839
1761330851746625000,8.492625,-2.14786434173584,-1.0485663414001465,0.023956969380378723
1761330851765325800,8.511325927734376,-1.4499530792236328,-0.8424386978149414,-0.011572413146495819
1761330851784026600,8.530026611328125,-1.0222091674804688,-0.7339303493499756,0.08472316712141037
1761330851802727400,8.5487275390625,-0.9765129089355469,-0.5140831470489502,0.2731770873069763
1761330851821428500,8.567428466796875,-0.8394231796264648,-0.24439597129821777,0.518983781337738
1761330851840129300,8.58612939453125,-0.6324291229248047,-0.17666983604431152,0.9316210150718689
1761330851858830300,8.604830322265625,-0.6330099105834961,-0.1138918399810791,1.018833875656128
1761330851877531100,8.62353125,-0.9188203811645508,0.056192636489868164,0.6883135437965393
1761330851896232000,8.64223193359375,-1.2876291275024414,0.14047694206237793,0.28926119208335876
1761330851914933000,8.66093310546875,-1.4643540382385254,0.31789588928222656,0.011163044720888138
1761330851933633800,8.6796337890625,-1.383652687072754,0.6018311977386475,-0.30647197365760803
1761330851952334800,8.6983349609375,-1.2932167053222656,0.9020872116088867,-0.37183520197868347
1761330851971035600,8.71703564453125,-1.1350135803222656,1.078507423400879,-0.14355547726154327
1761330851989736400,8.735736328125,-0.8090229034423828,1.1782848834991455,-0.017664805054664612
1761330852008437200,8.754437255859376,-0.4535207748413086,1.2721171379089355,-0.21883340179920197
1761330852027138300,8.77313818359375,-0.15556621551513672,1.3261959552764893,-0.5447656512260437
1761330852045839000,8.791839111328125,0.23267650604248047,1.3494577407836914,-0.8242655396461487
1761330852064540200,8.8105400390625,0.7523488998413086,1.3355891704559326,-0.9078414440155029
1761330852083241000,8.829240966796876,1.5455656051635742,1.385429859161377,-0.9802932739257812
1761330852101941800,8.847941650390625,2.1934585571289062,1.343625783920288,-0.7538622617721558
1761330852120642800,8.866642822265625,2.30911922454834,1.3911447525024414,-0.6285229921340942
1761330852139343600,8.885343505859375,1.8300065994262695,1.5968289375305176,-0.7980678081512451
1761330852158044400,8.90404443359375,1.5399665832519531,1.2856297492980957,-0.9536548852920532
1761330852176745500,8.922745361328126,1.7359991073608398,0.432314395904541,-0.3888695240020752
1761330852195446300,8.9414462890625,2.1274585723876953,-0.22028446197509766,0.2831021845340729
1761330852214147300,8.960147216796875,2.201981544494629,-0.8547096252441406,0.5430930256843567
1761330852232848100,8.97884814453125,1.8786907196044922,-1.3456711769104004,0.7218062281608582
1761330852251549000,8.997548828125,1.3583145141601562,-1.311741828918457,1.0995402336120605
1761330852270249700,9.016249755859375,1.1420927047729492,-1.2010598182678223,1.524396538734436
1761330852288950800,9.03495068359375,0.9356565475463867,-1.2392020225524902,1.7992886304855347
1761330852307651600,9.053651611328124,0.5158061981201172,-1.2815418243408203,1.7149147987365723
1761330852326352600,9.0723525390625,-0.11302947998046875,-1.26708984375,1.317251205444336
1761330852345053400,9.091053466796875,-0.7997493743896484,-1.1713929176330566,0.7224602699279785
1761330852363754200,9.109754150390625,-0.9477682113647461,-1.015428066253662,0.2146729826927185
1761330852382455300,9.128455322265625,-0.8605775833129883,-0.9882829189300537,0.0005116760730743408
1761330852401156000,9.147156005859374,-0.6360921859741211,-0.9666256904602051,-0.01872214674949646
1761330852419857000,9.16585693359375,-0.7875165939331055,-0.9333343505859375,0.05108422040939331
1761330852438558000,9.184557861328125,-1.0939626693725586,-0.762298583984375,-0.09046176075935364
1761330852457258800,9.2032587890625,-1.5565576553344727,-0.6456093788146973,-0.10315179824829102
1761330852475959600,9.22195947265625,-1.9185380935668945,-0.4232475757598877,-0.37515515089035034
1761330852494660600,9.24066064453125,-2.287226676940918,-0.20824289321899414,-0.46148616075515747
1761330852513361400,9.259361328125,-2.4685583114624023,-0.05120563507080078,-0.49042248725891113
1761330852532062200,9.278062255859375,-2.3610668182373047,-0.08224058151245117,-0.31581947207450867
1761330852550763300,9.29676318359375,-2.1665902137756348,-0.10395669937133789,-0.11036866903305054
1761330852569464000,9.315464111328126,-1.8108930587768555,-0.07306098937988281,-0.28206998109817505
1761330852588165000,9.3341650390625,-1.4500222206115723,-0.03865385055541992,-0.4709937572479248
1761330852606866000,9.352865966796875,-1.2615561485290527,0.041871070861816406,-0.6223540306091309
1761330852625566700,9.371566650390625,-1.0377864837646484,0.23802900314331055,-0.7180381417274475
1761330852644267500,9.390267578125,-0.6977691650390625,0.44319725036621094,-0.6082768440246582
1761330852662968600,9.408968505859375,-0.5050172805786133,0.6747689247131348,-0.29139184951782227
1761330852681669400,9.42766943359375,-0.5314207077026367,0.9298825263977051,0.09893321990966797
1761330852700370400,9.446370361328125,-0.6816778182983398,1.2033910751342773,-0.0028946995735168457
1761330852719071200,9.4650712890625,-0.8103656768798828,1.3985247611999512,-0.6189640760421753
1761330852737772000,9.48377197265625,-0.5947055816650391,1.550588607788086,-1.0504848957061768
1761330852756472800,9.502472900390625,0.055869102478027344,1.3678326606750488,-0.5539857149124146
1761330852775174000,9.521173828125,1.2340936660766602,1.247025728225708,0.3509279489517212
1761330852793874700,9.539874755859374,3.1883163452148438,0.9443833827972412,0.6523006558418274
1761330852812575700,9.55857568359375,3.2648773193359375,2.01774525642395,-0.5679709315299988
1761330852831276500,9.577276611328125,2.6343908309936523,0.8261926174163818,0.933204174041748
1761330852849977300,9.595977294921875,2.7485389709472656,0.2160940170288086,2.645749092102051
