time,seconds_elapsed,z,y,x
1761330843332311600,0.0783115234375,8.506484031677246,4.299902439117432,-0.6221339106559753
1761330843351012400,0.097012451171875,8.264809608459473,4.711467742919922,-0.6245267391204834
1761330843369713400,0.11571337890625,8.554341316223145,4.922036170959473,-0.5455635786056519
1761330843388414200,0.134414306640625,8.858229637145996,5.170889854431152,-0.6795616149902344
1761330843407115300,0.153115234375,10.009177207946777,5.309673309326172,-0.44027936458587646
1761330843425816000,0.171816162109375,10.01874828338623,4.991427898406982,-0.45942193269729614
1761330843444516900,0.190516845703125,9.738788604736328,4.780859470367432,-0.5335994362831116
1761330843463218000,0.209218017578125,10.877771377563477,4.759324073791504,0.11246266216039658
1761330843481918700,0.227918701171875,11.846864700317383,4.701896667480469,0.7776673436164856
1761330843500619500,0.24661962890625,11.983255386352539,4.823930263519287,1.00259268283844
1761330843519320600,0.265320556640625,11.607583045959473,4.338187217712402,1.6462619304656982
1761330843538021400,0.284021484375,11.408978462219238,3.9074792861938477,2.4335005283355713
1761330843556722400,0.302722412109375,11.267802238464355,3.31884503364563,2.4670002460479736
1761330843575423200,0.32142333984375,11.095519065856934,2.8833513259887695,1.6510475873947144
1761330843594124000,0.3401240234375,10.882556915283203,2.7732813358306885,0.9547362327575684
1761330843612825000,0.3588251953125,10.820343971252441,2.4263222217559814,0.8805587291717529
1761330843631526000,0.37752587890625,10.621739387512207,2.146361827850342,0.9236295223236084
1761330843650227000,0.39622705078125,9.999606132507324,2.060220241546631,0.8111668825149536
1761330843668927700,0.414927734375,9.324830055236816,2.124826431274414,0.5742774605751038
1761330843687628500,0.433628662109375,8.554341316223145,2.2229323387145996,0.5000999569892883
1761330843706329600,0.45232958984375,7.83410120010376,2.376072883605957,0.2679961323738098
1761330843725030400,0.471030517578125,7.487142086029053,2.4358935356140137,0.14356936514377594
1761330843743731200,0.489731201171875,7.396214962005615,2.469393014907837,0.24167509377002716
1761330843762432300,0.508432373046875,7.551748275756836,2.713460922241211,0.22492532432079315
1761330843781133000,0.527133056640625,7.5804619789123535,2.8761727809906006,0.33020952343940735
1761330843799834000,0.545834228515625,7.575676441192627,2.967100143432617,0.37806597352027893
1761330843818535000,0.564534912109375,7.479963779449463,3.074777126312256,0.32303106784820557
1761330843837235700,0.583235595703125,7.214360237121582,3.1680972576141357,0.3852444589138031
1761330843855936800,0.601936767578125,7.283751964569092,3.390629768371582,0.4259224236011505
1761330843874637600,0.620637451171875,7.680960655212402,3.3547372817993164,0.8446664214134216
1761330843893338600,0.639338623046875,7.898707389831543,3.2925238609313965,1.1988041400909424
1761330843912039400,0.658039306640625,7.934599876403809,3.5030922889709473,1.0432707071304321
1761330843930740200,0.676740234375,7.858029365539551,3.761517286300659,0.6364908218383789
1761330843949441300,0.695441162109375,7.869993686676025,3.871587038040161,0.380458801984787
1761330843968142000,0.71414208984375,7.848458290100098,4.00319242477417,0.24406790733337402
1761330843986843000,0.7328427734375,7.846065521240234,4.125226020812988,0.09092725813388824
1761330844005544000,0.7515439453125,8.042277336120605,4.213760852813721,-0.07896314561367035
1761330844024244700,0.77024462890625,8.597412109375,4.199403762817383,-0.2919243574142456
1761330844042945800,0.78894580078125,9.437292098999023,4.137190341949463,-0.2632105052471161
1761330844061646600,0.807646484375,10.00439167022705,4.161118507385254,-0.30149564146995544
1761330844080347600,0.82634765625,10.293923377990723,4.400400638580322,-0.7537391185760498
1761330844099048400,0.84504833984375,10.53081226348877,4.677968502044678,-1.1485549211502075
1761330844117749200,0.863749267578125,10.96869945526123,4.8574299812316895,-1.00259268283844
1761330844136450000,0.882449951171875,11.373085975646973,4.934000492095947,-0.48813581466674805
1761330844155151000,0.901151123046875,11.665010452270508,4.955535888671875,-0.05503492057323456
1761330844173852200,0.91985205078125,11.686545372009277,4.981856822967529,-0.019142581149935722
1761330844192553000,0.938552978515625,11.571690559387207,5.134997367858887,-0.349352091550827
1761330844211253800,0.957253662109375,11.11466121673584,4.6301116943359375,0.22492532432079315
1761330844229954800,0.975954833984375,10.935199737548828,3.2279176712036133,0.6508477330207825
1761330844248655600,0.994655517578125,11.554940223693848,1.8544375896453857,0.37088751792907715
1761330844267356400,1.0133564453125,12.098111152648926,1.1676974296569824,-0.6029912829399109
1761330844286057500,1.032057373046875,12.107682228088379,1.0504491329193115,-1.4835500717163086
1761330844304758300,1.05075830078125,11.509476661682129,1.2538390159606934,-1.703689694404602
1761330844323459300,1.069459228515625,10.715060234069824,1.801795482635498,-1.246660590171814
1761330844342160100,1.08816015625,9.848857879638672,2.053041934967041,-1.0193424224853516
1761330844360861000,1.10686083984375,8.949156761169434,2.0410776138305664,-0.698704183101654
1761330844379562000,1.12556201171875,8.123632431030273,2.2444677352905273,-0.8039883971214294
1761330844398262800,1.1442626953125,7.70967435836792,2.3330020904541016,-1.0719845294952393
1761330844416963600,1.162963623046875,7.922635555267334,2.1774685382843018,-1.1365907192230225
1761330844435664600,1.18166455078125,8.271987915039062,2.201396942138672,-1.0265209674835205
1761330844454365400,1.200365478515625,8.396414756774902,2.313859462738037,-1.1318050622940063
1761330844473066500,1.21906640625,8.207381248474121,2.526820659637451,-1.2945170402526855
1761330844491767300,1.237767333984375,7.774280548095703,2.9694929122924805,-1.6582261323928833
1761330844510468000,1.256468017578125,7.288537979125977,3.1992039680480957,-1.9262222051620483
1761330844529169200,1.275169189453125,7.066005229949951,3.4121651649475098,-1.8735800981521606
1761330844547870000,1.293869873046875,7.1856465339660645,3.641875982284546,-1.1318050622940063
1761330844566571000,1.312571044921875,7.032505512237549,3.704089403152466,-0.2727817893028259
1761330844585271800,1.331271728515625,6.888936519622803,3.649054527282715,-0.1459621787071228
1761330844603972600,1.34997265625,6.742974281311035,3.830909013748169,0.02392822690308094
1761330844622673700,1.368673583984375,6.891329288482666,3.9218363761901855,0.09092725813388824
1761330844641374500,1.38737451171875,7.733603000640869,4.053441524505615,-0.20338992774486542
1761330844660075300,1.4060751953125,8.207381248474121,4.01754903793335,-0.5240281820297241
1761330844678776300,1.4247763671875,8.176275253295898,4.029513359069824,-0.7154539823532104
1761330844697477000,1.44347705078125,8.415556907653809,4.311866283416748,-0.641276478767395
1761330844716178200,1.46217822265625,9.123832702636719,4.7234320640563965,-0.6675975322723389
1761330844734879000,1.48087890625,9.487542152404785,4.728217601776123,-0.3900300860404968
1761330844753580000,1.499580078125,9.590433120727539,4.744967460632324,-0.14117653667926788
1761330844772280800,1.51828076171875,10.00439167022705,4.831109046936035,0.27038896083831787
1761330844790981600,1.536981689453125,11.088339805603027,4.838287353515625,0.6460621356964111
1761330844809682700,1.5556826171875,12.727423667907715,4.742574691772461,1.0360921621322632
1761330844828383500,1.574383544921875,14.246866226196289,4.5583271980285645,1.7204394340515137
1761330844847084500,1.59308447265625,13.852049827575684,4.828716278076172,2.100898265838623
1761330844865785300,1.611785400390625,11.60279655456543,5.087141036987305,1.4524433612823486
1761330844884486100,1.630486083984375,9.731609344482422,4.6372904777526855,0.8949156403541565
1761330844903187200,1.649187255859375,9.298508644104004,4.07258415222168,0.763310432434082
1761330844921888000,1.667887939453125,9.693324089050293,3.94815731048584,0.882951557636261
1761330844940588800,1.6865888671875,10.234102249145508,3.373879909515381,1.2897313833236694
1761330844959289900,1.705289794921875,10.906485557556152,2.864208698272705,1.5361921787261963
1761330844977990700,1.72399072265625,11.310873031616211,2.4885356426239014,1.399801254272461
1761330844996691700,1.742691650390625,11.37069320678711,1.9142581224441528,1.5409778356552124
1761330845015392500,1.761392578125,10.198209762573242,1.6917256116867065,1.6103696823120117
1761330845034093300,1.78009326171875,9.097511291503906,1.828116536140442,1.2275179624557495
1761330845052794400,1.79879443359375,8.616554260253906,1.8544375896453857,1.1653046607971191
1761330845071495200,1.8174951171875,8.760123252868652,1.919043779373169,0.6460621356964111
1761330845090196200,1.8361962890625,8.695517539978027,2.0338993072509766,0.44027936458587646
1761330845108897000,1.85489697265625,8.346165657043457,2.335394859313965,-0.1746760457754135
1761330845127598000,1.87359814453125,7.338787078857422,2.785245656967163,-0.1052841991186142
1761330845146299000,1.892298828125,6.721438884735107,3.170490026473999,0.8685946464538574
1761330845164999700,1.910999755859375,6.671189308166504,3.6227335929870605,1.3950155973434448
1761330845183700700,1.92970068359375,6.726224422454834,3.665804386138916,0.9547362327575684
1761330845202401500,1.948401611328125,7.015756130218506,3.531806230545044,1.0839486122131348
1761330845221102300,1.967102294921875,7.231110095977783,3.6227335929870605,1.3806586265563965
1761330845239803400,1.985803466796875,7.439285755157471,3.8333017826080322,1.0265209674835205
1761330845258504200,2.004504150390625,7.546962738037109,3.845266103744507,1.093519926071167
1761330845277205200,2.023205322265625,7.238288402557373,3.436093330383301,2.227717876434326
1761330845295906000,2.041906005859375,7.372286796569824,4.252045631408691,1.7395820617675781
1761330845314606800,2.06060693359375,7.240681171417236,4.46979284286499,1.5385849475860596
1761330845333308000,2.079307861328125,7.125825881958008,4.450650215148926,1.1150553226470947
1761330845352008700,2.0980087890625,7.420143127441406,4.804787635803223,0.7178468108177185
1761330845370709800,2.116709716796875,7.898707389831543,4.972285270690918,0.7992027401924133
1761330845389410600,2.13541064453125,8.34138011932373,5.178068161010742,0.973878800868988
1761330845408111400,2.154111328125,8.95394229888916,5.2737812995910645,0.8614161610603333
1761330845426812400,2.1728125,9.454042434692383,5.350351333618164,0.9523434042930603
1761330845445513200,2.19151318359375,10.102497100830078,5.513063430786133,0.5575276613235474
1761330845464214000,2.210214111328125,10.686346054077148,5.496313571929932,0.607776939868927
1761330845482915000,2.2289150390625,11.277373313903809,5.412564754486084,0.7393822073936462
1761330845501615900,2.247615966796875,11.68175983428955,5.242674350738525,0.849452018737793
1761330845520317000,2.26631689453125,11.715259552001953,5.2737812995910645,0.5982056856155396
1761330845539017700,2.285017822265625,11.492727279663086,5.285745143890381,0.3732803463935852
1761330845557718800,2.30371875,11.382657051086426,4.95074987411499,0.6484549641609192
1761330845576419600,2.322419677734375,11.48076343536377,3.90987229347229,0.8781659007072449
1761330845595120400,2.341120361328125,11.83729362487793,2.7493531703948975,0.7034898400306702
1761330845613822000,2.359822021484375,12.445070266723633,1.7874385118484497,0.32542386651039124
1761330845632522000,2.37852197265625,12.674781799316406,1.1389836072921753,0.15074782073497772
1761330845651223000,2.39722314453125,12.258430480957031,1.0480563640594482,-0.02632104977965355
1761330845669923800,2.415923828125,11.286944389343262,1.2179467678070068,0.20099709928035736
1761330845688625000,2.434625,10.104889869689941,1.5050854682922363,0.42352959513664246
1761330845707325700,2.45332568359375,9.193224906921387,1.801795482635498,0.34695929288864136
1761330845726026800,2.47202685546875,8.38684368133545,1.978864312171936,0.07896314561367035
1761330845744727600,2.4907275390625,7.814958572387695,2.0673987865448,-0.2560320198535919
1761330845763428400,2.509428466796875,7.5565338134765625,2.194218397140503,-0.3038884699344635
1761330845782129200,2.528129150390625,7.434499740600586,2.4047868251800537,-0.12442677468061447
1761330845800830200,2.546830322265625,7.286144733428955,2.7517459392547607,0.08853443711996078
1761330845819531000,2.565531005859375,7.032505512237549,3.1441688537597656,0.12203395366668701
1761330845838232000,2.584232177734375,6.640082836151123,3.555734395980835,-0.3206382393836975
1761330845856932900,2.602932861328125,6.211767673492432,3.5461630821228027,-0.35892340540885925
1761330845875634000,2.621634033203125,6.32662296295166,3.4719855785369873,-0.39960137009620667
1761330845894334700,2.640334716796875,6.740581512451172,3.507878065109253,-0.5479564070701599
1761330845913035500,2.659035400390625,6.896114826202393,3.500699520111084,-0.6484549641609192
1761330845931736600,2.677736572265625,6.893722057342529,3.5030922889709473,-0.7537391185760498
1761330845950437400,2.696437255859375,6.948757171630859,3.2231321334838867,-0.727418065071106
1761330845969138400,2.715138427734375,7.204789161682129,3.326023578643799,-0.9427721500396729
1761330845987839200,2.733839111328125,7.714460372924805,3.4097721576690674,-1.1222338676452637
1761330846006540000,2.7525400390625,8.260024070739746,3.596412420272827,-1.1054840087890625
1761330846025241000,2.771240966796875,8.537590980529785,3.7471601963043213,-0.6436693072319031
1761330846043942000,2.78994189453125,8.719446182250977,4.0797624588012695,-0.14117653667926788
1761330846062642700,2.808642578125,8.999405860900879,4.498506546020508,0.12681959569454193
1761330846081343700,2.82734375,9.351150512695312,4.9292144775390625,0.16749759018421173
1761330846100044800,2.846044921875,9.585647583007812,5.513063430786133,-0.08135596662759781
1761330846118745600,2.86474560546875,10.212567329406738,5.941378593444824,-0.22971096634864807
1761330846137446400,2.8834462890625,10.911271095275879,5.7547383308410645,0.605384111404419
1761330846156147500,2.9021474609375,12.260823249816895,5.8959150314331055,1.6055840253829956
1761330846174848300,2.92084814453125,13.457234382629395,6.087340831756592,2.4406790733337402
1761330846193549000,2.939549072265625,13.452448844909668,5.690132141113281,2.9048867225646973
1761330846212250000,2.95825,13.339985847473145,4.587040901184082,3.85483717918396
1761330846230951000,2.976950927734375,13.514662742614746,3.493520975112915,3.964907169342041
1761330846249652000,2.99565185546875,12.835101127624512,3.294916868209839,2.912065267562866
1761330846268352800,3.014352783203125,11.944971084594727,3.2518460750579834,2.1511476039886475
1761330846287053600,3.033053466796875,11.179266929626465,2.957528829574585,2.2133610248565674
1761330846305754600,3.051754638671875,10.461421012878418,2.462214469909668,2.4717857837677
1761330846324455400,3.070455322265625,9.975677490234375,2.0506489276885986,2.5292134284973145
1761330846343156200,3.08915625,9.470791816711426,1.672582983970642,2.3018953800201416
1761330846361857300,3.107857177734375,8.920442581176758,1.428515076637268,1.6941183805465698
1761330846380558300,3.126558349609375,8.173882484436035,1.4931213855743408,0.973878800868988
1761330846399259100,3.145259033203125,7.334001541137695,1.710868239402771,0.5048855543136597
1761330846417960000,3.1639599609375,6.534798622131348,2.148754835128784,0.2919243574142456
1761330846436661000,3.182660888671875,6.206982135772705,2.3736801147460938,0.12921242415905
1761330846455361800,3.20136181640625,6.259624004364014,2.8115665912628174,-0.009571290574967861
1761330846474062600,3.2200625,6.362515449523926,2.720639228820801,0.28953152894973755
1761330846492763600,3.238763671875,6.585047721862793,3.1800613403320312,0.3158525824546814
1761330846511464400,3.25746435546875,6.826723098754883,3.2135608196258545,0.6101697683334351
1761330846530165500,3.27616552734375,7.36032247543335,3.3164522647857666,0.5982056856155396
1761330846548866300,3.2948662109375,7.712067604064941,3.4265220165252686,0.7513462901115417
1761330846567567000,3.313567138671875,7.9250288009643555,3.462414264678955,0.8542376756668091
1761330846586268200,3.33226806640625,8.066205024719238,3.634697675704956,0.8973084688186646
1761330846604969000,3.350968994140625,8.09970474243164,3.579662561416626,1.0145567655563354
1761330846623669800,3.369669677734375,8.468199729919434,3.7256247997283936,0.8039883971214294
1761330846642370800,3.388370849609375,8.72901725769043,4.182653903961182,0.7920243144035339
1761330846661071600,3.407071533203125,8.525627136230469,4.584648132324219,0.8159525394439697
1761330846679772700,3.425772705078125,8.578269004821777,4.78803825378418,0.9499505758285522
1761330846698473500,3.444473388671875,8.997013092041016,5.134997367858887,1.0145567655563354
1761330846717174300,3.46317431640625,9.394221305847168,5.264209747314453,0.7848458290100098
1761330846735875300,3.481875244140625,9.664610862731934,5.498706340789795,0.3397808074951172
1761330846754576100,3.500576171875,9.992427825927734,5.793023586273193,-0.2632105052471161
1761330846773277200,3.519277099609375,10.533205032348633,5.9509501457214355,-0.2584248483181
1761330846791978000,3.53797802734375,11.20080280303955,5.92223596572876,0.0526420995593071
1761330846810679000,3.556678955078125,11.966506004333496,5.998806476593018,0.3397808074951172
1761330846829379800,3.5753798828125,11.760723114013672,6.50608491897583,0.4450650215148926
1761330846848080600,3.59408056640625,10.784451484680176,6.4701924324035645,0.6125625967979431
1761330846866781700,3.61278173828125,10.243673324584961,5.4556355476379395,0.9547362327575684
1761330846885482500,3.631482421875,10.87298583984375,4.118047714233398,1.031306505203247
1761330846904183300,3.650183349609375,11.657832145690918,2.9790642261505127,0.9332008361816406
1761330846922884400,3.66888427734375,12.052647590637207,2.376072883605957,0.7178468108177185
1761330846941585200,3.687585205078125,11.308480262756348,2.3545374870300293,0.4378865361213684
1761330846960286200,3.7062861328125,9.968499183654785,2.589034080505371,0.4426721930503845
1761330846978987000,3.724987060546875,8.769695281982422,2.816352367401123,0.672383189201355
1761330846997687800,3.743687744140625,7.843672752380371,2.864208698272705,0.6101697683334351
1761330847016388900,3.762388916015625,7.197610378265381,2.8450660705566406,0.13160525262355804
1761330847035089700,3.781089599609375,6.896114826202393,2.768495798110962,-0.22492532432079315
1761330847053790700,3.799790771484375,6.898507595062256,2.8139593601226807,-0.5599204897880554
1761330847072491500,3.818491455078125,6.929614543914795,2.9862427711486816,-0.8111668825149536
1761330847091192600,3.837192626953125,6.821937561035156,3.328416347503662,-0.8111668825149536
1761330847109893400,3.855893310546875,6.9583282470703125,3.7088751792907715,-0.5479564070701599
1761330847128594200,3.87459423828125,6.963113784790039,3.950550079345703,-0.28953152894973755
1761330847147295200,3.893295166015625,6.56829833984375,4.151547431945801,-0.3158525824546814
1761330847165996000,3.91199609375,6.362515449523926,4.244867324829102,-0.31106695532798767
1761330847184697000,3.930697021484375,6.5419769287109375,4.29033088684082,-0.4546363055706024
1761330847203398000,3.94939794921875,6.948757171630859,4.386044025421143,-0.4139583110809326
1761330847222098700,3.9680986328125,7.611568927764893,4.400400638580322,-0.3565305769443512
1761330847240799700,3.9867998046875,8.236095428466797,4.244867324829102,-0.39481574296951294
1761330847259500500,4.00550048828125,8.360522270202637,4.144368648529053,-0.41156548261642456
1761330847278201300,4.024201416015625,8.171489715576172,4.1970109939575195,-0.5072783827781677
1761330847296902400,4.04290234375,8.511270523071289,4.515256404876709,-0.8350951075553894
1761330847315603200,4.061603271484375,8.764909744262695,4.792823791503906,-0.7393822073936462
1761330847334304300,4.08030419921875,8.975478172302246,5.1565327644348145,-0.3278166949748993
1761330847353005000,4.099005126953125,9.140582084655762,5.704489231109619,-0.32542386651039124
1761330847371705900,4.117705810546875,8.958727836608887,5.924628734588623,-0.4833501875400543
1761330847390407000,4.136406982421875,8.86062240600586,6.099305152893066,-1.1126625537872314
1761330847409107700,4.155107666015625,9.300901412963867,5.936593055725098,-1.5696916580200195
1761330847427808500,4.17380859375,10.590633392333984,5.38624382019043,-1.4261223077774048
1761330847465210600,4.211210693359375,13.129417419433594,5.082355499267578,0.08853443711996078
1761330847483911400,4.229911376953125,12.91645622253418,5.443671703338623,0.6436693072319031
1761330847502612200,4.2486123046875,12.686745643615723,5.221138954162598,1.4859428405761719
1761330847521313300,4.267313232421875,12.878171920776367,4.7712883949279785,2.0889341831207275
1761330847540014000,4.28601416015625,12.41396427154541,4.225724697113037,2.038684844970703
1761330847558715000,4.30471484375,10.808380126953125,4.015156269073486,1.7204394340515137
1761330847577416000,4.323416015625,9.049654960632324,3.792623996734619,1.301695466041565
1761330847596116700,4.34211669921875,8.207381248474121,3.383451223373413,0.9212366938591003
1761330847614817500,4.360817626953125,8.26241683959961,2.878565549850464,0.5072783827781677
1761330847633518600,4.3795185546875,8.401200294494629,2.383251428604126,0.36610186100006104
1761330847652219400,4.398219482421875,8.252845764160156,2.203789710998535,0.5814558863639832
1761330847670920400,4.41692041015625,7.872386455535889,2.2372891902923584,0.8111668825149536
1761330847689621200,4.435621337890625,7.36032247543335,2.4358935356140137,0.6747759580612183
1761330847708322000,4.454322021484375,6.898507595062256,2.6943182945251465,0.19621145725250244
1761330847727023000,4.473023193359375,6.723831653594971,3.0173492431640625,-0.24646073579788208
1761330847745724200,4.49172412109375,6.893722057342529,3.184846878051758,-0.6843472719192505
1761330847764425000,4.510425048828125,6.850651264190674,3.510270833969116,-0.46420758962631226
1761330847783125800,4.529125732421875,6.929614543914795,3.9122650623321533,-0.33738797903060913
1761330847801826800,4.547826904296875,6.953542709350586,4.261617183685303,-0.38285163044929504
1761330847820527600,4.566527587890625,7.077969551086426,4.383651256561279,-0.3326023519039154
1761330847839228400,4.585228515625,7.295716285705566,4.402793884277344,-0.1698904037475586
1761330847857929500,4.603929443359375,7.573283672332764,4.242474555969238,0.3900300860404968
1761330847876630300,4.62263037109375,8.0350980758667,4.261617183685303,0.9882357716560364
1761330847895331300,4.641331298828125,8.420342445373535,4.445864677429199,1.1174482107162476
1761330847914032000,4.6600322265625,8.803194046020508,4.563112735748291,1.057627558708191
1761330847932733000,4.67873291015625,9.111868858337402,4.807180881500244,0.9571290612220764
1761330847951434000,4.69743408203125,9.035298347473145,5.125426292419434,0.8231309652328491
1761330847970134800,4.716134765625,8.7505521774292,5.388636589050293,0.7704889178276062
1761330847988835800,4.7348359375,8.4562349319458,5.637490272521973,0.8901300430297852
1761330848007536600,4.75353662109375,8.382058143615723,5.8959150314331055,0.9260223507881165
1761330848026237400,4.772237548828125,8.288737297058105,5.936593055725098,0.4618147611618042
1761330848044938500,4.7909384765625,8.22413158416748,5.874379634857178,-0.4977070987224579
1761330848063639300,4.809639404296875,8.336593627929688,5.900700569152832,-1.2251251935958862
1761330848082340000,4.828340087890625,8.870193481445312,5.883950710296631,-1.399801254272461
1761330848101041200,4.847041259765625,9.879964828491211,5.776273727416992,-1.1270195245742798
1761330848119742000,4.865741943359375,11.09073257446289,5.907878875732422,-0.8063812255859375
1761330848138443000,4.884443115234375,11.777473449707031,6.137589931488037,-0.6364908218383789
1761330848157143800,4.903143798828125,11.662617683410645,5.661418437957764,-0.5479564070701599
1761330848175844600,4.9218447265625,11.60279655456543,4.752145767211914,-0.6484549641609192
1761330848194545700,4.940545654296875,11.700902938842773,3.8572301864624023,0.06699903309345245
1761330848213246500,4.95924658203125,11.746366500854492,3.0484559535980225,1.277767300605774
1761330848231947300,4.977947265625,11.633903503417969,2.447857618331909,1.2897313833236694
1761330848250648300,4.9966484375,10.925628662109375,2.242074728012085,0.5096712112426758
1761330848269349400,5.015349365234375,9.712467193603516,2.304288148880005,-0.30149564146995544
1761330848288050200,5.03405029296875,8.800801277160645,2.4095723628997803,-0.519242525100708
1761330848306751000,5.0527509765625,8.382058143615723,2.68953275680542,-0.4737788736820221
1761330848325452000,5.0714521484375,7.908278942108154,2.8354947566986084,-0.4785645306110382
1761330848344152800,5.09015283203125,7.300501823425293,3.0173492431640625,-0.6891329288482666
1761330848362853600,5.108853515625,6.778866767883301,3.1034910678863525,-0.727418065071106
1761330848381554700,5.1275546875,6.7310099601745605,3.10109806060791,-0.6436693072319031
1761330848400255500,5.14625537109375,6.8554368019104,3.3403804302215576,-0.8039883971214294
1761330848418956500,5.16495654296875,7.190432071685791,3.1752755641937256,-0.44027936458587646
1761330848437657300,5.1836572265625,7.6474609375,3.0245277881622314,-0.2225325107574463
1761330848456358100,5.202358154296875,7.980063438415527,3.098705291748047,-0.05503492057323456
1761330848475059200,5.22105908203125,8.051848411560059,3.3332018852233887,-0.31345975399017334
1761330848493760000,5.239760009765625,8.271987915039062,3.5294134616851807,-0.2967100143432617
1761330848512460800,5.258460693359375,8.195417404174805,3.5988051891326904,-0.014356935396790504
1761330848531161900,5.277161865234375,7.767102241516113,3.7232320308685303,0.23449662327766418
1761330848549862700,5.295862548828125,7.566105365753174,3.7543387413024902,0.38285163044929504
1761330848568563700,5.314563720703125,8.090133666992188,3.720839262008667,0.23210379481315613
1761330848587264500,5.333264404296875,9.07119083404541,3.7232320308685303,-0.10767702013254166
1761330848605965300,5.35196533203125,9.719645500183105,3.94097900390625,-0.5096712112426758
1761330848624666400,5.370666259765625,9.805787086486816,4.132404804229736,-0.4785645306110382
1761330848643367200,5.3893671875,10.071390151977539,4.48414945602417,-0.2967100143432617
1761330848662068200,5.408068115234375,10.315458297729492,4.706682205200195,-0.10049854964017868
1761330848680769000,5.42676904296875,10.430314064025879,4.692325115203857,0.11964113265275955
1761330848699469800,5.4454697265625,10.518848419189453,4.9986066818237305,0.031106693670153618
1761330848718171000,5.4641708984375,10.327422142028809,4.764110088348389,0.4019941985607147
1761330848736871700,5.48287158203125,10.317851066589355,4.431507587432861,0.5359922647476196
1761330848755572500,5.501572509765625,10.581061363220215,4.398007869720459,0.8350951075553894
1761330848774273500,5.5202734375,11.203195571899414,4.194618225097656,1.153340458869934
1761330848792974300,5.538974365234375,11.148160934448242,5.0703911781311035,0.7393822073936462
1761330848811675400,5.55767529296875,10.162318229675293,4.6995038986206055,0.8279166221618652
1761330848830376200,5.576376220703125,10.200602531433105,3.924229145050049,1.832902193069458
1761330848849077000,5.595076904296875,10.980663299560547,3.438486099243164,2.218146562576294
1761330848867778000,5.613778076171875,11.251051902770996,3.081955671310425,1.7204394340515137
1761330848886478800,5.632478759765625,10.411170959472656,2.847458839416504,1.4691931009292603
1761330848905180000,5.651179931640625,9.34875774383545,2.6321048736572266,1.5074782371520996
1761330848923880700,5.669880615234375,8.781659126281738,2.3473589420318604,1.5553346872329712
1761330848942581500,5.68858154296875,8.762516975402832,2.2612173557281494,1.4691931009292603
1761330848961282600,5.707282470703125,8.764909744262695,2.3880369663238525,1.2610175609588623
1761330848979983400,5.7259833984375,8.551948547363281,2.6560330390930176,1.2873386144638062
1761330848998684200,5.74468408203125,8.003992080688477,2.878565549850464,1.1174482107162476
1761330849017385200,5.76338525390625,7.04207706451416,3.1130621433258057,0.5168496966362
1761330849036086000,5.7820859375,6.943971157073975,3.115455150604248,-0.14356936514377594
1761330849054787000,5.800787109375,6.975078105926514,3.2853455543518066,-0.397208571434021
1761330849073488000,5.81948779296875,7.3292155265808105,3.326023578643799,-0.41156548261642456
1761330849092189000,5.83818896484375,7.769495010375977,3.2614171504974365,-0.2847459018230438
1761330849110889700,5.8568896484375,8.322237014770508,3.2231321334838867,-0.07657032459974289
1761330849129590500,5.875590576171875,8.784051895141602,3.0891339778900146,-0.11964113265275955
1761330849148291300,5.894291259765625,8.93958568572998,2.981456995010376,-0.17228323221206665
1761330849166992400,5.912992431640625,9.047262191772461,2.9694929122924805,0.28235307335853577
1761330849185693400,5.931693359375,9.260223388671875,2.998206853866577,0.7752745151519775
1761330849204394200,5.950394287109375,9.600004196166992,3.249453067779541,0.5000999569892883
1761330849223095000,5.969094970703125,9.621540069580078,3.5198421478271484,-0.22013968229293823
1761330849241795800,5.9877958984375,9.28893756866455,3.6873397827148438,-0.42352959513664246
1761330849260497000,6.006496826171875,9.068798065185547,3.9672999382019043,-0.2273181527853012
1761330849279197700,6.02519775390625,9.075976371765137,4.2592244148254395,-0.02871387079358101
1761330849297898800,6.043898681640625,9.073583602905273,4.53200626373291,-0.0526420995593071
1761330849316599600,6.062599609375,9.047262191772461,4.709074974060059,-0.2679961323738098
1761330849335300600,6.081300537109375,8.973084449768066,4.831109046936035,-0.5670989751815796
1761330849354001400,6.10000146484375,9.006584167480469,4.9124650955200195,-0.6795616149902344
1761330849372702200,6.1187021484375,9.276973724365234,4.9531426429748535,-0.6939185857772827
1761330849391403000,6.137403076171875,9.848857879638672,4.914857864379883,-0.5383850932121277
1761330849410104000,6.15610400390625,10.494919776916504,4.886143684387207,-0.6269195079803467
1761330849428804900,6.174804931640625,11.018948554992676,5.123033046722412,-0.8781659007072449
1761330849447506000,6.193505859375,10.755738258361816,5.759523868560791,-1.4165509939193726
1761330849466206700,6.212206787109375,10.114460945129395,5.599205017089844,-1.2586246728897095
1761330849484907500,6.230907470703125,10.1814603805542,4.965106964111328,-1.2035897970199585
1761330849503608600,6.249608642578125,10.863414764404297,4.084548473358154,-1.0552347898483276
1761330849522309400,6.268309326171875,11.650653839111328,2.840280532836914,-0.7800601720809937
1761330849541010200,6.28701025390625,12.076576232910156,2.0027925968170166,-0.851844847202301
1761330849559711200,6.305711181640625,11.665010452270508,1.6199408769607544,-1.069591760635376
1761330849578412000,6.324412109375,10.86580753326416,1.5146567821502686,-1.0767701864242554
1761330849597113000,6.343113037109375,9.853643417358398,1.7156537771224976,-0.8350951075553894
1761330849615814000,6.36181396484375,8.898907661437988,2.021935224533081,-0.6149554252624512
1761330849634514700,6.3805146484375,8.051848411560059,2.3018953800201416,-0.6652047038078308
1761330849653215700,6.3992158203125,7.389036178588867,2.5531418323516846,-0.7322037220001221
1761330849671916500,6.41791650390625,7.125825881958008,2.7110681533813477,-0.7250252366065979
1761330849690617600,6.43661767578125,7.420143127441406,2.723032236099243,-0.5958128571510315
1761330849709318400,6.455318359375,7.95134973526001,2.861815929412842,-0.48574298620224
1761330849728019200,6.474019287109375,8.200202941894531,3.0723843574523926,-0.3756731450557709
1761330849746720300,6.49272021484375,7.922635555267334,3.3714871406555176,-0.24167509377002716
1761330849765421000,6.511421142578125,7.420143127441406,3.6634113788604736,-0.38285163044929504
1761330849784121900,6.530121826171875,6.984649181365967,3.91705060005188,-0.4785645306110382
1761330849802823000,6.548822998046875,6.941578388214111,4.110869407653809,-0.5168496966362
1761330849821523700,6.567523681640625,7.054041385650635,4.122833251953125,-0.40677985548973083
1761330849840224800,6.586224853515625,7.334001541137695,4.094119548797607,-0.32542386651039124
1761330849858925600,6.604925537109375,7.786244869232178,4.060619831085205,-0.44027936458587646
1761330849877626400,6.62362646484375,8.209774017333984,3.9840497970581055,-0.7082754969596863
1761330849896327400,6.642327392578125,8.425128936767578,3.964907169342041,-0.8350951075553894
1761330849915028200,6.6610283203125,8.590232849121094,4.005585193634033,-0.6460621356964111
1761330849933729300,6.679729248046875,8.824729919433594,4.177868366241455,-0.39481574296951294
1761330849952430000,6.69843017578125,8.886942863464355,4.433900356292725,-0.11246266216039658
1761330849971131000,6.717130859375,8.855836868286133,4.610969066619873,0.019142581149935722
1761330849989832000,6.73583203125,8.874979019165039,4.874179840087891,-0.0023928226437419653
1761330850008532700,6.75453271484375,9.245866775512695,5.089533805847168,0.035892341285943985
1761330850027233500,6.773233642578125,9.702896118164062,5.247459888458252,0.09810572862625122
1761330850045934600,6.7919345703125,10.365707397460938,4.972285270690918,0.5216353535652161
1761330850064635400,6.810635498046875,11.3778715133667,4.587040901184082,1.057627558708191
1761330850083336400,6.82933642578125,12.543176651000977,4.347758769989014,1.277767300605774
1761330850102037200,6.848037353515625,12.990633964538574,4.46979284286499,1.1772687435150146
1761330850120738000,6.866738037109375,11.952149391174316,5.113461971282959,0.5312066078186035
1761330850139439000,6.885439208984375,10.442277908325195,4.773681163787842,0.7345965504646301
1761330850158140000,6.904139892578125,9.966106414794922,3.735196113586426,1.8233308792114258
1761330850176840700,6.9228408203125,10.183853149414062,3.2925238609313965,1.9692929983139038
1761330850195541800,6.941541748046875,9.999606132507324,3.0484559535980225,1.093519926071167
1761330850214242600,6.96024267578125,9.08554744720459,2.8043880462646484,0.32303106784820557
1761330850232943600,6.978943603515625,8.353343963623047,2.6177480220794678,0.09571290761232376
1761330850251644400,6.99764453125,8.240880966186523,2.572284460067749,-0.0023928226437419653
1761330850270345200,7.01634521484375,8.779266357421875,2.5746772289276123,0.4450650215148926
1761330850289046000,7.0350458984375,9.30329418182373,2.53399920463562,1.2729816436767578
1761330850307747000,7.0537470703125,9.279366493225098,2.5746772289276123,1.8376877307891846
1761330850326448000,7.0724482421875,8.788837432861328,2.723032236099243,1.8352949619293213
1761330850345149000,7.09114892578125,8.389236450195312,2.8666014671325684,1.428515076637268
1761330850363849700,7.109849609375,8.161917686462402,2.8905298709869385,0.7537391185760498
1761330850382550500,7.128550537109375,8.11406135559082,3.0484559535980225,0.17946170270442963
1761330850401251600,7.14725146484375,8.118846893310547,3.211168050765991,0.04785645380616188
1761330850419952400,7.165952392578125,8.068597793579102,3.428914785385132,0.15074782073497772
1761330850438653400,7.1846533203125,8.056633949279785,3.620340585708618,0.5958128571510315
1761330850457354200,7.203354248046875,8.068597793579102,3.5988051891326904,1.153340458869934
1761330850476055000,7.222054931640625,8.111668586730957,3.38105845451355,1.301695466041565
1761330850494756000,7.240756103515625,7.953742504119873,3.4408788681030273,1.0121639966964722
1761330850513457000,7.259456787109375,7.920242786407471,3.4193434715270996,0.8709874153137207
1761330850532157700,7.27815771484375,8.678768157958984,3.524627685546875,0.9499505758285522
1761330850550858800,7.296858642578125,9.068798065185547,3.5365917682647705,1.098305583000183
1761330850569559600,7.3155595703125,9.116654396057129,3.7567315101623535,1.069591760635376
1761330850588260600,7.334260498046875,9.073583602905273,3.926621913909912,0.9786644577980042
1761330850606961400,7.35296142578125,8.93240737915039,4.110869407653809,0.9020941257476807
1761330850625662200,7.371662109375,8.877371788024902,4.357329845428467,0.6293123364448547
1761330850644363300,7.39036328125,8.817551612854004,4.548755645751953,0.4785645306110382
1761330850663064000,7.40906396484375,8.894122123718262,4.756931304931641,0.4043870270252228
1761330850681764900,7.427764892578125,9.332008361816406,4.867001056671143,0.2967100143432617
1761330850700466000,7.4464658203125,10.095318794250488,4.895715236663818,0.23210379481315613
1761330850719166700,7.465166748046875,10.951949119567871,4.689932346343994,0.41156548261642456
1761330850737867800,7.48386767578125,11.684152603149414,4.383651256561279,0.5982056856155396
1761330850756568600,7.502568603515625,12.284751892089844,4.244867324829102,0.32542386651039124
1761330850775269400,7.521269287109375,12.189038276672363,4.584648132324219,-0.7058826684951782
1761330850793970200,7.53997021484375,11.91625690460205,4.613361835479736,-1.1389836072921753
1761330850812671200,7.558671142578125,11.69133186340332,3.775874137878418,-0.09092725813388824
1761330850831372000,7.5773720703125,12.54556941986084,2.8737800121307373,0.3517449200153351
1761330850850073000,7.596072998046875,12.983455657958984,2.2157537937164307,-0.15553347766399384
1761330850868774000,7.61477392578125,12.77767276763916,1.6175481081008911,-0.07896314561367035
1761330850887474700,7.633474609375,11.925827980041504,1.3208380937576294,0.4139583110809326
1761330850906175700,7.65217578125,10.96630573272705,0.8303094506263733,1.062413215637207
1761330850924876500,7.67087646484375,10.100104331970215,0.9020941257476807,1.332802176475525
1761330850943577600,7.68957763671875,9.152546882629395,1.3519448041915894,1.1437692642211914
1761330850962278400,7.7082783203125,8.274380683898926,2.012363910675049,0.9930213689804077
1761330850980979200,7.726979248046875,7.432106971740723,2.531606435775757,0.5312066078186035
1761330850999680300,7.74568017578125,6.38165807723999,2.8498518466949463,-0.1052841991186142
1761330851018381000,7.764381103515625,5.654240131378174,3.1992039680480957,-0.8303094506263733
1761330851037081900,7.783081787109375,5.570491313934326,3.314059257507324,-0.7369893789291382
1761330851055783000,7.801782958984375,5.864808082580566,3.5198421478271484,-0.32303106784820557
1761330851074483700,7.820483642578125,6.26440954208374,3.7423746585845947,-0.3086741268634796
1761330851093184800,7.839184814453125,6.56829833984375,3.768695592880249,-0.7058826684951782
1761330851111885600,7.857885498046875,6.874579429626465,3.706482172012329,-1.100698471069336
1761330851130586400,7.87658642578125,7.267002582550049,3.7112679481506348,-1.0504491329193115
1761330851149287200,7.895287109375,7.88913631439209,3.751945972442627,-0.6939185857772827
1761330851167988200,7.91398828125,8.461020469665527,3.7878382205963135,-0.2679961323738098
1761330851186689000,7.93268896484375,8.726624488830566,3.706482172012329,-0.0933200865983963
1761330851205390000,7.95139013671875,8.559126853942871,3.8356947898864746,-0.3924229145050049
1761330851224091000,7.9700908203125,8.279166221618652,4.098905086517334,-0.7322037220001221
1761330851242791700,7.988791748046875,8.173882484436035,4.350151538848877,-0.7465606927871704
1761330851261492700,8.00749267578125,8.425128936767578,4.46979284286499,-0.5096712112426758
1761330851280193500,8.026193603515624,8.858229637145996,4.563112735748291,-0.05742774158716202
1761330851298894600,8.04489453125,9.111868858337402,4.735395908355713,0.20099709928035736
1761330851317595400,8.063595458984375,9.169296264648438,4.993820667266846,-0.17228323221206665
1761330851336296200,8.082296142578125,9.312865257263184,5.443671703338623,-0.21296121180057526
1761330851354997200,8.100997314453124,9.410971641540527,5.132604598999023,-0.3756731450557709
1761330851373698000,8.119697998046876,9.954142570495605,5.173282623291016,0.2153540402650833
1761330851392398800,8.13839892578125,10.695917129516602,5.099104881286621,1.552941918373108
1761330851411100000,8.157099853515625,11.492727279663086,5.036891460418701,1.8807586431503296
1761330851429800700,8.17580078125,11.619546890258789,5.058426856994629,1.1509476900100708
1761330851448501800,8.194501708984374,11.767901420593262,4.515256404876709,1.4404792785644531
1761330851467202600,8.21320263671875,12.17228889465332,4.242474555969238,1.8041882514953613
1761330851485903400,8.2319033203125,12.667603492736816,3.6849467754364014,1.3232308626174927
1761330851504604200,8.250604248046875,12.643674850463867,2.940778970718384,0.7728816866874695
1761330851523305200,8.26930517578125,12.167503356933594,2.5770699977874756,0.3158525824546814
1761330851542006000,8.288006103515626,11.516654968261719,2.249253273010254,0.35413774847984314
1761330851560707000,8.30670703125,11.038090705871582,2.1822543144226074,0.4546363055706024
1761330851579408000,8.325407958984375,10.729416847229004,2.2707886695861816,0.7226324677467346
1761330851598108700,8.344108642578124,10.224531173706055,2.1822543144226074,1.332802176475525
1761330851616809700,8.362809814453126,9.358329772949219,2.038684844970703,1.5385849475860596
1761330851635510500,8.381510498046875,8.283951759338379,2.0985054969787598,1.155733346939087
1761330851654211300,8.40021142578125,7.314858913421631,2.2396819591522217,0.4426721930503845
1761330851672912400,8.418912353515625,6.838686943054199,2.510071039199829,0.18424734473228455
1761330851691613200,8.43761328125,6.912864685058594,2.68953275680542,0.5120640397071838
1761330851710314200,8.456314208984375,6.833901405334473,2.6488547325134277,0.7058826684951782
1761330851729015000,8.47501513671875,6.8171515464782715,2.7732813358306885,0.4378865361213684
1761330851747715800,8.4937158203125,7.2813591957092285,3.0005996227264404,0.04307080805301666
1761330851766416600,8.512416748046874,7.977670669555664,3.067598581314087,0.059820566326379776
1761330851785117700,8.53111767578125,8.169096946716309,3.2039895057678223,0.19381862878799438
1761330851803818500,8.549818603515625,8.183453559875488,3.452843189239502,0.3086741268634796
1761330851822519600,8.56851953125,8.413164138793945,3.6705899238586426,0.7322037220001221
1761330851841220400,8.587220458984374,8.525627136230469,3.6634113788604736,1.0528420209884644
1761330851859921200,8.605921142578126,8.374878883361816,3.864408493041992,0.9403793215751648
1761330851878622200,8.624622314453125,7.953742504119873,3.9792640209198,0.5623133182525635
1761330851897323000,8.643322998046875,7.613961696624756,4.113262176513672,0.1746760457754135
1761330851916024000,8.662024169921875,7.6666035652160645,4.333401679992676,-0.09092725813388824
1761330851934724900,8.680724853515626,7.747959613800049,4.642076015472412,-0.37806597352027893
1761330851953425700,8.69942578125,7.81974458694458,4.88853645324707,-0.2871387302875519
1761330851972126500,8.71812646484375,8.104490280151367,5.032105922698975,-0.062213387340307236
1761330851990827500,8.73682763671875,8.37966537475586,5.132604598999023,-0.04785645380616188
1761330852009528300,8.7555283203125,8.733802795410156,5.240281581878662,-0.34217363595962524
1761330852028229400,8.7742294921875,9.078369140625,5.280959606170654,-0.6460621356964111
1761330852046930200,8.79293017578125,9.540184020996094,5.302495002746582,-0.8279166221618652
1761330852065631000,8.811630859375,10.155138969421387,5.3216376304626465,-0.9116654396057129
1761330852084332000,8.83033203125,11.009376525878906,5.350351333618164,-0.8015955686569214
1761330852103032800,8.84903271484375,11.418549537658691,5.3312087059021,-0.5407779216766357
1761330852121733600,8.867733642578125,11.241480827331543,5.580062389373779,-0.5599204897880554
1761330852140434700,8.8864345703125,10.593026161193848,5.678168296813965,-0.9547362327575684
1761330852159135500,8.905135498046874,10.595418930053711,5.072783946990967,-0.7322037220001221
1761330852177836300,8.923836181640626,10.916056632995605,4.304687976837158,-0.02871387079358101
1761330852196537300,8.942537353515625,11.217552185058594,3.7471601963043213,0.44745782017707825
1761330852215238100,8.961238037109375,11.047661781311035,3.1657042503356934,0.6245267391204834
1761330852233939000,8.97993896484375,10.559526443481445,3.0269205570220947,0.8973084688186646
1761330852252640000,8.998639892578124,10.16710376739502,3.1824541091918945,1.2634103298187256
1761330852271340800,9.0173408203125,10.021141052246094,3.16331148147583,1.6558332443237305
1761330852290041900,9.036041748046875,9.712467193603516,3.136990547180176,1.7395820617675781
1761330852308742700,9.05474267578125,9.159725189208984,3.108276605606079,1.4117653369903564
1761330852327443500,9.073443359375,8.49452018737793,3.105883836746216,0.8422735929489136
1761330852346144300,9.092144287109376,8.047062873840332,3.232703447341919,0.17228323221206665
1761330852364845300,9.11084521484375,8.042277336120605,3.2757742404937744,-0.2584248483181
1761330852383546000,9.129546142578125,8.298309326171875,3.2446675300598145,-0.4019941985607147
1761330852402247200,9.1482470703125,8.317451477050781,3.2374889850616455,-0.36610186100006104
1761330852420948000,9.166947998046876,8.126026153564453,3.3882367610931396,-0.5240281820297241
1761330852439648800,9.185648681640625,7.618747234344482,3.5676984786987305,-0.5168496966362
1761330852458349800,9.204349853515625,7.188039302825928,3.792623996734619,-0.7704889178276062
1761330852477050600,9.223050537109375,6.740581512451172,4.046263217926025,-0.9643075466156006
1761330852495751400,9.24175146484375,6.441478729248047,4.309473514556885,-1.0049854516983032
1761330852514452500,9.260452392578125,6.391229152679443,4.386044025421143,-0.9236295223236084
1761330852533153300,9.2791533203125,6.565905570983887,4.297509670257568,-0.6508477330207825
1761330852551854000,9.29785400390625,6.853044033050537,4.273581027984619,-0.6699903607368469
1761330852570555100,9.31655517578125,7.271788120269775,4.204189300537109,-0.9308080077171326
1761330852589256000,9.335255859375,7.518248558044434,4.213760852813721,-1.1198409795761108
1761330852607956700,9.353956787109375,7.788637638092041,4.285545349121094,-1.2873386144638062
1761330852626657800,9.37265771484375,8.082955360412598,4.41475772857666,-1.3256237506866455
1761330852645358600,9.391358642578124,8.350951194763184,4.668396949768066,-1.1509476900100708
1761330852664059600,9.4100595703125,8.451449394226074,4.907679080963135,-0.7034898400306702
1761330852682760400,9.428760498046875,8.329415321350098,5.1804609298706055,-0.49292147159576416
1761330852701461200,9.447461181640625,8.190631866455078,5.446064472198486,-0.9523434042930603
1761330852720162000,9.466162109375,8.161917686462402,5.5968122482299805,-1.588834285736084
1761330852738863000,9.484863037109376,8.645268440246582,5.551348686218262,-1.5984054803848267
1761330852757564000,9.50356396484375,9.523433685302734,5.19242525100708,-0.6819544434547424
1761330852776265000,9.522264892578125,11.052447319030762,4.957928657531738,0.09571290761232376
1761330852794965800,9.5409658203125,12.705887794494629,5.309673309326172,-0.7154539823532104
1761330852813666600,9.55966650390625,11.96889877319336,5.302495002746582,-0.4307080805301666
1761330852832367400,9.578367431640626,11.846864700317383,4.070191383361816,1.5720844268798828
1761330852851068400,9.597068359375,12.131610870361328,3.414557933807373,2.203789710998535
