time,seconds_elapsed,z,y,x
1761333547016038400,0.073038330078125,0,0,0
1761333547034737200,0.091737060546875,0.0023927688598632812,-0.003987908363342285,0.008010908961296082
1761333547053436000,0.110435791015625,0.0038232803344726562,0.0029430389404296875,-0.0066302865743637085
1761333547072135000,0.129135009765625,-0.010600090026855469,-0.004021286964416504,0.008855536580085754
1761333547090833700,0.147833740234375,-0.006651878356933594,-0.005969405174255371,0.0026012808084487915
1761333547109532400,0.166532470703125,0.0021610260009765625,-0.005840420722961426,-0.008685708045959473
1761333547128231400,0.1852314453125,-0.0005588531494140625,-0.008138537406921387,0.0029226094484329224
1761333547146930200,0.20393017578125,0.0043048858642578125,-0.020199239253997803,0.014186039566993713
1761333547165629000,0.22262890625,-0.0009851455688476562,0.004402220249176025,-0.0052635520696640015
1761333547184327700,0.24132763671875,-0.0020170211791992188,0.0044803619384765625,-0.0005427896976470947
1761333547203026400,0.2600263671875,-0.002166748046875,0.001925051212310791,-0.00320570170879364
1761333547221725400,0.278725341796875,0.006863594055175781,-0.009444177150726318,-0.014202728867530823
1761333547240424200,0.297424072265625,0.0023908615112304688,0.009819507598876953,-0.004831969738006592
1761333547259123000,0.316123046875,0.0023040771484375,-0.0020045042037963867,-0.002744317054748535
1761333547277822000,0.334822021484375,-0.01633453369140625,0.0004267096519470215,0.0036718547344207764
1761333547296520700,0.353520751953125,0.02300548553466797,0.005476176738739014,-0.000801578164100647
1761333547315219500,0.372219482421875,-0.00318145751953125,-0.008629202842712402,-0.005421251058578491
1761333547333918200,0.390918212890625,0.010884284973144531,0.0028676986694335938,-0.0030852854251861572
1761333547352617200,0.4096171875,0.015082359313964844,-0.01573580503463745,-0.005755111575126648
1761333547371316000,0.42831591796875,-0.0037946701049804688,0.010196328163146973,-0.010412797331809998
1761333547390014700,0.4470146484375,0.0053768157958984375,-0.00894308090209961,0.010891497135162354
1761333547408713500,0.46571337890625,-0.0041046142578125,-0.011322379112243652,-0.005745932459831238
1761333547427412500,0.48441259765625,0.010165214538574219,0.00288236141204834,-0.010576561093330383
1761333547446111200,0.503111328125,0.005401611328125,0.0032587647438049316,-0.008082136511802673
1761333547464810000,0.52181005859375,0.0052318572998046875,0.02171248197555542,0.0037804841995239258
1761333547483509000,0.540509033203125,0.0030622482299804688,-0.004688441753387451,-0.017616555094718933
1761333547502207700,0.559207763671875,-0.011272430419921875,0.0025589466094970703,-0.005581527948379517
1761333547520906500,0.577906494140625,0.009984016418457031,-0.004438877105712891,0.005969151854515076
1761333547539605200,0.596605224609375,0.000354766845703125,0.009442389011383057,0.003486722707748413
1761333547558304000,0.615303955078125,-0.009187698364257812,-0.004792213439941406,0.005502551794052124
1761333547577003000,0.6340029296875,0.005042076110839844,0.011645793914794922,0.005553141236305237
1761333547595701800,0.65270166015625,0.0002880096435546875,0.002143681049346924,0.007974252104759216
1761333547614400500,0.671400390625,-0.009336471557617188,-0.007403135299682617,-0.0013062357902526855
1761333547633099500,0.690099609375,-0.020791053771972656,0.0018438100814819336,0.007930442690849304
1761333547651798300,0.70879833984375,0.010051727294921875,0.009051978588104248,-0.001820191740989685
1761333547670497000,0.7274970703125,0.023838043212890625,0.01556020975112915,-0.0018875151872634888
1761333547689195800,0.74619580078125,-0.002590179443359375,0.0011674165725708008,-0.0019980818033218384
1761333547707894800,0.764894775390625,0.0023202896118164062,-0.015043258666992188,0.009643957018852234
1761333547726592300,0.78359228515625,-0.009639739990234375,0.0062596797943115234,0.0045696645975112915
1761333547745291300,0.802291259765625,-0.009278297424316406,-0.015276849269866943,0.000002771615982055664
1761333547763990000,0.820989990234375,0.00024318695068359375,-0.003560006618499756,0.00435677170753479
1761333547782688800,0.839688720703125,0.004868507385253906,-0.0010437369346618652,0.013760194182395935
1761333547801387500,0.858387451171875,-0.0070896148681640625,0.0034272074699401855,0.008697986602783203
1761333547820086500,0.87708642578125,0.009455680847167969,0.001077413558959961,-0.010207518935203552
1761333547838785300,0.895785400390625,-0.012034416198730469,0.003468453884124756,0.0018164217472076416
1761333547857484000,0.914484130859375,0.0048694610595703125,0.008191049098968506,-0.002990633249282837
1761333547876183000,0.93318310546875,-0.009368896484375,0.001449882984161377,0.0038281530141830444
1761333547894881800,0.9518818359375,-0.004437446594238281,0.011024951934814453,0.0012021660804748535
1761333547913580500,0.97058056640625,0.000576019287109375,0.006312668323516846,-0.0032564252614974976
1761333547932279300,0.989279296875,0.00039768218994140625,0.003918051719665527,0.013113632798194885
1761333547950978300,1.007978271484375,-0.008982658386230469,-0.0009725689888000488,-0.012968242168426514
1761333547969677000,1.026677001953125,0.0054759979248046875,0.01076894998550415,0.008478730916976929
1761333547988375800,1.045375732421875,0.0007429122924804688,0.0036045312881469727,0.010466128587722778
1761333548007074800,1.06407470703125,0.019507408142089844,-0.0058820247650146484,-0.011137604713439941
1761333548025773600,1.082773681640625,-0.008944511413574219,0.006034433841705322,-0.01054459810256958
1761333548044472300,1.101472412109375,0.014562606811523438,-0.015227317810058594,0.015362158417701721
1761333548063171000,1.120171142578125,-0.009014129638671875,0.013218104839324951,0.0011260062456130981
1761333548081870000,1.1388701171875,0.012308120727539062,0.0037031173706054688,-0.006315141916275024
1761333548100568800,1.15756884765625,-0.013784408569335938,-0.0008671283721923828,0.003237307071685791
1761333548119267600,1.176267578125,-0.0016460418701171875,0.006534218788146973,-0.006055101752281189
1761333548137966600,1.194966552734375,-0.0015964508056640625,-0.0004495978355407715,-0.005848556756973267
1761333548156665300,1.213665283203125,-0.015543937683105469,0.0019562840461730957,-0.0012451410293579102
1761333548175364000,1.232364013671875,0.015168190002441406,-0.002730727195739746,-0.005662053823471069
1761333548194062800,1.251062744140625,0.010437965393066406,-0.0006732940673828125,0.008362337946891785
1761333548212761600,1.26976171875,0.0054645538330078125,-0.007555961608886719,-0.0060716718435287476
1761333548231460600,1.288460693359375,0.012142181396484375,0.011545062065124512,0.010607436299324036
1761333548250159400,1.307159423828125,-0.0046558380126953125,0.0020795464515686035,-0.0016706734895706177
1761333548268858000,1.325858154296875,0.004866600036621094,0.013891100883483887,-0.006083264946937561
1761333548287557000,1.34455712890625,0.0024394989013671875,0.004145443439483643,-0.001099228858947754
1761333548306256000,1.363255859375,-0.02335834503173828,-0.012613892555236816,-0.010705187916755676
1761333548324954600,1.38195458984375,0.021574974060058594,0.006355762481689453,-0.0010952204465866089
1761333548343653400,1.4006533203125,-0.0072154998779296875,0.006087660789489746,-0.0009050071239471436
1761333548362352400,1.419352294921875,0.002399444580078125,-0.0035580992698669434,0.0015657693147659302
1761333548381051100,1.438051025390625,-0.0004978179931640625,0.012917578220367432,0.006177857518196106
1761333548399750000,1.45675,0.001873016357421875,-0.006175100803375244,0.008340656757354736
1761333548418449000,1.475448974609375,0.004086494445800781,-0.005987107753753662,0.005640015006065369
1761333548437147600,1.494147705078125,0.027711868286132812,0.008303046226501465,0.0032555311918258667
1761333548455846400,1.512846435546875,0.001232147216796875,-0.0014803409576416016,-0.004023820161819458
1761333548474545200,1.531545166015625,-0.0034723281860351562,0.019688010215759277,-0.0017129182815551758
1761333548493244200,1.550244140625,0.0012750625610351562,-0.001856982707977295,0.0005154907703399658
1761333548511943000,1.56894287109375,-0.0033922195434570312,0.00048667192459106445,0.00542314350605011
1761333548530641700,1.5876416015625,0.025033950805664062,-0.004332482814788818,0.00529557466506958
1761333548549340700,1.606340576171875,-0.008577346801757812,-0.001761317253112793,0.009925007820129395
1761333548568039400,1.625039306640625,-0.001155853271484375,0.012218296527862549,-0.004346787929534912
1761333548586738200,1.64373828125,-0.017507553100585938,-0.008893609046936035,0.014465242624282837
1761333548605437000,1.66243701171875,-0.007790565490722656,-0.004224002361297607,-0.011838123202323914
1761333548624136000,1.681135986328125,-0.01717853546142578,-0.001944899559020996,-0.0021183639764785767
1761333548642834700,1.699834716796875,0.013580322265625,0.01009523868560791,0.00047187507152557373
1761333548661533400,1.718533447265625,0.003960609436035156,0.014473795890808105,0.0005279481410980225
1761333548680232400,1.737232421875,0.006267547607421875,-0.011604726314544678,0.011937215924263
1761333548698931200,1.75593115234375,0.00853729248046875,0.009923875331878662,-0.0002473294734954834
1761333548717630000,1.7746298828125,-0.005665779113769531,-0.006444454193115234,-0.014222115278244019
1761333548736328700,1.79332861328125,-0.022029876708984375,-0.008662641048431396,-0.018528953194618225
1761333548755027700,1.81202783203125,0.01830768585205078,-0.0018450617790222168,0.007805272936820984
1761333548773726500,1.8307265625,-0.008024215698242188,-0.01105421781539917,0.005609199404716492
1761333548792425200,1.84942529296875,0.004008293151855469,0.0010191798210144043,-0.008228227496147156
1761333548811124200,1.868124267578125,-0.0005483627319335938,0.001147449016571045,-0.008210644125938416
1761333548829823000,1.886822998046875,-0.005160331726074219,0.006205141544342041,0.003720313310623169
1761333548848521700,1.905521728515625,-0.002712249755859375,-0.010175585746765137,0.008323341608047485
1761333548867220500,1.924220458984375,-0.000469207763671875,0.004449009895324707,-0.017930790781974792
1761333548885919500,1.94291943359375,0.001514434814453125,-0.0002797842025756836,0.005565568804740906
1761333548904618200,1.9616181640625,0.0038194656372070312,0.00186842679977417,-0.004073113203048706
1761333548923317000,1.98031689453125,-0.017479896545410156,0.004084944725036621,0.01721528172492981
1761333548942015700,1.999015625,-0.005489349365234375,-0.005348026752471924,-0.009290575981140137
1761333548960714800,2.01771484375,0.0040264129638671875,0.002045571804046631,-0.011494651436805725
1761333548979413500,2.03641357421875,-0.026416778564453125,0.011240601539611816,-0.011421099305152893
1761333548998112300,2.0551123046875,0.009237289428710938,0.006202042102813721,0.005531176924705505
1761333549016811300,2.073811279296875,0.0020360946655273438,0.003416597843170166,0.0031041204929351807
1761333549035510000,2.092510009765625,-0.021709442138671875,0.005660295486450195,0.0054014623165130615
1761333549054208800,2.111208740234375,0.014029502868652344,-0.010778605937957764,-0.0018026083707809448
1761333549072907500,2.129907470703125,-0.0029048919677734375,-0.0012483000755310059,-0.001878887414932251
1761333549091606500,2.1486064453125,-0.005122184753417969,-0.017718017101287842,-0.011470630764961243
1761333549110305300,2.16730517578125,-0.01934528350830078,0.011024653911590576,-0.009022876620292664
1761333549129004000,2.186004150390625,0.018552780151367188,-0.005517125129699707,0.0026195496320724487
1761333549147703000,2.204703125,-0.0006933212280273438,0.004248142242431641,0.004896238446235657
1761333549166401800,2.22340185546875,0.0016050338745117188,0.008655548095703125,0.00940278172492981
1761333549185100500,2.2421005859375,0.01809978485107422,0.015582621097564697,-0.00028432905673980713
1761333549203799300,2.26079931640625,-0.015046119689941406,0.007950782775878906,0.004388853907585144
1761333549222498000,2.279498046875,-0.007370948791503906,-0.004267752170562744,-0.012041166424751282
1761333549241197000,2.298197021484375,0.01404571533203125,0.002810239791870117,-0.006980791687965393
1761333549259895800,2.316895751953125,0.004368782043457031,0.019366145133972168,-0.004415243864059448
1761333549278594800,2.3355947265625,-0.009695053100585938,-0.0047272443771362305,-0.004463627934455872
1761333549297293600,2.35429345703125,0.002079010009765625,0.007255733013153076,-0.011356920003890991
1761333549315992300,2.372992431640625,-0.00041484832763671875,-0.014116287231445312,0.00747092068195343
1761333549334691000,2.391691162109375,-0.004866600036621094,-0.011627912521362305,0.014229938387870789
1761333549353390000,2.41039013671875,0.004513740539550781,-0.006533920764923096,0.0071477144956588745
1761333549372088800,2.4290888671875,-0.0022974014282226562,-0.025293350219726562,-0.00011001527309417725
1761333549390787600,2.44778759765625,0.0071163177490234375,0.0037060976028442383,0.000006332993507385254
1761333549409486600,2.466486572265625,-0.0025653839111328125,-0.017256438732147217,-0.011874482035636902
1761333549428185300,2.485185302734375,0.0021495819091796875,-0.00031131505966186523,-0.004546657204627991
1761333549446884000,2.503884033203125,-0.009683609008789062,-0.004826903343200684,0.011970609426498413
1761333549465582800,2.522582763671875,0.006836891174316406,0.004396557807922363,0.009415224194526672
1761333549484281900,2.54128173828125,0.013515472412109375,-0.00721585750579834,-0.0022153258323669434
1761333549502980600,2.559980712890625,-0.007718086242675781,-0.01155167818069458,0.0001916736364364624
1761333549521679600,2.5786796875,-0.00292205810546875,-0.008986592292785645,0.00018852949142456055
1761333549540378400,2.59737841796875,0.0017633438110351562,0.0006566047668457031,0.0025399774312973022
1761333549559077000,2.6160771484375,0.0016307830810546875,-0.008951187133789062,-0.0018790066242218018
1761333549577775900,2.63477587890625,0.006442070007324219,-0.018239140510559082,-0.004429459571838379
1761333549596475000,2.653474853515625,-0.0006322860717773438,0.0029738545417785645,0.012118518352508545
1761333549615173600,2.672173583984375,-0.017159461975097656,0.005367934703826904,0.004691526293754578
1761333549633872400,2.690872314453125,0.009253501892089844,0.0002720355987548828,-0.006919547915458679
1761333549652571400,2.7095712890625,-0.009676933288574219,-0.011560022830963135,-0.007058963179588318
1761333549671270100,2.728270263671875,0.01413726806640625,0.011888623237609863,0.002499684691429138
1761333549689969000,2.746968994140625,0.004458427429199219,-0.01645737886428833,0.004893168807029724
1761333549708667600,2.765667724609375,0.014031410217285156,0.00025767087936401367,0.004702538251876831
1761333549727366700,2.78436669921875,-0.012152671813964844,0.002492189407348633,0.013832271099090576
1761333549746065400,2.8030654296875,-0.011744499206542969,0.016692042350769043,0.004134148359298706
1761333549764764200,2.82176416015625,-0.0043315887451171875,-0.012089967727661133,-0.021967053413391113
1761333549783463200,2.840463134765625,0.0025539398193359375,-0.004827439785003662,-0.0002924203872680664
1761333549802162000,2.859161865234375,0.007218360900878906,-0.00005918741226196289,0.004483357071876526
1761333549820860700,2.877860595703125,-0.011652946472167969,-0.006828725337982178,-0.009572967886924744
1761333549839559400,2.896559326171875,0.01904582977294922,-0.0020588040351867676,0.004923433065414429
1761333549858258400,2.915258544921875,-0.014374732971191406,0.01464909315109253,-0.009458214044570923
1761333549876957200,2.933957275390625,-0.0022096633911132812,0.0026568174362182617,-0.016066670417785645
1761333549895656200,2.95265625,0.014181137084960938,-0.0020749568939208984,-0.0019498765468597412
1761333549914355000,2.97135498046875,-0.007232666015625,0.0005554556846618652,0.00026860833168029785
1761333549933053700,2.9900537109375,-0.0024480819702148438,0.007416188716888428,-0.00447043776512146
1761333549951752400,3.00875244140625,0.018886566162109375,0.004971504211425781,-0.0018157213926315308
1761333549970451500,3.027451416015625,-0.0021228790283203125,0.007009625434875488,0.0005367845296859741
1761333549989150200,3.046150146484375,-0.013857841491699219,0.013872981071472168,0.007419362664222717
1761333550007849000,3.064848876953125,0.009936332702636719,-0.0005386471748352051,0.002436339855194092
1761333550026548000,3.0835478515625,0.0049037933349609375,-0.014693856239318848,-0.013849228620529175
1761333550045246700,3.102246826171875,0.00725555419921875,0.011341691017150879,0.002472788095474243
1761333550063945500,3.120945556640625,-0.000087738037109375,0.006668150424957275,-0.018932834267616272
1761333550082644200,3.139644287109375,0.0071277618408203125,0.004384458065032959,-0.01864197850227356
1761333550101343200,3.15834326171875,-0.0023212432861328125,0.013440072536468506,0.009752988815307617
1761333550120042000,3.1770419921875,-0.0022478103637695312,-0.012518525123596191,0.0070708394050598145
1761333550138740700,3.19574072265625,0.018930435180664062,0.0038747191429138184,0.002259775996208191
1761333550157439700,3.214439697265625,0.011485099792480469,0.006026148796081543,-0.014272123575210571
1761333550176138500,3.233138427734375,0.011265754699707031,0.01762974262237549,-0.002308398485183716
1761333550194837200,3.251837158203125,-0.01933574676513672,0.003050684928894043,-0.018993258476257324
1761333550213536300,3.270536376953125,-0.0047779083251953125,-0.00401538610458374,0.009691789746284485
1761333550232235000,3.289235107421875,0.0023212432861328125,0.007761895656585693,-0.006999686360359192
1761333550250933800,3.307933837890625,0.018594741821289062,0.0052318572998046875,-0.009193316102027893
1761333550269632500,3.326632568359375,0.004214286804199219,-0.008888959884643555,-0.0023355633020401
1761333550288331500,3.34533154296875,0.0016431808471679688,0.005308985710144043,-0.0069930702447891235
1761333550307030300,3.3640302734375,0.008498191833496094,-0.01368492841720581,-0.0072908103466033936
1761333550325729000,3.38272900390625,-0.005936622619628906,0.0005930662155151367,-0.006898865103721619
1761333550344428000,3.401427978515625,-0.0012264251708984375,0.000659644603729248,-0.0138016939163208
1761333550363126800,3.420126708984375,0.00136566162109375,0.0030667781829833984,0.005349829792976379
1761333550381825500,3.438825439453125,-0.0056972503662109375,-0.0018390417098999023,-0.0042375922203063965
1761333550400524300,3.457524169921875,-0.007895469665527344,0.0007785558700561523,0.0003879815340042114
1761333550419223300,3.476223388671875,0.011260032653808594,-0.0036886930465698242,-0.004042729735374451
1761333550437922000,3.494922119140625,-0.005499839782714844,0.010005652904510498,0.003048539161682129
1761333550456621000,3.51362109375,-0.0147705078125,-0.01361936330795288,-0.011058136820793152
1761333550475319800,3.53231982421875,0.004344940185546875,0.007730245590209961,0.007799059152603149
1761333550494018600,3.5510185546875,-0.00054168701171875,0.0005955100059509277,-0.003993123769760132
1761333550512717300,3.56971728515625,-0.012215614318847656,-0.00858914852142334,-0.003704085946083069
1761333550531416300,3.588416259765625,-0.009771347045898438,-0.0014193058013916016,0.0034061074256896973
1761333550550115000,3.607114990234375,0.004744529724121094,-0.022652387619018555,0.010487094521522522
1761333550568813800,3.625813720703125,-0.004780769348144531,-0.010390281677246094,0.012271180748939514
1761333550587512800,3.644512939453125,0.0022792816162109375,-0.007946968078613281,-0.018670111894607544
1761333550606211600,3.663211669921875,0.006870269775390625,0.018181562423706055,-0.01590956747531891
1761333550624910300,3.681910400390625,-0.009474754333496094,-0.0034807920455932617,-0.010892093181610107
1761333550643609000,3.700609130859375,0.009695053100585938,0.010883748531341553,-0.0034637749195098877
1761333550662308000,3.71930810546875,0.007332801818847656,-0.0007942318916320801,-0.00564497709274292
1761333550681006800,3.7380068359375,0.0073223114013671875,0.001655876636505127,0.0012461841106414795
1761333550699705900,3.756705810546875,0.011866569519042969,0.013072669506072998,-0.0035028159618377686
1761333550718404600,3.775404541015625,0.0046901702880859375,-0.017536401748657227,-0.010429412126541138
1761333550737103400,3.794103271484375,-0.009419441223144531,0.006146371364593506,-0.012651920318603516
1761333550755802000,3.812802001953125,0.0070896148681640625,-0.0034851431846618652,-0.0051807016134262085
1761333550774501000,3.831501220703125,-0.004984855651855469,0.0037494897842407227,0.0042665451765060425
1761333550793199900,3.850199951171875,-0.011915206909179688,0.003947079181671143,0.006603360176086426
1761333550811899000,3.86889892578125,0.014200210571289062,0.003749668598175049,0.011287286877632141
1761333550830597600,3.88759765625,-0.0044689178466796875,0.008503615856170654,0.00871315598487854
1761333550849296400,3.90629638671875,0.0023393630981445312,-0.012454330921173096,-0.007789134979248047
1761333550867995100,3.9249951171875,0.009406089782714844,-0.005330324172973633,0.006407871842384338
1761333550886694100,3.943694091796875,0.001995086669921875,-0.007255375385284424,-0.008063539862632751
1761333550905393000,3.962392822265625,-0.01210784912109375,0.0022228360176086426,0.017868012189865112
1761333550924091600,3.981091552734375,-0.0002117156982421875,-0.0072432756423950195,-0.01306779682636261
1761333550942790700,3.999790771484375,0.0042285919189453125,0.009177088737487793,-0.003625139594078064
1761333550961489400,4.018489501953125,-0.007359504699707031,-0.009928464889526367,0.010335847735404968
1761333550980188200,4.037188232421875,0.006768226623535156,0.008814632892608643,-0.0063646286725997925
1761333550998887200,4.05588720703125,-0.00043201446533203125,-0.0006322860717773438,0.012653186917304993
1761333551017586000,4.0745859375,0.0066432952880859375,0.0016430020332336426,0.007803738117218018
1761333551036284700,4.09328466796875,-0.0005598068237304688,0.006333768367767334,-0.008793666958808899
1761333551054983700,4.111983642578125,0.006442070007324219,-0.005513906478881836,-0.006296664476394653
1761333551073682400,4.130682373046875,0.0017528533935546875,0.004094839096069336,-0.010738879442214966
1761333551092381200,4.149381103515625,-0.0031299591064453125,0.006155252456665039,-0.0034686923027038574
1761333551111080000,4.168079833984375,-0.0030269622802734375,0.010875165462493896,-0.0011425316333770752
1761333551129779000,4.186779052734375,-0.016962051391601562,-0.005946159362792969,0.005987212061882019
1761333551148477700,4.205477783203125,0.009087562561035156,0.003386974334716797,-0.003740057349205017
1761333551167176700,4.2241767578125,0.0020437240600585938,0.0008258819580078125,0.005757063627243042
1761333551185875500,4.24287548828125,-0.005276679992675781,0.0008613467216491699,-0.0037541836500167847
1761333551204574200,4.26157421875,0.0019483566284179688,-0.010746240615844727,0.0013944506645202637
1761333551223273000,4.28027294921875,0.0040760040283203125,0.0033116936683654785,-0.008069440722465515
1761333551241972000,4.298971923828125,-0.02660846710205078,0.007907867431640625,-0.012628376483917236
1761333551260670700,4.317670654296875,-0.005024909973144531,-0.0016858577728271484,-0.0030634254217147827
1761333551279369700,4.33636962890625,0.004555702209472656,-0.0014104247093200684,-0.007843196392059326
1761333551298068500,4.355068359375,-0.0025691986083984375,0.0029979348182678223,-0.010254830121994019
1761333551316767200,4.373767333984375,-0.009782791137695312,-0.011006355285644531,0.008705586194992065
1761333551335466000,4.392466064453125,0.0022230148315429688,-0.003939151763916016,-0.010036498308181763
1761333551354165000,4.4111650390625,0.0066967010498046875,0.005837857723236084,0.004386052489280701
1761333551372863700,4.42986376953125,0.0018434524536132812,-0.0038301944732666016,-0.016898274421691895
1761333551391562800,4.448562744140625,-0.014729499816894531,-0.017742574214935303,-0.009333759546279907
1761333551410261500,4.467261474609375,-0.0029897689819335938,-0.005408346652984619,0.002576008439064026
1761333551428960300,4.485960205078125,-0.0077114105224609375,-0.0077585577964782715,-0.00221194326877594
1761333551447659000,4.504658935546875,0.001956939697265625,-0.00749737024307251,-0.0018917620182037354
1761333551466358000,4.52335791015625,0.004132270812988281,-0.009850680828094482,0.007111385464668274
1761333551485056800,4.542056884765625,0.0017223358154296875,-0.0028090476989746094,-0.004511997103691101
1761333551503755800,4.560755859375,0.0014734268188476562,0.013737857341766357,0.000285416841506958
1761333551522454500,4.57945458984375,-0.012697219848632812,0.011208713054656982,0.0004946142435073853
1761333551541153300,4.5981533203125,-0.005333900451660156,-0.0030178427696228027,0.00999857485294342
1761333551559852000,4.61685205078125,0.0015916824340820312,-0.005305469036102295,-0.004524022340774536
1761333551578551000,4.635551025390625,0.00157928466796875,-0.014500617980957031,0.009643316268920898
1761333551597249800,4.654249755859375,-0.01019287109375,0.004455447196960449,0.00695626437664032
1761333551615948800,4.67294873046875,0.00402069091796875,-0.004868626594543457,-0.00016999244689941406
1761333551634647600,4.6916474609375,-0.0007371902465820312,0.0019663572311401367,0.014100402593612671
1761333551653346300,4.71034619140625,0.0040740966796875,0.0017275810241699219,-0.00508686900138855
1761333551672045000,4.729045166015625,-0.007626533508300781,-0.00756072998046875,-0.007274717092514038
1761333551690744000,4.747744140625,-0.009649276733398438,0.006768643856048584,0.0044738054275512695
1761333551709442800,4.76644287109375,0.0022726058959960938,0.004326999187469482,-0.01234591007232666
1761333551728141800,4.785141845703125,0.011649131774902344,-0.00543898344039917,0.0018926411867141724
1761333551746840600,4.803840576171875,0.011655807495117188,0.00394129753112793,0.009189873933792114
1761333551765539300,4.822539306640625,0.0022134780883789062,0.003583192825317383,-0.014403298497200012
1761333551784238000,4.841238037109375,-0.009584426879882812,0.003486931324005127,0.0026773810386657715
1761333551802937000,4.85993701171875,-0.0071468353271484375,-0.0037987828254699707,-0.009237930178642273
1761333551821635800,4.8786357421875,0.006733894348144531,-0.00104600191116333,0.0004130750894546509
1761333551840334800,4.8973349609375,-0.012034416198730469,0.008210301399230957,-0.006563737988471985
1761333551859033600,4.91603369140625,0.026002883911132812,0.003485739231109619,0.0054205358028411865
1761333551877732400,4.934732421875,0.020906448364257812,0.019669055938720703,-0.001612052321434021
1761333551896431000,4.95343115234375,0.006259918212890625,0.016831517219543457,0.008082225918769836
1761333551915130000,4.972130126953125,-0.0032033920288085938,0.004746794700622559,0.005903750658035278
1761333551933828900,4.990828857421875,-0.005530357360839844,0.0047109127044677734,-0.008535832166671753
1761333551952527600,5.009527587890625,-0.007546424865722656,-0.023328721523284912,-0.0037275105714797974
1761333551971226600,5.0282265625,-0.00498199462890625,0.007701396942138672,0.01268438994884491
1761333551989925400,5.04692529296875,-0.014232635498046875,0.0076566338539123535,-0.01820451021194458
1761333552008624400,5.065624267578125,-0.0044651031494140625,0.005178272724151611,0.0006397068500518799
1761333552027323100,5.0843232421875,0.00011539459228515625,0.007503092288970947,0.012492761015892029
1761333552046022000,5.10302197265625,-0.014088630676269531,-0.01862621307373047,0.009855702519416809
1761333552064720600,5.121720703125,-0.011549949645996094,0.00808793306350708,-0.0022144168615341187
1761333552083419600,5.140419677734375,0.0024423599243164062,-0.008600711822509766,0.00258810818195343
1761333552102118400,5.159118408203125,-0.00701141357421875,-0.01076430082321167,0.005041897296905518
1761333552120817400,5.1778173828125,-0.011480331420898438,-0.001304328441619873,0.023541927337646484
1761333552139516200,5.19651611328125,-0.006430625915527344,-0.003721773624420166,0.0016575455665588379
1761333552158215000,5.21521484375,0.010176658630371094,0.0011307001113891602,0.00865955650806427
1761333552176913700,5.23391357421875,-0.006392478942871094,0.005768775939941406,0.0017092376947402954
1761333552195612700,5.25261279296875,-0.004139900207519531,-0.0016139745712280273,-0.019565895199775696
1761333552214311400,5.2713115234375,0.010114669799804688,-0.008476853370666504,-0.0004383474588394165
1761333552233010400,5.290010498046875,0.0076618194580078125,-0.0032557249069213867,-0.009956270456314087
1761333552251709200,5.308709228515625,0.0027799606323242188,0.006264328956604004,-0.010021328926086426
1761333552270408000,5.327407958984375,-0.02790546417236328,0.0040773749351501465,0.013553664088249207
1761333552289107000,5.34610693359375,0.012463569641113281,-0.0005688071250915527,-0.005568563938140869
1761333552307805700,5.3648056640625,-0.013592720031738281,0.023024678230285645,0.004137381911277771
1761333552326504400,5.38350439453125,0.005443572998046875,-0.008023858070373535,0.004157081246376038
1761333552345203500,5.402203369140625,-0.011167526245117188,0.0017163753509521484,-0.016973480582237244
1761333552363902200,5.420902099609375,0.0031671524047851562,0.0015873312950134277,-0.0071182698011398315
1761333552382601000,5.43960107421875,0.005603790283203125,0.006452798843383789,-0.009285688400268555
1761333552401300000,5.458300048828125,0.0008668899536132812,-0.0053522586822509766,-0.0044088661670684814
1761333552419998700,5.476998779296875,0.0078582763671875,0.011081337928771973,-0.0018154829740524292
1761333552438697700,5.49569775390625,0.003208160400390625,-0.010021328926086426,-0.008906364440917969
1761333552457396500,5.514396484375,-0.0014448165893554688,-0.014687001705169678,0.014813065528869629
1761333552476095200,5.53309521484375,-0.01081085205078125,0.00909513235092163,0.0024720579385757446
1761333552494794000,5.5517939453125,0.012806892395019531,0.011233210563659668,0.014058291912078857
1761333552513493000,5.570492919921875,-0.013346672058105469,0.011017143726348877,0.0021359771490097046
1761333552532191700,5.589191650390625,0.0055255889892578125,-0.014994323253631592,0.002179965376853943
1761333552550890800,5.607890869140625,0.007817268371582031,-0.012414097785949707,-0.007288485765457153
1761333552569589500,5.626589599609375,0.005125999450683594,0.006862342357635498,0.01648813486099243
1761333552588288300,5.645288330078125,0.0029211044311523438,0.0064882636070251465,-0.00024278461933135986
1761333552606987300,5.6639873046875,0.0028285980224609375,-0.005365848541259766,-0.007491752505302429
1761333552625686000,5.68268603515625,-0.0041637420654296875,-0.0005373954772949219,-0.005050063133239746
1761333552644384800,5.701384765625,0.014918327331542969,0.0038434267044067383,0.013673081994056702
1761333552663083800,5.720083740234375,-0.0018529891967773438,0.02018672227859497,0.006543844938278198
1761333552681782500,5.738782470703125,-0.006611824035644531,-0.02035689353942871,-0.007578626275062561
1761333552700481300,5.757481201171875,0.012075424194335938,-0.010390996932983398,-0.016686469316482544
1761333552719180300,5.77618017578125,-0.000091552734375,-0.014910519123077393,-0.01383085548877716
1761333552737879000,5.794879150390625,0.016580581665039062,-0.009859859943389893,0.00300481915473938
1761333552756578000,5.813578125,-0.0029058456420898438,-0.016739487648010254,0.005555480718612671
1761333552775276800,5.83227685546875,0.004291534423828125,0.011587262153625488,-0.006390228867530823
1761333552793975600,5.8509755859375,0.008624076843261719,-0.005456328392028809,-0.003849908709526062
1761333552812674300,5.86967431640625,0.008414268493652344,0.0017865896224975586,0.010635405778884888
1761333552831373300,5.888373291015625,-0.0057849884033203125,-0.007607817649841309,-0.013257846236228943
1761333552850072000,5.907072021484375,-0.005673408508300781,0.02554541826248169,-0.017370715737342834
1761333552868771000,5.92577099609375,0.0038852691650390625,0.0016040205955505371,0.0016680508852005005
1761333552887469800,5.9444697265625,0.0061855316162109375,0.0017859339714050293,0.0016261488199234009
1761333552906168600,5.96316845703125,-0.0010766983032226562,0.004159867763519287,-0.01523636281490326
1761333552924867600,5.98186767578125,0.00586700439453125,-0.0005170702934265137,-0.017381563782691956
1761333552943566300,6.00056640625,-0.0038595199584960938,-0.0005782246589660645,0.008850306272506714
1761333552962265000,6.01926513671875,-0.015654563903808594,0.004304349422454834,-0.01241031289100647
1761333552980964000,6.037964111328125,-0.005799293518066406,-0.0005742907524108887,-0.012123823165893555
1761333552999662800,6.056662841796875,0.008474349975585938,-0.014509975910186768,0.011532768607139587
1761333553018361600,6.075361572265625,-0.0035686492919921875,-0.007142603397369385,0.004126816987991333
1761333553037060600,6.094060546875,-0.0033292770385742188,-0.007250666618347168,0.006455838680267334
1761333553055759400,6.11275927734375,-0.008008956909179688,-0.006721436977386475,-0.0008662045001983643
1761333553074458400,6.131458251953125,-0.0031900405883789062,0.009977400302886963,0.001539275050163269
1761333553093157000,6.1501572265625,-0.0030832290649414062,-0.020796656608581543,-0.012567520141601562
1761333553111855900,6.16885595703125,-0.0010194778442382812,0.007720947265625,0.006364896893501282
1761333553130555000,6.187554931640625,-0.005570411682128906,0.009788274765014648,-0.012658849358558655
1761333553149253600,6.206253662109375,-0.0076999664306640625,0.0023906826972961426,-0.00536741316318512
1761333553167952400,6.224952392578125,0.0042018890380859375,-0.0024909377098083496,0.013589799404144287
1761333553186651400,6.2436513671875,0.006683349609375,-0.011881470680236816,0.004051834344863892
1761333553205350100,6.26235009765625,-0.009613037109375,0.00012791156768798828,-0.0005892962217330933
1761333553224049000,6.281048828125,-0.014193534851074219,0.009503722190856934,-0.017143934965133667
1761333553242748000,6.299747802734375,0.0025911331176757812,-0.0002770423889160156,-0.009968087077140808
1761333553261446700,6.31844677734375,0.0023860931396484375,0.0020478367805480957,-0.0076666176319122314
1761333553280145700,6.337145751953125,-0.004749298095703125,-0.012211143970489502,0.00862245261669159
1761333553298844400,6.355844482421875,0.009372711181640625,-0.00030988454818725586,-0.0058215707540512085
1761333553317543200,6.374543212890625,-0.0024700164794921875,0.0022112131118774414,0.010891810059547424
1761333553336242200,6.3932421875,0.00952911376953125,0.0023518800735473633,-0.017791002988815308
1761333553354941000,6.41194091796875,0.009332656860351562,0.00010353326797485352,0.0009219050407409668
1761333553373640000,6.430639892578125,-0.0023479461669921875,0.0050247907638549805,0.0033522844314575195
1761333553392338700,6.449338623046875,-0.0045871734619140625,0.002367556095123291,-0.00880683958530426
1761333553411037400,6.468037353515625,0.0024280548095703125,0.006861984729766846,0.007928907871246338
1761333553429736200,6.486736083984375,-0.0022487640380859375,0.006848633289337158,0.007865488529205322
1761333553448435200,6.505435302734375,0.00476837158203125,0.008867621421813965,-0.011022329330444336
1761333553467134000,6.524134033203125,0.009320259094238281,-0.012712299823760986,-0.006330937147140503
1761333553485833000,6.5428330078125,0.0065765380859375,0.00403672456741333,0.007718473672866821
1761333553504531700,6.56153173828125,0.008831977844238281,0.0015351176261901855,-0.01128782331943512
1761333553523230500,6.58023046875,-0.0006732940673828125,-0.012452781200408936,0.00300385057926178
1761333553541929500,6.598929443359375,-0.0006875991821289062,0.011145472526550293,-0.004014134407043457
1761333553560628200,6.617628173828125,-0.026396751403808594,-0.005183994770050049,0.0033006519079208374
1761333553579327200,6.6363271484375,0.0046291351318359375,0.004256904125213623,-0.00402405858039856
1761333553598026000,6.65502587890625,-0.004855155944824219,-0.002801358699798584,0.003048047423362732
1761333553616724700,6.673724853515625,-0.002536773681640625,0.0018994808197021484,0.012637615203857422
1761333553635423500,6.692423583984375,-0.004807472229003906,-0.009924590587615967,-0.0018667429685592651
1761333553654122500,6.71112255859375,0.0023756027221679688,-0.007430911064147949,-0.0020062625408172607
1761333553672821200,6.7298212890625,-0.00005054473876953125,-0.0051386356353759766,-0.004311263561248779
1761333553691520300,6.748520263671875,0.004662513732910156,-0.007469832897186279,0.00259418785572052
1761333553710219000,6.767218994140625,-0.009604454040527344,0.009176671504974365,0.023643553256988525
1761333553728917800,6.785917724609375,0.00008487701416015625,0.004130661487579346,-0.009829089045524597
1761333553747616800,6.80461669921875,0.009378433227539062,0.00150299072265625,0.004408225417137146
1761333553766315500,6.8233154296875,0.002361297607421875,-0.021956324577331543,-0.0006062537431716919
1761333553785014500,6.8420146484375,-0.009363174438476562,-0.00983572006225586,0.008724182844161987
1761333553803713300,6.86071337890625,-0.009177207946777344,-0.00013834238052368164,-0.012617334723472595
1761333553822412000,6.879412109375,-0.0016193389892578125,-0.007446169853210449,0.0015828907489776611
1761333553841111000,6.898111083984375,-0.008739471435546875,-0.0026679039001464844,0.015750616788864136
1761333553859809800,6.916809814453125,0.0030736923217773438,0.002125561237335205,0.010830238461494446
1761333553878508800,6.9355087890625,-0.0015430450439453125,0.0020942091941833496,-0.005537450313568115
1761333553897207600,6.95420751953125,0.003139495849609375,-0.007261753082275391,-0.0006745010614395142
1761333553915906300,6.97290625,-0.006695747375488281,-0.0000032186508178710938,0.0017064064741134644
1761333553934605000,6.99160498046875,-0.0017242431640625,0.002280116081237793,-0.005610033869743347
1761333553953304000,7.010303955078125,0.0008020401000976562,0.01628422737121582,-0.008042722940444946
1761333553972002800,7.0290029296875,0.009989738464355469,0.013492822647094727,0.003980368375778198
1761333553990701800,7.047701904296875,-0.011320114135742188,-0.0030089616775512695,-0.005510494112968445
1761333554009400600,7.066400634765625,-0.008710861206054688,-0.01002579927444458,-0.010351553559303284
1761333554028099300,7.085099365234375,0.0032291412353515625,-0.0005105137825012207,0.003948405385017395
1761333554046798300,7.10379833984375,-0.0014677047729492188,0.0043296217918396,0.008576244115829468
1761333554065497000,7.1224970703125,-0.0038137435913085938,-0.0005958080291748047,-0.0008351802825927734
1761333554084196000,7.141196044921875,0.000701904296875,0.006601393222808838,0.006142899394035339
1761333554102894800,7.159894775390625,-0.01798725128173828,0.01134800910949707,0.006149172782897949
1761333554121593600,7.178593505859375,0.005550384521484375,-0.019372642040252686,-0.005633324384689331
1761333554140292600,7.197292724609375,-0.010437965393066406,-0.01669323444366455,0.013178229331970215
1761333554158991400,7.215991455078125,0.010965347290039062,0.006900429725646973,0.013128072023391724
1761333554177690400,7.2346904296875,-0.01970672607421875,-0.00481182336807251,0.022105932235717773
1761333554196388900,7.253388916015625,0.008984565734863281,-0.014318108558654785,-0.004252523183822632
1761333554215087900,7.272087890625,-0.0027675628662109375,-0.006887555122375488,0.00568804144859314
1761333554233787000,7.290786865234375,0.0020627975463867188,-0.008916616439819336,0.012722879648208618
1761333554252485600,7.309485595703125,-0.018868446350097656,-0.011012434959411621,-0.008607804775238037
1761333554271184400,7.328184326171875,0.0072078704833984375,-0.0038973093032836914,0.003473043441772461
1761333554289883100,7.346883056640625,0.009207725524902344,0.005588948726654053,0.005650565028190613
1761333554308582100,7.36558203125,-0.009921073913574219,-0.006025493144989014,0.015010431408882141
1761333554327281000,7.384281005859375,-0.0025663375854492188,0.005515754222869873,0.0077870190143585205
1761333554345980000,7.40297998046875,0.013714790344238281,-0.006251692771911621,0.01934686303138733
1761333554364678700,7.4216787109375,-0.0007791519165039062,0.012703478336334229,0.002541378140449524
1761333554383377400,7.44037744140625,0.0038785934448242188,-0.004022777080535889,-0.016235217452049255
1761333554402076400,7.459076416015625,-0.0008401870727539062,-0.01818084716796875,-0.018124282360076904
1761333554420775200,7.477775146484375,0.0017423629760742188,0.0054891109466552734,0.012724921107292175
1761333554439474200,7.49647412109375,0.015715599060058594,0.014753580093383789,-0.001570001244544983
1761333554458173000,7.5151728515625,-0.0035562515258789062,0.016986846923828125,0.0032957345247268677
1761333554476871700,7.53387158203125,0.017966270446777344,0.0028339028358459473,-0.005885720252990723
1761333554495570700,7.55257080078125,-0.008193016052246094,0.01690453290939331,0.0014210790395736694
1761333554514269400,7.57126953125,-0.01988506317138672,-0.004514575004577637,-0.017536014318466187
1761333554532968400,7.589968505859375,0.0017108917236328125,-0.002325117588043213,-0.0055974870920181274
1761333554551667200,7.608667236328125,-0.007794380187988281,0.014404654502868652,0.003795057535171509
1761333554570366000,7.627365966796875,0.008810043334960938,-0.011521399021148682,-0.012602299451828003
1761333554589065000,7.64606494140625,-0.007793426513671875,0.012098729610443115,-0.0031920671463012695
1761333554607763700,7.664763671875,0.0018014907836914062,-0.004684627056121826,0.0015118718147277832
1761333554626462700,7.683462646484375,0.006445884704589844,-0.009079396724700928,0.0016187727451324463
1761333554645161500,7.702161376953125,-0.01726245880126953,-0.0016246438026428223,0.011026427149772644
1761333554663860200,7.720860107421875,0.006325721740722656,0.0052536725997924805,0.0011427253484725952
1761333554682559200,7.739559326171875,-0.005454063415527344,0.012200772762298584,0.0034635215997695923
1761333554701258000,7.758258056640625,0.0039806365966796875,0.00018846988677978516,0.0032914727926254272
1761333554719957000,7.77695703125,0.001888275146484375,-0.0020912885665893555,0.010141700506210327
1761333554738655700,7.79565576171875,-0.012173652648925781,-0.009059607982635498,0.0008031576871871948
1761333554757354500,7.8143544921875,0.01873779296875,0.004948914051055908,-0.003875911235809326
1761333554776053200,7.83305322265625,-0.00046539306640625,0.002243638038635254,0.0012295693159103394
1761333554794752300,7.851752197265625,-0.0028476715087890625,0.009153246879577637,-0.010537013411521912
1761333554813451000,7.870450927734375,-0.009655952453613281,-0.005218982696533203,-0.014892011880874634
1761333554832150000,7.88914990234375,0.002391815185546875,-0.009589433670043945,-0.014288738369941711
1761333554850848800,7.907848876953125,-0.018899917602539062,-0.009380042552947998,0.0024260729551315308
1761333554869547500,7.926547607421875,0.011957168579101562,0.004813075065612793,-0.002464383840560913
1761333554888246500,7.94524658203125,0.006852149963378906,0.009532749652862549,-0.002346739172935486
1761333554906945300,7.9639453125,0.006857872009277344,-0.00015419721603393555,0.016606837511062622
1761333554925644300,7.982644287109375,0.013733863830566406,-0.009827971458435059,0.016290202736854553
1761333554944343000,8.001343017578124,0.0019102096557617188,0.006740927696228027,-0.009712949395179749
1761333554963041800,8.020041748046875,-0.005054473876953125,0.0021103620529174805,-0.004775047302246094
1761333554981740800,8.03874072265625,0.004283905029296875,-0.0026109814643859863,0.011513680219650269
1761333555000439600,8.057439453125,-0.0005598068237304688,-0.0025943517684936523,0.004068255424499512
1761333555019138600,8.076138671875,0.010872840881347656,0.01390761137008667,-0.007718384265899658
1761333555037837300,8.09483740234375,0.0013322830200195312,-0.009847462177276611,-0.0004379153251647949
1761333555056536000,8.1135361328125,0.0010509490966796875,-0.01654130220413208,-0.00731426477432251
1761333555075235000,8.132235107421875,-0.010980606079101562,0.007189333438873291,0.0021555423736572266
1761333555093933800,8.150933837890625,-0.0036792755126953125,0.006833791732788086,0.009233906865119934
1761333555112632800,8.1696328125,0.0078582763671875,-0.019030451774597168,-0.002763688564300537
1761333555131331600,8.18833154296875,0.012658119201660156,0.004565179347991943,-0.02152790129184723
1761333555150030300,8.2070302734375,0.0005502700805664062,-0.004941821098327637,0.006848663091659546
1761333555168729300,8.225729248046875,0.000732421875,-0.005205094814300537,-0.005296275019645691
1761333555187428000,8.244427978515626,0.00545501708984375,-0.0027118921279907227,0.006531521677970886
1761333555206127000,8.263127197265625,0.0027627944946289062,-0.0070931315422058105,0.013191655278205872
1761333555224825900,8.281825927734374,-0.009179115295410156,-0.00692063570022583,0.001252695918083191
1761333555243524600,8.300524658203125,0.00029754638671875,0.009677469730377197,-0.008166342973709106
1761333555262223600,8.3192236328125,0.016640663146972656,-0.0024074316024780273,0.010790199041366577
1761333555280922400,8.33792236328125,0.016719818115234375,0.009576797485351562,0.003547847270965576
1761333555299621400,8.356621337890624,-0.014338493347167969,0.00008982419967651367,0.0010776817798614502
1761333555318320000,8.375320068359375,-0.00222015380859375,0.004618048667907715,-0.005734488368034363
1761333555337019000,8.394018798828125,-0.0019865036010742188,-0.00509721040725708,0.008534491062164307
1761333555355718000,8.4127177734375,0.012315750122070312,-0.005157947540283203,-0.0010492950677871704
1761333555374416600,8.431416748046875,0.0120697021484375,0.013723194599151611,0.0015537142753601074
1761333555393115600,8.45011572265625,0.009433746337890625,0.0018993616104125977,0.00394091010093689
1761333555411814400,8.468814453125,-0.009427070617675781,0.0019377470016479492,-0.0009058713912963867
1761333555430513200,8.48751318359375,-0.011705398559570312,-0.0027526021003723145,-0.003195717930793762
1761333555449212200,8.506212158203125,0.0027618408203125,0.006813406944274902,0.0063166022300720215
1761333555467911000,8.524910888671876,-0.009099960327148438,-0.004988253116607666,0.001242026686668396
1761333555486610000,8.54360986328125,-0.00628662109375,0.02326381206512451,0.02477984130382538
1761333555505308700,8.56230859375,0.0030565261840820312,-0.0077141523361206055,-0.008471071720123291
1761333555524007400,8.58100732421875,0.007663726806640625,-0.012154996395111084,-0.00830058753490448
1761333555542706400,8.59970654296875,0.005331993103027344,0.006718456745147705,0.006006941199302673
1761333555561405200,8.6184052734375,0.00052642822265625,0.0019868016242980957,-0.015475571155548096
1761333555580104200,8.637104248046874,-0.013490676879882812,-0.009570658206939697,0.006001070141792297
1761333555598803000,8.655802978515625,-0.0039424896240234375,-0.019126594066619873,-0.008048593997955322
1761333555617501700,8.674501708984375,-0.0109100341796875,-0.0070192813873291016,-0.007733091711997986
1761333555636200700,8.69320068359375,0.0032176971435546875,0.007236361503601074,-0.002773672342300415
1761333555654899500,8.7118994140625,0.002918243408203125,-0.002327442169189453,0.011618092656135559
1761333555673598500,8.730598388671876,0.0028619766235351562,-0.011754453182220459,-0.002719566226005554
1761333555692297200,8.749297119140625,0.0074329376220703125,0.012007653713226318,0.0017956197261810303
1761333555710996000,8.767995849609376,-0.006775856018066406,0.00004416704177856445,-0.005406126379966736
1761333555729695000,8.786695068359375,0.009723663330078125,-0.016795992851257324,-0.0005275607109069824
1761333555748393700,8.805393798828124,-0.011425018310546875,0.0047397613525390625,0.008848801255226135
1761333555767092700,8.8240927734375,0.014559745788574219,0.009274661540985107,0.008700460195541382
1761333555785791500,8.84279150390625,0.007260322570800781,-0.01910299062728882,0.01307651400566101
1761333555804490200,8.861490234375,0.007060050964355469,-0.01648569107055664,0.008379951119422913
1761333555823189200,8.880189208984374,-0.011960983276367188,0.0025132298469543457,-0.0010286569595336914
1761333555841888000,8.898887939453125,-0.009484291076660156,-0.0020163655281066895,-0.01060764491558075
1761333555860587000,8.9175869140625,-0.006852149963378906,0.007234156131744385,0.0058184415102005005
1761333555879285800,8.93628564453125,0.009566307067871094,0.006856858730316162,-0.01308886706829071
1761333555897984500,8.954984619140625,0.011724472045898438,-0.019009411334991455,-0.008133158087730408
1761333555916683500,8.97368359375,0.011609077453613281,0.016466617584228516,-0.012410745024681091
1761333555935382300,8.99238232421875,0.011261940002441406,-0.005020022392272949,-0.005125418305397034
1761333555954081300,9.011081298828126,-0.012601852416992188,0.006874740123748779,-0.0029249489307403564
1761333555972780000,9.029780029296875,0.0018453598022460938,-0.009652495384216309,-0.007501557469367981
1761333555991478800,9.048478759765626,0.006337165832519531,0.0069863200187683105,0.009099394083023071
1761333556010177800,9.067177734375,0.0015363693237304688,-0.018795907497406006,-0.00042219460010528564
1761333556028876500,9.08587646484375,-0.0007543563842773438,0.009685039520263672,0.011232748627662659
1761333556047575600,9.104575439453125,0.00864410400390625,0.00966346263885498,0.001757293939590454
1761333556066274300,9.1232744140625,0.00373077392578125,0.009268045425415039,-0.005329489707946777
1761333556084973000,9.14197314453125,-0.006117820739746094,-0.005247354507446289,0.00416332483291626
1761333556103672000,9.160672119140624,0.010244369506835938,-0.005362212657928467,-0.007920309901237488
1761333556122370800,9.179370849609375,-0.0110321044921875,0.0017622113227844238,0.0017313212156295776
1761333556141069800,9.19806982421875,0.0008630752563476562,-0.0030941367149353027,-0.010083451867103577
1761333556159768600,9.2167685546875,0.0031490325927734375,-0.0030096769332885742,0.004384741187095642
1761333556178467300,9.23546728515625,0.0008106231689453125,-0.01286226511001587,-0.0027379095554351807
1761333556197166300,9.254166259765626,0.0032987594604492188,0.005963742733001709,0.004326984286308289
1761333556215865000,9.272864990234375,0.0009145736694335938,-0.0056188106536865234,0.023266270756721497
1761333556234564000,9.291564208984376,0.0009241104125976562,0.003963172435760498,-0.000706210732460022
1761333556253262800,9.310262939453125,-0.001537322998046875,-0.0007563233375549316,-0.007603242993354797
1761333556271961600,9.328961669921876,0.01020050048828125,-0.0009033679962158203,-0.01212504506111145
1761333556290660400,9.347660400390625,-0.0064907073974609375,0.0012848377227783203,-0.016830459237098694
1761333556309359400,9.366359375,-0.001495361328125,-0.00587838888168335,-0.0021616071462631226
1761333556328058400,9.385058349609375,-0.015796661376953125,-0.001227736473083496,0.021315589547157288
1761333556346757000,9.403757080078124,0.0032377243041992188,0.000901341438293457,0.0022652000188827515
1761333556365456000,9.422455810546875,0.0030574798583984375,0.00782155990600586,-0.007265821099281311
1761333556384155000,9.44115478515625,0.000797271728515625,0.0007558465003967285,0.016090184450149536
1761333556402853600,9.459853515625,-0.0040149688720703125,-0.010998427867889404,0.00844806432723999
1761333556421552600,9.478552734375,0.007883071899414062,0.017245888710021973,-0.001219049096107483
1761333556440251400,9.49725146484375,-0.018141746520996094,-0.027615606784820557,-0.01320260763168335
1761333556458950100,9.5159501953125,0.0010480880737304688,0.008062422275543213,0.00794278085231781
1761333556477649200,9.534649169921876,-0.0037660598754882812,0.003135204315185547,-0.017965853214263916
1761333556496348000,9.553347900390625,0.0034198760986328125,0.0076691508293151855,0.00359266996383667
1761333556515047000,9.572046875,0.0033054351806640625,0.005282759666442871,-0.005794644355773926
1761333556533745700,9.59074560546875,-0.006369590759277344,0.0005665421485900879,0.001328393816947937
1761333556552444400,9.6094443359375,0.0007781982421875,0.012352049350738525,0.00843098759651184
1761333556571143400,9.628143310546875,-0.0012426376342773438,-0.006714165210723877,0.0011830031871795654
1761333556589842200,9.64684228515625,-0.0058269500732421875,-0.002154827117919922,-0.012780696153640747
1761333556608541200,9.665541259765625,0.012906074523925781,0.00039893388748168945,-0.01022571325302124
1761333556627240000,9.684239990234374,-0.0062198638916015625,0.014705538749694824,0.008528381586074829
1761333556645938700,9.702938720703125,-0.005974769592285156,0.005026459693908691,0.0014524459838867188
1761333556664637700,9.7216376953125,0.010457038879394531,0.005235910415649414,0.01794293522834778
1761333556683336400,9.74033642578125,0.0033245086669921875,0.010045349597930908,-0.005854755640029907
1761333556702035500,9.759035400390625,-0.01784515380859375,-0.0016960501670837402,-0.01963019371032715
1761333556720734200,9.777734130859375,-0.017213821411132812,0.0006581544876098633,-0.0023559778928756714
1761333556739433000,9.796432861328125,0.02067852020263672,0.008026361465454102,0.01690097153186798
1761333556758132000,9.815132080078126,-0.012440681457519531,0.005565643310546875,-0.009354636073112488
1761333556776830700,9.833830810546875,0.0018453598022460938,0.003280043601989746,0.00045052170753479004
1761333556795529700,9.85252978515625,-0.01009368896484375,-0.011094212532043457,-0.0019625574350357056
1761333556814228500,9.871228515625,0.013726234436035156,0.007940292358398438,-0.006381914019584656
1761333556832927200,9.88992724609375,-0.02186870574951172,0.003184080123901367,0.002807304263114929
1761333556851626200,9.908626220703125,-0.005103111267089844,0.0010848641395568848,0.005005359649658203
1761333556870325000,9.927324951171874,-0.0003833770751953125,-0.008416235446929932,0.01228494942188263
1761333556889024000,9.94602392578125,-0.0028085708618164062,-0.026752173900604248,0.0074438899755477905
1761333556907722800,9.96472265625,-0.002593994140625,0.004377543926239014,-0.01122640073299408
1761333556926421800,9.983421875,-0.000274658203125,-0.026565730571746826,0.0076963454484939575
1761333556945120500,10.00212060546875,0.004200935363769531,0.006977438926696777,0.005316734313964844
1761333556963819500,10.020819580078125,-0.009705543518066406,0.006919682025909424,0.016730472445487976
1761333556982518300,10.039518310546875,0.002346038818359375,-0.007461130619049072,0.018871977925300598
1761333557001217000,10.058217041015626,-0.00012493133544921875,-0.00031048059463500977,0.0018900483846664429
1761333557019916000,10.076916015625,0.0023517608642578125,-0.009727180004119873,-0.0006088763475418091
1761333557038614800,10.09561474609375,0.007250785827636719,0.001967906951904297,0.008535802364349365
1761333557057313800,10.114313720703125,0.0024929046630859375,-0.016886591911315918,0.0036343634128570557
1761333557076012500,10.133012451171876,-0.013943672180175781,0.009302198886871338,-0.007812529802322388
1761333557094711300,10.151711181640625,0.025543212890625,-0.028847873210906982,-0.011598214507102966
1761333557113410300,10.170410400390624,0.06154441833496094,-0.009502708911895752,-0.004416048526763916
1761333557132109000,10.189109130859375,-0.009281158447265625,0.00962895154953003,0.0028445422649383545
1761333557150808000,10.20780810546875,-0.03956031799316406,-0.016745030879974365,-0.013738483190536499
