time,seconds_elapsed,z,y,x
1761333547025387800,0.0823876953125,0.010384701192378998,-0.014660755172371864,0.002443459117785096
1761333547044086500,0.10108642578125,0.010384701192378998,-0.014660755172371864,0.001832594396546483
1761333547062785500,0.11978564453125,0.010995565913617611,-0.015271619893610477,0.001832594396546483
1761333547081484300,0.138484375,0.010384701192378998,-0.01588248461484909,0.001832594396546483
1761333547100183000,0.15718310546875,0.010384701192378998,-0.015271619893610477,0.001221729558892548
1761333547118881800,0.1758818359375,0.009773836471140385,-0.015271619893610477,0.002443459117785096
1761333547137580800,0.194580810546875,0.010384701192378998,-0.015271619893610477,0.002443459117785096
1761333547156279600,0.213279541015625,0.010384701192378998,-0.014660755172371864,0.002443459117785096
1761333547174978300,0.231978271484375,0.010384701192378998,-0.014660755172371864,0.002443459117785096
1761333547193677000,0.250677001953125,0.010995565913617611,-0.01588248461484909,0.001832594396546483
1761333547212376000,0.2693759765625,0.009773836471140385,-0.014660755172371864,0.001832594396546483
1761333547231074800,0.28807470703125,0.010384701192378998,-0.01588248461484909,0.001832594396546483
1761333547249773600,0.306773681640625,0.010995565913617611,-0.014660755172371864,0.001832594396546483
1761333547268472600,0.32547265625,0.010384701192378998,-0.015271619893610477,0.001832594396546483
1761333547287171300,0.34417138671875,0.010995565913617611,-0.014660755172371864,0.001832594396546483
1761333547305870000,0.3628701171875,0.010995565913617611,-0.01588248461484909,0.002443459117785096
1761333547324568800,0.38156884765625,0.009773836471140385,-0.015271619893610477,0.0030543238390237093
1761333547343267600,0.400267578125,0.010384701192378998,-0.014660755172371864,0.001832594396546483
1761333547361966600,0.418966552734375,0.010995565913617611,-0.015271619893610477,0.001832594396546483
1761333547380665300,0.437665283203125,0.009162971749901772,-0.015271619893610477,0.001221729558892548
1761333547399364000,0.456364013671875,0.010995565913617611,-0.01588248461484909,0.002443459117785096
1761333547418062800,0.475062744140625,0.009773836471140385,-0.01588248461484909,0.001832594396546483
1761333547436761900,0.493761962890625,0.010384701192378998,-0.014660755172371864,0.001832594396546483
1761333547455460600,0.512460693359375,0.010384701192378998,-0.01588248461484909,0.001832594396546483
1761333547474159400,0.531159423828125,0.010995565913617611,-0.015271619893610477,0.002443459117785096
1761333547492858400,0.5498583984375,0.010995565913617611,-0.015271619893610477,0.002443459117785096
1761333547511557000,0.56855712890625,0.010384701192378998,-0.015271619893610477,0.002443459117785096
1761333547530256000,0.587255859375,0.010995565913617611,-0.015271619893610477,0.002443459117785096
1761333547548954600,0.60595458984375,0.010384701192378998,-0.01588248461484909,0.001832594396546483
1761333547567653600,0.624653564453125,0.010995565913617611,-0.015271619893610477,0.002443459117785096
1761333547586352400,0.643352294921875,0.009773836471140385,-0.015271619893610477,0.002443459117785096
1761333547605051100,0.662051025390625,0.010384701192378998,-0.014660755172371864,0.001221729558892548
1761333547623750100,0.680750244140625,0.010384701192378998,-0.015271619893610477,0.001832594396546483
1761333547642449000,0.699448974609375,0.010995565913617611,-0.01588248461484909,0.001221729558892548
1761333547661147600,0.718147705078125,0.010995565913617611,-0.014660755172371864,0.001832594396546483
1761333547679846400,0.736846435546875,0.009773836471140385,-0.015271619893610477,0.002443459117785096
1761333547698545200,0.755545166015625,0.010995565913617611,-0.015271619893610477,0.002443459117785096
1761333547717243100,0.7742431640625,0.010995565913617611,-0.014660755172371864,0.002443459117785096
1761333547735942000,0.79294189453125,0.009773836471140385,-0.014660755172371864,0.002443459117785096
1761333547754640600,0.811640625,0.010384701192378998,-0.01588248461484909,0.001832594396546483
1761333547773339400,0.83033935546875,0.010995565913617611,-0.01588248461484909,0.002443459117785096
1761333547792038100,0.8490380859375,0.009773836471140385,-0.015271619893610477,0.002443459117785096
1761333547810737000,0.86773681640625,0.010995565913617611,-0.014660755172371864,0.001832594396546483
1761333547829436000,0.886435791015625,0.010384701192378998,-0.015271619893610477,0.001221729558892548
1761333547848134700,0.905134765625,0.010384701192378998,-0.01588248461484909,0.001832594396546483
1761333547866833700,0.923833740234375,0.010995565913617611,-0.015271619893610477,0.001832594396546483
1761333547885532400,0.942532470703125,0.010384701192378998,-0.015271619893610477,0.001832594396546483
1761333547904231200,0.961231201171875,0.010384701192378998,-0.014660755172371864,0.002443459117785096
1761333547922930000,0.979929931640625,0.009773836471140385,-0.01588248461484909,0.001221729558892548
1761333547941628700,0.998628662109375,0.010995565913617611,-0.01588248461484909,0.001832594396546483
1761333547960327700,1.01732763671875,0.010995565913617611,-0.01588248461484909,0.001832594396546483
1761333547979026400,1.0360263671875,0.010384701192378998,-0.014660755172371864,0.001832594396546483
1761333547997725200,1.05472509765625,0.010384701192378998,-0.015271619893610477,0.002443459117785096
1761333548016424200,1.073424072265625,0.010384701192378998,-0.014660755172371864,0.001221729558892548
1761333548035123000,1.092123046875,0.010384701192378998,-0.014660755172371864,0.001221729558892548
1761333548053821700,1.11082177734375,0.010384701192378998,-0.015271619893610477,0.001832594396546483
1761333548072520400,1.1295205078125,0.010384701192378998,-0.01588248461484909,0.002443459117785096
1761333548091219500,1.148219482421875,0.010384701192378998,-0.015271619893610477,0.002443459117785096
1761333548109918200,1.166918212890625,0.010995565913617611,-0.015271619893610477,0.001832594396546483
1761333548128617000,1.185616943359375,0.010995565913617611,-0.014660755172371864,0.001832594396546483
1761333548147316000,1.20431591796875,0.010384701192378998,-0.01588248461484909,0.001832594396546483
1761333548166014700,1.2230146484375,0.010384701192378998,-0.014660755172371864,0.002443459117785096
1761333548184713500,1.24171337890625,0.010384701192378998,-0.015271619893610477,0.002443459117785096
1761333548203412200,1.260412109375,0.010384701192378998,-0.014660755172371864,0.002443459117785096
1761333548222111200,1.279111328125,0.010384701192378998,-0.01588248461484909,0.001221729558892548
1761333548240810000,1.29781005859375,0.010384701192378998,-0.015271619893610477,0.001221729558892548
1761333548259508700,1.3165087890625,0.010995565913617611,-0.014660755172371864,0.001221729558892548
1761333548278207700,1.335207763671875,0.010995565913617611,-0.01588248461484909,0.002443459117785096
1761333548296906500,1.353906494140625,0.010384701192378998,-0.01588248461484909,0.002443459117785096
1761333548315605200,1.372605224609375,0.010995565913617611,-0.01588248461484909,0.002443459117785096
1761333548334304000,1.391303955078125,0.010384701192378998,-0.015271619893610477,0.001832594396546483
1761333548353003000,1.4100029296875,0.010995565913617611,-0.014660755172371864,0.002443459117785096
1761333548371701800,1.42870166015625,0.010384701192378998,-0.015271619893610477,0.002443459117785096
1761333548390400500,1.447400390625,0.011606430634856224,-0.015271619893610477,0.002443459117785096
1761333548409099500,1.466099609375,0.010995565913617611,-0.014660755172371864,0.001832594396546483
1761333548427798300,1.48479833984375,0.009773836471140385,-0.01588248461484909,0.001832594396546483
1761333548446497000,1.5034970703125,0.010384701192378998,-0.01588248461484909,0.001832594396546483
1761333548465195800,1.52219580078125,0.010384701192378998,-0.01588248461484909,0.002443459117785096
1761333548483894800,1.540894775390625,0.010995565913617611,-0.01588248461484909,0.002443459117785096
1761333548502593500,1.559593505859375,0.010995565913617611,-0.014660755172371864,0.002443459117785096
1761333548521292300,1.578292236328125,0.009773836471140385,-0.014660755172371864,0.001832594396546483
1761333548539991300,1.5969912109375,0.010995565913617611,-0.015271619893610477,0.001221729558892548
1761333548558690000,1.61568994140625,0.010995565913617611,-0.015271619893610477,0.002443459117785096
1761333548577388800,1.634388916015625,0.010384701192378998,-0.01588248461484909,0.001221729558892548
1761333548596087600,1.653087646484375,0.010384701192378998,-0.01588248461484909,0.002443459117785096
1761333548614786300,1.671786376953125,0.010995565913617611,-0.01588248461484909,0.001832594396546483
1761333548633485300,1.6904853515625,0.010995565913617611,-0.015271619893610477,0.001832594396546483
1761333548652184000,1.70918408203125,0.010995565913617611,-0.014660755172371864,0.002443459117785096
1761333548670883000,1.727883056640625,0.010995565913617611,-0.01588248461484909,0.002443459117785096
1761333548689581800,1.746581787109375,0.010995565913617611,-0.015271619893610477,0.002443459117785096
1761333548708280600,1.765280517578125,0.010384701192378998,-0.015271619893610477,0.001832594396546483
1761333548726979300,1.783979248046875,0.010995565913617611,-0.015271619893610477,0.001832594396546483
1761333548745678000,1.802677978515625,0.010384701192378998,-0.014660755172371864,0.002443459117785096
1761333548764377000,1.821377197265625,0.010995565913617611,-0.014660755172371864,0.002443459117785096
1761333548783075800,1.840075927734375,0.010995565913617611,-0.01588248461484909,0.001832594396546483
1761333548801774800,1.85877490234375,0.010384701192378998,-0.015271619893610477,0.002443459117785096
1761333548820473300,1.877473388671875,0.010384701192378998,-0.014660755172371864,0.001832594396546483
1761333548839172400,1.89617236328125,0.010384701192378998,-0.015271619893610477,0.001832594396546483
1761333548857871000,1.91487109375,0.010384701192378998,-0.01588248461484909,0.001832594396546483
1761333548876569900,1.93356982421875,0.010384701192378998,-0.01588248461484909,0.002443459117785096
1761333548895268900,1.952268798828125,0.010995565913617611,-0.014660755172371864,0.002443459117785096
1761333548913967600,1.970967529296875,0.010384701192378998,-0.015271619893610477,0.002443459117785096
1761333548932666400,1.989666259765625,0.009773836471140385,-0.01588248461484909,0.001832594396546483
1761333548951365000,2.008365234375,0.010995565913617611,-0.01588248461484909,0.002443459117785096
1761333548970064100,2.027064208984375,0.010995565913617611,-0.015271619893610477,0.002443459117785096
1761333548988763000,2.045762939453125,0.010384701192378998,-0.014660755172371864,0.002443459117785096
1761333549007461600,2.064461669921875,0.010995565913617611,-0.015271619893610477,0.002443459117785096
1761333549026160600,2.08316064453125,0.009773836471140385,-0.01588248461484909,0.002443459117785096
1761333549044859400,2.101859375,0.010384701192378998,-0.015271619893610477,0.002443459117785096
1761333549063558100,2.12055810546875,0.009773836471140385,-0.01588248461484909,0.001832594396546483
1761333549082257000,2.1392568359375,0.010995565913617611,-0.014660755172371864,0.001832594396546483
1761333549100956000,2.157955810546875,0.010995565913617611,-0.014660755172371864,0.001832594396546483
1761333549119654700,2.176654541015625,0.009773836471140385,-0.01588248461484909,0.002443459117785096
1761333549138353700,2.195353759765625,0.010384701192378998,-0.015271619893610477,0.001221729558892548
1761333549157052400,2.214052490234375,0.010995565913617611,-0.01588248461484909,0.001832594396546483
1761333549175751200,2.232751220703125,0.010995565913617611,-0.014660755172371864,0.001832594396546483
1761333549194450000,2.251449951171875,0.009773836471140385,-0.015271619893610477,0.001832594396546483
1761333549213148700,2.270148681640625,0.010384701192378998,-0.014660755172371864,0.002443459117785096
1761333549231847700,2.28884765625,0.009773836471140385,-0.014660755172371864,0.002443459117785096
1761333549250546400,2.30754638671875,0.010384701192378998,-0.01588248461484909,0.002443459117785096
1761333549269245400,2.326245361328125,0.010995565913617611,-0.01588248461484909,0.001221729558892548
1761333549287944200,2.344944091796875,0.010384701192378998,-0.01588248461484909,0.002443459117785096
1761333549306643000,2.363642822265625,0.010384701192378998,-0.01588248461484909,0.002443459117785096
1761333549325341700,2.382341796875,0.010384701192378998,-0.01649334840476513,0.001832594396546483
1761333549344040700,2.401040771484375,0.010384701192378998,-0.014660755172371864,0.002443459117785096
1761333549362739500,2.419739501953125,0.010995565913617611,-0.01588248461484909,0.002443459117785096
1761333549381438200,2.438438232421875,0.010995565913617611,-0.01588248461484909,0.002443459117785096
1761333549400137200,2.45713720703125,0.010995565913617611,-0.01588248461484909,0.002443459117785096
1761333549418836000,2.4758359375,0.010995565913617611,-0.015271619893610477,0.001832594396546483
1761333549437534700,2.49453466796875,0.010995565913617611,-0.015271619893610477,0.001832594396546483
1761333549456233500,2.5132333984375,0.010995565913617611,-0.015271619893610477,0.002443459117785096
1761333549474932500,2.531932373046875,0.010995565913617611,-0.015271619893610477,0.001832594396546483
1761333549493631200,2.55063134765625,0.010384701192378998,-0.015271619893610477,0.001832594396546483
1761333549512330000,2.569330078125,0.009773836471140385,-0.015271619893610477,0.001221729558892548
1761333549531029000,2.588029052734375,0.010384701192378998,-0.01588248461484909,0.001221729558892548
1761333549549727700,2.606727783203125,0.010384701192378998,-0.01588248461484909,0.001832594396546483
1761333549568426500,2.625426513671875,0.010995565913617611,-0.01588248461484909,0.002443459117785096
1761333549587125200,2.644125244140625,0.010384701192378998,-0.014660755172371864,0.001832594396546483
1761333549605824300,2.66282421875,0.010995565913617611,-0.014660755172371864,0.001832594396546483
1761333549624523000,2.68152294921875,0.010384701192378998,-0.01588248461484909,0.002443459117785096
1761333549643221800,2.7002216796875,0.009773836471140385,-0.01588248461484909,0.002443459117785096
1761333549661920800,2.718920654296875,0.010995565913617611,-0.01588248461484909,0.002443459117785096
1761333549680619500,2.73761962890625,0.011606430634856224,-0.014049889519810677,0.002443459117785096
1761333549699318300,2.756318359375,0.010384701192378998,-0.015271619893610477,0.001221729558892548
1761333549718017000,2.77501708984375,0.010995565913617611,-0.015271619893610477,0.002443459117785096
1761333549736716000,2.793716064453125,0.010995565913617611,-0.015271619893610477,0.002443459117785096
1761333549755414800,2.812414794921875,0.010995565913617611,-0.014660755172371864,0.002443459117785096
1761333549774113800,2.83111376953125,0.010995565913617611,-0.015271619893610477,0.001832594396546483
1761333549792812500,2.8498125,0.010384701192378998,-0.01588248461484909,0.001832594396546483
1761333549811511300,2.86851123046875,0.010995565913617611,-0.015271619893610477,0.001221729558892548
1761333549830210000,2.8872099609375,0.009773836471140385,-0.015271619893610477,0.001221729558892548
1761333549848909000,2.905908935546875,0.009773836471140385,-0.015271619893610477,0.001832594396546483
1761333549867607800,2.92460791015625,0.010384701192378998,-0.015271619893610477,0.002443459117785096
1761333549886306600,2.943306640625,0.010995565913617611,-0.015271619893610477,0.002443459117785096
1761333549905005600,2.962005615234375,0.010995565913617611,-0.015271619893610477,0.001221729558892548
1761333549923704300,2.980704345703125,0.010995565913617611,-0.01588248461484909,0.001832594396546483
1761333549942403000,2.999403076171875,0.010384701192378998,-0.015271619893610477,0.001221729558892548
1761333549961101800,3.018101806640625,0.010995565913617611,-0.01588248461484909,0.002443459117785096
1761333549979800800,3.03680078125,0.010384701192378998,-0.014049889519810677,0.002443459117785096
1761333549998499600,3.05549951171875,0.010995565913617611,-0.015271619893610477,0.002443459117785096
1761333550017198300,3.0741982421875,0.010995565913617611,-0.015271619893610477,0.001832594396546483
1761333550035897300,3.0928974609375,0.010995565913617611,-0.01588248461484909,0.001832594396546483
1761333550054596000,3.11159619140625,0.010995565913617611,-0.014660755172371864,0.001832594396546483
1761333550073294800,3.130294921875,0.010384701192378998,-0.01588248461484909,0.001832594396546483
1761333550091993600,3.14899365234375,0.010995565913617611,-0.015271619893610477,0.002443459117785096
1761333550110692600,3.167692626953125,0.010995565913617611,-0.014660755172371864,0.001832594396546483
1761333550129391400,3.186391357421875,0.010384701192378998,-0.01588248461484909,0.002443459117785096
1761333550148090400,3.20509033203125,0.009773836471140385,-0.015271619893610477,0.002443459117785096
1761333550166789000,3.2237890625,0.010995565913617611,-0.01588248461484909,0.001832594396546483
1761333550185488000,3.24248779296875,0.009773836471140385,-0.015271619893610477,0.002443459117785096
1761333550204186600,3.2611865234375,0.010384701192378998,-0.01588248461484909,0.001832594396546483
1761333550222885600,3.2798857421875,0.010384701192378998,-0.01588248461484909,0.001832594396546483
1761333550241584400,3.29858447265625,0.010384701192378998,-0.014660755172371864,0.002443459117785096
1761333550260283100,3.317283203125,0.010995565913617611,-0.01588248461484909,0.001221729558892548
1761333550278982000,3.33598193359375,0.010384701192378998,-0.015271619893610477,0.001832594396546483
1761333550297681000,3.354680908203125,0.010384701192378998,-0.015271619893610477,0.002443459117785096
1761333550316379600,3.373379638671875,0.010384701192378998,-0.015271619893610477,0.001832594396546483
1761333550335078700,3.39207861328125,0.010384701192378998,-0.014660755172371864,0.002443459117785096
1761333550353777400,3.41077734375,0.010384701192378998,-0.01649334840476513,0.001832594396546483
1761333550372476200,3.42947607421875,0.010384701192378998,-0.01588248461484909,0.001832594396546483
1761333550391175000,3.4481748046875,0.010995565913617611,-0.01588248461484909,0.002443459117785096
1761333550409874000,3.4668740234375,0.010995565913617611,-0.015271619893610477,0.001221729558892548
1761333550428572700,3.48557275390625,0.009773836471140385,-0.015271619893610477,0.002443459117785096
1761333550447271400,3.504271484375,0.010384701192378998,-0.015271619893610477,0.002443459117785096
1761333550465970400,3.522970458984375,0.010384701192378998,-0.01588248461484909,0.001832594396546483
1761333550484669200,3.541669189453125,0.010384701192378998,-0.01588248461484909,0.002443459117785096
1761333550503368000,3.560367919921875,0.009773836471140385,-0.015271619893610477,0.001221729558892548
1761333550522066700,3.579066650390625,0.010995565913617611,-0.015271619893610477,0.001832594396546483
1761333550540765700,3.597765625,0.010995565913617611,-0.015271619893610477,0.001221729558892548
1761333550559464400,3.61646435546875,0.010995565913617611,-0.014660755172371864,0.001832594396546483
1761333550578163500,3.63516357421875,0.009773836471140385,-0.015271619893610477,0.002443459117785096
1761333550596862200,3.6538623046875,0.010995565913617611,-0.014660755172371864,0.002443459117785096
1761333550615561000,3.67256103515625,0.009773836471140385,-0.01588248461484909,0.001832594396546483
1761333550634259700,3.691259765625,0.010384701192378998,-0.014660755172371864,0.001221729558892548
1761333550652958700,3.709958740234375,0.010995565913617611,-0.01588248461484909,0.001832594396546483
1761333550671657500,3.728657470703125,0.010995565913617611,-0.01588248461484909,0.001221729558892548
1761333550690356200,3.747356201171875,0.010384701192378998,-0.01588248461484909,0.001832594396546483
1761333550709055200,3.76605517578125,0.009773836471140385,-0.015271619893610477,0.001832594396546483
1761333550727754000,3.78475390625,0.009773836471140385,-0.01588248461484909,0.002443459117785096
1761333550746452700,3.80345263671875,0.010995565913617611,-0.015271619893610477,0.002443459117785096
1761333550765151700,3.82215185546875,0.010995565913617611,-0.01588248461484909,0.002443459117785096
1761333550783850500,3.8408505859375,0.009773836471140385,-0.015271619893610477,0.002443459117785096
1761333550802549200,3.85954931640625,0.010384701192378998,-0.015271619893610477,0.001221729558892548
1761333550821248300,3.878248291015625,0.010995565913617611,-0.01588248461484909,0.001832594396546483
1761333550839947000,3.896947021484375,0.010384701192378998,-0.01588248461484909,0.001221729558892548
1761333550858645800,3.915645751953125,0.010384701192378998,-0.01588248461484909,0.002443459117785096
1761333550877344500,3.934344482421875,0.010995565913617611,-0.01588248461484909,0.001832594396546483
1761333550896043500,3.95304345703125,0.010384701192378998,-0.01588248461484909,0.002443459117785096
1761333550914742300,3.9717421875,0.010384701192378998,-0.01588248461484909,0.001832594396546483
1761333550933441300,3.990441162109375,0.010995565913617611,-0.015271619893610477,0.002443459117785096
1761333550952140000,4.00914013671875,0.009773836471140385,-0.01588248461484909,0.002443459117785096
1761333550970838800,4.0278388671875,0.010995565913617611,-0.015271619893610477,0.002443459117785096
1761333550989537500,4.04653759765625,0.009773836471140385,-0.015271619893610477,0.0030543238390237093
1761333551008236500,4.065236572265625,0.009773836471140385,-0.015271619893610477,0.001832594396546483
1761333551026935300,4.083935302734375,0.010995565913617611,-0.014049889519810677,0.001832594396546483
1761333551045634300,4.10263427734375,0.010995565913617611,-0.015271619893610477,0.002443459117785096
1761333551064333000,4.1213330078125,0.010384701192378998,-0.015271619893610477,0.001832594396546483
1761333551083031800,4.14003173828125,0.010384701192378998,-0.015271619893610477,0.001832594396546483
1761333551101730600,4.15873046875,0.010384701192378998,-0.014660755172371864,0.001832594396546483
1761333551120429600,4.1774296875,0.010384701192378998,-0.015271619893610477,0.002443459117785096
1761333551139128300,4.19612841796875,0.010384701192378998,-0.015271619893610477,0.002443459117785096
1761333551157827300,4.214827392578125,0.009773836471140385,-0.01588248461484909,0.001832594396546483
1761333551176526000,4.233526123046875,0.010995565913617611,-0.014660755172371864,0.002443459117785096
1761333551195224800,4.252224853515625,0.009773836471140385,-0.01649334840476513,0.001221729558892548
1761333551213923600,4.270923583984375,0.010995565913617611,-0.015271619893610477,0.001221729558892548
1761333551232622600,4.28962255859375,0.009773836471140385,-0.01588248461484909,0.001832594396546483
1761333551251321300,4.3083212890625,0.010995565913617611,-0.015271619893610477,0.001832594396546483
1761333551270020000,4.32702001953125,0.010995565913617611,-0.01588248461484909,0.002443459117785096
1761333551288719000,4.345718994140625,0.010384701192378998,-0.01649334840476513,0.002443459117785096
1761333551307417900,4.36441796875,0.010995565913617611,-0.015271619893610477,0.001221729558892548
1761333551326116600,4.38311669921875,0.009773836471140385,-0.015271619893610477,0.001221729558892548
1761333551344815600,4.401815673828125,0.010384701192378998,-0.014660755172371864,0.001832594396546483
1761333551363514400,4.420514404296875,0.010384701192378998,-0.01588248461484909,0.001221729558892548
1761333551382213000,4.439213134765625,0.010384701192378998,-0.014660755172371864,0.001221729558892548
1761333551400912100,4.457912109375,0.010384701192378998,-0.015271619893610477,0.002443459117785096
1761333551419611000,4.47661083984375,0.009773836471140385,-0.015271619893610477,0.001832594396546483
1761333551438309600,4.4953095703125,0.009773836471140385,-0.014660755172371864,0.002443459117785096
1761333551457008600,4.514008544921875,0.010995565913617611,-0.01649334840476513,0.002443459117785096
1761333551475707400,4.532707275390625,0.010995565913617611,-0.015271619893610477,0.002443459117785096
1761333551494406100,4.55140625,0.010384701192378998,-0.01588248461484909,0.001832594396546483
1761333551513105200,4.570105224609375,0.010995565913617611,-0.014660755172371864,0.002443459117785096
1761333551531804000,4.588803955078125,0.010995565913617611,-0.015271619893610477,0.002443459117785096
1761333551550502700,4.607502685546875,0.009773836471140385,-0.01588248461484909,0.002443459117785096
1761333551569201700,4.62620166015625,0.010384701192378998,-0.01588248461484909,0.002443459117785096
1761333551587900400,4.644900390625,0.009773836471140385,-0.01588248461484909,0.002443459117785096
1761333551606599200,4.66359912109375,0.010384701192378998,-0.014660755172371864,0.001832594396546483
1761333551625298200,4.682298095703125,0.009773836471140385,-0.015271619893610477,0.002443459117785096
1761333551643997000,4.700996826171875,0.010384701192378998,-0.01588248461484909,0.002443459117785096
1761333551662695700,4.71969580078125,0.009773836471140385,-0.015271619893610477,0.002443459117785096
1761333551681394700,4.738394775390625,0.010995565913617611,-0.01588248461484909,0.001832594396546483
1761333551700093400,4.757093505859375,0.010384701192378998,-0.01588248461484909,0.001832594396546483
1761333551718792200,4.775792236328125,0.010995565913617611,-0.015271619893610477,0.001832594396546483
1761333551737491200,4.7944912109375,0.010384701192378998,-0.015271619893610477,0.001832594396546483
1761333551756190000,4.81318994140625,0.010384701192378998,-0.014049889519810677,0.002443459117785096
1761333551774888700,4.831888671875,0.010384701192378998,-0.015271619893610477,0.002443459117785096
1761333551793587700,4.850587646484375,0.010384701192378998,-0.015271619893610477,0.002443459117785096
1761333551812286500,4.869286376953125,0.009773836471140385,-0.014660755172371864,0.001832594396546483
1761333551830985500,4.8879853515625,0.009773836471140385,-0.01588248461484909,0.002443459117785096
1761333551849684000,4.90668408203125,0.010384701192378998,-0.014660755172371864,0.001832594396546483
1761333551868383000,4.925383056640625,0.010995565913617611,-0.014660755172371864,0.001832594396546483
1761333551887081700,4.944081787109375,0.010384701192378998,-0.015271619893610477,0.002443459117785096
1761333551905780700,4.96278076171875,0.010995565913617611,-0.015271619893610477,0.001832594396546483
1761333551924479500,4.9814794921875,0.010995565913617611,-0.015271619893610477,0.002443459117785096
1761333551943178200,5.00017822265625,0.010384701192378998,-0.015271619893610477,0.001832594396546483
1761333551961877000,5.018876953125,0.009773836471140385,-0.01588248461484909,0.002443459117785096
1761333551980576000,5.037575927734375,0.010384701192378998,-0.01588248461484909,0.001221729558892548
1761333551999274800,5.056274658203125,0.010995565913617611,-0.015271619893610477,0.002443459117785096
1761333552017973800,5.074973876953125,0.010995565913617611,-0.01588248461484909,0.001832594396546483
1761333552036672500,5.093672607421875,0.010995565913617611,-0.01588248461484909,0.001832594396546483
1761333552055371300,5.112371337890625,0.010995565913617611,-0.015271619893610477,0.001832594396546483
1761333552074070300,5.1310703125,0.010995565913617611,-0.015271619893610477,0.002443459117785096
1761333552092769000,5.14976904296875,0.010384701192378998,-0.015271619893610477,0.001832594396546483
1761333552111467800,5.1684677734375,0.009773836471140385,-0.015271619893610477,0.002443459117785096
1761333552130166800,5.187166748046875,0.010995565913617611,-0.01588248461484909,0.002443459117785096
1761333552148865500,5.205865478515625,0.010995565913617611,-0.01588248461484909,0.002443459117785096
1761333552167564300,5.224564208984375,0.010384701192378998,-0.014660755172371864,0.002443459117785096
1761333552186263300,5.24326318359375,0.010995565913617611,-0.015271619893610477,0.002443459117785096
1761333552204962000,5.261962158203125,0.010384701192378998,-0.015271619893610477,0.002443459117785096
1761333552223661000,5.2806611328125,0.010384701192378998,-0.015271619893610477,0.001832594396546483
1761333552242359800,5.29935986328125,0.010995565913617611,-0.01588248461484909,0.002443459117785096
1761333552261058600,5.31805859375,0.011606430634856224,-0.01588248461484909,0.001832594396546483
1761333552279757300,5.33675732421875,0.010384701192378998,-0.014660755172371864,0.001832594396546483
1761333552298456300,5.355456298828125,0.010384701192378998,-0.014660755172371864,0.002443459117785096
1761333552317155000,5.374155029296875,0.010995565913617611,-0.014660755172371864,0.002443459117785096
1761333552335854000,5.39285400390625,0.010384701192378998,-0.015271619893610477,0.001832594396546483
1761333552354552800,5.411552734375,0.009773836471140385,-0.015271619893610477,0.002443459117785096
1761333552373251600,5.43025146484375,0.010995565913617611,-0.014660755172371864,0.001832594396546483
1761333552391950300,5.448950439453125,0.009773836471140385,-0.01588248461484909,0.001832594396546483
1761333552410649300,5.4676494140625,0.009773836471140385,-0.015271619893610477,0.001832594396546483
1761333552429348000,5.48634814453125,0.010995565913617611,-0.014660755172371864,0.002443459117785096
1761333552448047000,5.505047119140625,0.010384701192378998,-0.015271619893610477,0.001832594396546483
1761333552466745900,5.523745849609375,0.010384701192378998,-0.01588248461484909,0.001832594396546483
1761333552485444600,5.542444580078125,0.010384701192378998,-0.01588248461484909,0.002443459117785096
1761333552504143600,5.5611435546875,0.010384701192378998,-0.015271619893610477,0.001832594396546483
1761333552522842400,5.57984228515625,0.009773836471140385,-0.015271619893610477,0.001832594396546483
1761333552541541000,5.598541015625,0.009773836471140385,-0.014660755172371864,0.002443459117785096
1761333552560240000,5.617240234375,0.010995565913617611,-0.014660755172371864,0.002443459117785096
1761333552578939000,5.63593896484375,0.010384701192378998,-0.015271619893610477,0.0030543238390237093
1761333552597637600,5.6546376953125,0.010384701192378998,-0.01588248461484909,0.002443459117785096
1761333552616336600,5.673336669921875,0.010995565913617611,-0.01588248461484909,0.002443459117785096
1761333552635035400,5.692035400390625,0.010995565913617611,-0.015271619893610477,0.002443459117785096
1761333552653734400,5.710734375,0.010384701192378998,-0.014660755172371864,0.001832594396546483
1761333552672433200,5.72943310546875,0.010384701192378998,-0.014660755172371864,0.002443459117785096
1761333552691132000,5.7481318359375,0.010384701192378998,-0.01588248461484909,0.001221729558892548
1761333552709830700,5.76683056640625,0.010384701192378998,-0.015271619893610477,0.001832594396546483
1761333552728529700,5.78552978515625,0.010384701192378998,-0.014660755172371864,0.002443459117785096
1761333552747228400,5.804228515625,0.010995565913617611,-0.014660755172371864,0.002443459117785096
1761333552765927400,5.822927490234375,0.010995565913617611,-0.014660755172371864,0.002443459117785096
1761333552784626200,5.841626220703125,0.009773836471140385,-0.014660755172371864,0.002443459117785096
1761333552803325000,5.860324951171875,0.011606430634856224,-0.01588248461484909,0.001832594396546483
1761333552822024000,5.87902392578125,0.009773836471140385,-0.01588248461484909,0.002443459117785096
1761333552840722700,5.89772265625,0.010384701192378998,-0.01588248461484909,0.001832594396546483
1761333552859421700,5.916421630859375,0.010995565913617611,-0.015271619893610477,0.001832594396546483
1761333552878120400,5.935120361328125,0.010384701192378998,-0.015271619893610477,0.001832594396546483
1761333552896819200,5.953819091796875,0.010995565913617611,-0.01588248461484909,0.001221729558892548
1761333552915518000,5.97251806640625,0.010995565913617611,-0.01588248461484909,0.0030543238390237093
1761333552934217000,5.991217041015625,0.010995565913617611,-0.015271619893610477,0.001221729558892548
1761333552952915700,6.009915771484375,0.010384701192378998,-0.014660755172371864,0.002443459117785096
1761333552971614700,6.02861474609375,0.010384701192378998,-0.015271619893610477,0.002443459117785096
1761333552990313500,6.0473134765625,0.009773836471140385,-0.01588248461484909,0.002443459117785096
1761333553009012200,6.06601220703125,0.010995565913617611,-0.01588248461484909,0.002443459117785096
1761333553027711200,6.084711181640625,0.010384701192378998,-0.01588248461484909,0.002443459117785096
1761333553046410000,6.103409912109375,0.010384701192378998,-0.014660755172371864,0.001221729558892548
1761333553065108700,6.122108642578125,0.010384701192378998,-0.01588248461484909,0.002443459117785096
1761333553083807700,6.140807861328125,0.010995565913617611,-0.014660755172371864,0.002443459117785096
1761333553102506500,6.159506591796875,0.010995565913617611,-0.015271619893610477,0.002443459117785096
1761333553121205200,6.178205322265625,0.010384701192378998,-0.015271619893610477,0.002443459117785096
1761333553139904300,6.196904296875,0.010995565913617611,-0.015271619893610477,0.001832594396546483
1761333553158603000,6.21560302734375,0.009773836471140385,-0.014660755172371864,0.002443459117785096
1761333553177302000,6.234302001953125,0.010995565913617611,-0.014660755172371864,0.001832594396546483
1761333553196000800,6.253000732421875,0.010384701192378998,-0.014660755172371864,0.002443459117785096
1761333553214699500,6.271699462890625,0.009773836471140385,-0.01588248461484909,0.002443459117785096
1761333553233398500,6.2903984375,0.010995565913617611,-0.01588248461484909,0.002443459117785096
1761333553252097300,6.30909716796875,0.010995565913617611,-0.01588248461484909,0.002443459117785096
1761333553270796300,6.32779638671875,0.009773836471140385,-0.015271619893610477,0.002443459117785096
1761333553289495000,6.3464951171875,0.009773836471140385,-0.01588248461484909,0.002443459117785096
1761333553308193800,6.36519384765625,0.010384701192378998,-0.01588248461484909,0.001832594396546483
1761333553326892500,6.383892578125,0.011606430634856224,-0.015271619893610477,0.001221729558892548
1761333553345591600,6.402591552734375,0.010995565913617611,-0.015271619893610477,0.001832594396546483
1761333553364290300,6.421290283203125,0.009773836471140385,-0.015271619893610477,0.001832594396546483
1761333553382989300,6.4399892578125,0.010995565913617611,-0.015271619893610477,0.001832594396546483
1761333553401688000,6.45868798828125,0.010384701192378998,-0.015271619893610477,0.002443459117785096
1761333553420386800,6.47738671875,0.010384701192378998,-0.014660755172371864,0.001832594396546483
1761333553439085800,6.4960859375,0.011606430634856224,-0.014660755172371864,0.002443459117785096
1761333553457784600,6.51478466796875,0.010995565913617611,-0.015271619893610477,0.002443459117785096
1761333553476483600,6.533483642578125,0.010384701192378998,-0.015271619893610477,0.001221729558892548
1761333553495182300,6.552182373046875,0.010995565913617611,-0.015271619893610477,0.001832594396546483
1761333553513881000,6.570881103515625,0.010384701192378998,-0.015271619893610477,0.002443459117785096
1761333553532579800,6.589579833984375,0.010384701192378998,-0.014660755172371864,0.002443459117785096
1761333553551278800,6.60827880859375,0.009773836471140385,-0.014660755172371864,0.001832594396546483
1761333553569977600,6.6269775390625,0.010384701192378998,-0.015271619893610477,0.001832594396546483
1761333553588676600,6.645676513671875,0.010384701192378998,-0.01588248461484909,0.002443459117785096
1761333553607375400,6.664375244140625,0.009773836471140385,-0.01588248461484909,0.001832594396546483
1761333553626074000,6.68307421875,0.010995565913617611,-0.01588248461484909,0.002443459117785096
1761333553644773000,6.701773193359375,0.010384701192378998,-0.01588248461484909,0.002443459117785096
1761333553663471900,6.720471923828125,0.009773836471140385,-0.01588248461484909,0.002443459117785096
1761333553682171000,6.7391708984375,0.010995565913617611,-0.01588248461484909,0.002443459117785096
1761333553700869600,6.75786962890625,0.009773836471140385,-0.01588248461484909,0.002443459117785096
1761333553719568400,6.776568359375,0.010995565913617611,-0.01588248461484909,0.001832594396546483
1761333553738267400,6.795267333984375,0.009773836471140385,-0.01588248461484909,0.001832594396546483
1761333553756966100,6.813966064453125,0.010995565913617611,-0.015271619893610477,0.002443459117785096
1761333553775665000,6.832664794921875,0.009773836471140385,-0.015271619893610477,0.002443459117785096
1761333553794364000,6.851364013671875,0.010995565913617611,-0.014660755172371864,0.001832594396546483
1761333553813062700,6.870062744140625,0.009773836471140385,-0.014660755172371864,0.002443459117785096
1761333553831761400,6.888761474609375,0.010384701192378998,-0.01588248461484909,0.002443459117785096
1761333553850460400,6.90746044921875,0.010384701192378998,-0.014660755172371864,0.002443459117785096
1761333553869159200,6.9261591796875,0.010384701192378998,-0.015271619893610477,0.001832594396546483
1761333553887858200,6.944858154296875,0.010384701192378998,-0.015271619893610477,0.002443459117785096
1761333553906557000,6.963556884765625,0.010384701192378998,-0.014660755172371864,0.001221729558892548
1761333553925255700,6.982255615234375,0.010384701192378998,-0.01588248461484909,0.002443459117785096
1761333553943954700,7.00095458984375,0.010995565913617611,-0.014660755172371864,0.001832594396546483
1761333553962653400,7.0196533203125,0.010995565913617611,-0.014660755172371864,0.001832594396546483
1761333553981352400,7.0383525390625,0.010384701192378998,-0.015271619893610477,0.001832594396546483
1761333554000051200,7.05705126953125,0.009773836471140385,-0.015271619893610477,0.002443459117785096
1761333554018750000,7.07575,0.010384701192378998,-0.015271619893610477,0.002443459117785096
1761333554037449000,7.094448974609375,0.010384701192378998,-0.015271619893610477,0.001832594396546483
1761333554056147700,7.113147705078125,0.010995565913617611,-0.014660755172371864,0.002443459117785096
1761333554074846700,7.1318466796875,0.010384701192378998,-0.014660755172371864,0.001832594396546483
1761333554093545500,7.15054541015625,0.010384701192378998,-0.015271619893610477,0.002443459117785096
1761333554112244200,7.169244140625,0.010384701192378998,-0.014660755172371864,0.002443459117785096
1761333554130943000,7.18794287109375,0.009773836471140385,-0.01588248461484909,0.001832594396546483
1761333554149642000,7.20664208984375,0.009773836471140385,-0.015271619893610477,0.002443459117785096
1761333554168340700,7.2253408203125,0.010384701192378998,-0.015271619893610477,0.002443459117785096
1761333554187039700,7.244039794921875,0.009773836471140385,-0.015271619893610477,0.002443459117785096
1761333554205738500,7.262738525390625,0.010384701192378998,-0.014660755172371864,0.001832594396546483
1761333554224437200,7.281437255859375,0.010995565913617611,-0.015271619893610477,0.001221729558892548
1761333554243136300,7.30013623046875,0.010995565913617611,-0.01588248461484909,0.001221729558892548
1761333554261835000,7.3188349609375,0.009773836471140385,-0.014660755172371864,0.002443459117785096
1761333554280534000,7.337533935546875,0.010384701192378998,-0.01588248461484909,0.001832594396546483
1761333554299232800,7.356232666015625,0.010384701192378998,-0.01588248461484909,0.001832594396546483
1761333554317931500,7.374931640625,0.010995565913617611,-0.01588248461484909,0.002443459117785096
1761333554336630500,7.393630615234375,0.010995565913617611,-0.015271619893610477,0.001832594396546483
1761333554355329300,7.412329345703125,0.010995565913617611,-0.015271619893610477,0.002443459117785096
1761333554374028000,7.431028076171875,0.010995565913617611,-0.015271619893610477,0.002443459117785096
1761333554392727000,7.44972705078125,0.010384701192378998,-0.014660755172371864,0.001832594396546483
1761333554411425800,7.46842578125,0.010995565913617611,-0.01588248461484909,0.002443459117785096
1761333554430124800,7.487124755859375,0.010384701192378998,-0.01588248461484909,0.001221729558892548
1761333554448823600,7.505823486328125,0.010384701192378998,-0.015271619893610477,0.001221729558892548
1761333554467522300,7.524522216796875,0.010384701192378998,-0.014660755172371864,0.001221729558892548
1761333554486221000,7.543220947265625,0.010384701192378998,-0.01588248461484909,0.002443459117785096
1761333554504920000,7.561920166015625,0.010995565913617611,-0.01588248461484909,0.001832594396546483
1761333554523618800,7.580618896484375,0.010384701192378998,-0.014660755172371864,0.001832594396546483
1761333554542317800,7.59931787109375,0.010995565913617611,-0.01588248461484909,0.001832594396546483
1761333554561016600,7.6180166015625,0.010995565913617611,-0.014660755172371864,0.001832594396546483
1761333554579715300,7.63671533203125,0.010384701192378998,-0.015271619893610477,0.002443459117785096
1761333554598414300,7.655414306640625,0.010384701192378998,-0.015271619893610477,0.002443459117785096
1761333554617113000,7.674113037109375,0.009773836471140385,-0.015271619893610477,0.002443459117785096
1761333554635812000,7.69281201171875,0.010384701192378998,-0.015271619893610477,0.001832594396546483
1761333554654510800,7.7115107421875,0.010384701192378998,-0.015271619893610477,0.001832594396546483
1761333554673209600,7.730209716796875,0.010384701192378998,-0.014660755172371864,0.001832594396546483
1761333554691908600,7.74890869140625,0.010384701192378998,-0.01588248461484909,0.001221729558892548
1761333554710607400,7.767607421875,0.010995565913617611,-0.01588248461484909,0.001832594396546483
1761333554729306400,7.786306396484375,0.010384701192378998,-0.015271619893610477,0.001832594396546483
1761333554748005000,7.805005126953125,0.009773836471140385,-0.01588248461484909,0.001832594396546483
1761333554766703900,7.823703857421875,0.010384701192378998,-0.015271619893610477,0.002443459117785096
1761333554785402600,7.842402587890625,0.010995565913617611,-0.014660755172371864,0.002443459117785096
1761333554804101600,7.8611015625,0.010384701192378998,-0.014660755172371864,0.002443459117785096
1761333554822800600,7.879800537109375,0.010384701192378998,-0.015271619893610477,0.002443459117785096
1761333554841499400,7.89849951171875,0.010995565913617611,-0.015271619893610477,0.002443459117785096
1761333554860198100,7.9171982421875,0.010384701192378998,-0.015271619893610477,0.002443459117785096
1761333554878897200,7.935897216796875,0.010384701192378998,-0.015271619893610477,0.001832594396546483
1761333554897596000,7.954595947265625,0.010384701192378998,-0.015271619893610477,0.002443459117785096
1761333554916295000,7.973294921875,0.010384701192378998,-0.015271619893610477,0.002443459117785096
1761333554934993700,7.99199365234375,0.010995565913617611,-0.014660755172371864,0.002443459117785096
1761333554953692400,8.0106923828125,0.010384701192378998,-0.014660755172371864,0.002443459117785096
1761333554972391400,8.029391357421876,0.010384701192378998,-0.015271619893610477,0.001221729558892548
1761333554991090200,8.048090087890625,0.010995565913617611,-0.015271619893610477,0.002443459117785096
1761333555009789200,8.0667890625,0.010995565913617611,-0.01588248461484909,0.001832594396546483
1761333555028488000,8.085488037109375,0.010995565913617611,-0.014660755172371864,0.001221729558892548
1761333555047186700,8.104186767578126,0.010384701192378998,-0.01588248461484909,0.001221729558892548
1761333555065885700,8.1228857421875,0.010384701192378998,-0.014660755172371864,0.002443459117785096
1761333555084584400,8.14158447265625,0.010384701192378998,-0.014660755172371864,0.001832594396546483
1761333555103283500,8.160283447265625,0.010384701192378998,-0.015271619893610477,0.002443459117785096
1761333555121982200,8.178982177734374,0.010995565913617611,-0.015271619893610477,0.001832594396546483
1761333555140681000,8.197680908203125,0.010995565913617611,-0.01588248461484909,0.001221729558892548
1761333555159379700,8.216379638671874,0.009162971749901772,-0.015271619893610477,0.002443459117785096
1761333555178078700,8.23507861328125,0.010384701192378998,-0.014660755172371864,0.002443459117785096
1761333555196777500,8.253777587890625,0.010995565913617611,-0.015271619893610477,0.001832594396546483
1761333555215476500,8.2724765625,0.010995565913617611,-0.015271619893610477,0.001221729558892548
1761333555234175200,8.29117529296875,0.010995565913617611,-0.01588248461484909,0.001221729558892548
1761333555252874000,8.3098740234375,0.010384701192378998,-0.015271619893610477,0.001832594396546483
1761333555271573000,8.328572998046875,0.009773836471140385,-0.015271619893610477,0.002443459117785096
1761333555290271700,8.347271728515626,0.010384701192378998,-0.015271619893610477,0.002443459117785096
1761333555308970800,8.365970703125,0.009773836471140385,-0.014049889519810677,0.001832594396546483
1761333555327669500,8.38466943359375,0.010384701192378998,-0.01588248461484909,0.002443459117785096
1761333555346368300,8.4033681640625,0.010384701192378998,-0.014660755172371864,0.002443459117785096
1761333555365067300,8.4220673828125,0.009162971749901772,-0.015271619893610477,0.002443459117785096
1761333555383766000,8.44076611328125,0.010995565913617611,-0.015271619893610477,0.001832594396546483
1761333555402465000,8.459465087890624,0.010384701192378998,-0.014660755172371864,0.001832594396546483
1761333555421163800,8.478163818359375,0.010384701192378998,-0.015271619893610477,0.001832594396546483
1761333555439862500,8.496862548828124,0.010995565913617611,-0.01588248461484909,0.001832594396546483
1761333555458561500,8.5155615234375,0.010384701192378998,-0.015271619893610477,0.001221729558892548
1761333555477260300,8.53426025390625,0.010995565913617611,-0.015271619893610477,0.002443459117785096
1761333555495959300,8.552959228515626,0.010995565913617611,-0.014660755172371864,0.002443459117785096
1761333555514658000,8.571657958984375,0.010995565913617611,-0.01588248461484909,0.002443459117785096
1761333555533356800,8.590356689453126,0.010384701192378998,-0.015271619893610477,0.001832594396546483
1761333555552055800,8.609055908203125,0.010384701192378998,-0.015271619893610477,0.001221729558892548
1761333555570754600,8.627754638671876,0.009773836471140385,-0.01588248461484909,0.001832594396546483
1761333555589453600,8.64645361328125,0.010995565913617611,-0.01588248461484909,0.002443459117785096
1761333555608152300,8.66515234375,0.010995565913617611,-0.015271619893610477,0.001832594396546483
1761333555626851000,8.68385107421875,0.010384701192378998,-0.01588248461484909,0.002443459117785096
1761333555645550000,8.702550048828124,0.010384701192378998,-0.014660755172371864,0.002443459117785096
1761333555664248800,8.721248779296875,0.010995565913617611,-0.015271619893610477,0.001832594396546483
1761333555682947800,8.73994775390625,0.010384701192378998,-0.015271619893610477,0.001832594396546483
1761333555701646600,8.758646484375,0.010384701192378998,-0.01588248461484909,0.002443459117785096
1761333555720345300,8.777345458984374,0.010995565913617611,-0.015271619893610477,0.001832594396546483
1761333555739044400,8.79604443359375,0.010995565913617611,-0.014660755172371864,0.001221729558892548
1761333555757743000,8.8147431640625,0.010995565913617611,-0.015271619893610477,0.002443459117785096
1761333555776442000,8.833442138671876,0.010384701192378998,-0.015271619893610477,0.002443459117785096
1761333555795140900,8.852140869140625,0.010384701192378998,-0.015271619893610477,0.002443459117785096
1761333555813839600,8.870839599609376,0.010384701192378998,-0.014660755172371864,0.001832594396546483
1761333555832538600,8.88953857421875,0.010384701192378998,-0.01588248461484909,0.001832594396546483
1761333555851237400,8.9082373046875,0.010384701192378998,-0.015271619893610477,0.002443459117785096
1761333555869936400,8.926936279296875,0.010995565913617611,-0.015271619893610477,0.001832594396546483
1761333555888635100,8.94563525390625,0.010384701192378998,-0.015271619893610477,0.002443459117785096
1761333555907334000,8.964333984375,0.010384701192378998,-0.014660755172371864,0.001832594396546483
1761333555926033000,8.983032958984374,0.010384701192378998,-0.014660755172371864,0.001221729558892548
1761333555944731600,9.001731689453125,0.010995565913617611,-0.01588248461484909,0.002443459117785096
1761333555963430700,9.0204306640625,0.010384701192378998,-0.015271619893610477,0.001221729558892548
1761333555982129400,9.03912939453125,0.010384701192378998,-0.015271619893610477,0.002443459117785096
1761333556000828200,9.057828125,0.010995565913617611,-0.01588248461484909,0.001832594396546483
1761333556019527200,9.076527099609375,0.010384701192378998,-0.015271619893610477,0.001221729558892548
1761333556038226000,9.095225830078125,0.010384701192378998,-0.015271619893610477,0.001832594396546483
1761333556056925000,9.113925048828126,0.010995565913617611,-0.015271619893610477,0.001832594396546483
1761333556075623700,9.132623779296875,0.010995565913617611,-0.014660755172371864,0.002443459117785096
1761333556094322400,9.151322509765626,0.010995565913617611,-0.01588248461484909,0.001832594396546483
1761333556113021400,9.170021484375,0.010384701192378998,-0.01588248461484909,0.002443459117785096
1761333556131720200,9.18872021484375,0.010995565913617611,-0.015271619893610477,0.001832594396546483
1761333556150419200,9.207419189453125,0.009773836471140385,-0.01588248461484909,0.001832594396546483
1761333556169118000,9.226117919921874,0.010995565913617611,-0.014660755172371864,0.002443459117785096
1761333556187816700,9.244816650390625,0.011606430634856224,-0.015271619893610477,0.002443459117785096
1761333556206515700,9.263515625,0.010995565913617611,-0.015271619893610477,0.002443459117785096
1761333556225214500,9.28221435546875,0.009773836471140385,-0.014660755172371864,0.002443459117785096
1761333556243913500,9.30091357421875,0.009773836471140385,-0.01588248461484909,0.001832594396546483
1761333556262612200,9.3196123046875,0.010995565913617611,-0.01588248461484909,0.001832594396546483
1761333556281311000,9.33831103515625,0.010995565913617611,-0.01588248461484909,0.001221729558892548
1761333556300010000,9.357010009765625,0.010384701192378998,-0.01588248461484909,0.001221729558892548
1761333556318708700,9.375708740234375,0.010995565913617611,-0.015271619893610477,0.002443459117785096
1761333556337407700,9.39440771484375,0.010995565913617611,-0.015271619893610477,0.002443459117785096
1761333556356106500,9.4131064453125,0.010384701192378998,-0.01588248461484909,0.002443459117785096
1761333556374805200,9.43180517578125,0.010384701192378998,-0.01588248461484909,0.001221729558892548
1761333556393504300,9.450504150390625,0.010384701192378998,-0.01588248461484909,0.001221729558892548
1761333556412203000,9.469203125,0.010384701192378998,-0.01588248461484909,0.001832594396546483
1761333556430902000,9.487902099609375,0.009773836471140385,-0.014660755172371864,0.002443459117785096
1761333556449600800,9.506600830078124,0.009773836471140385,-0.015271619893610477,0.001832594396546483
1761333556468299500,9.525299560546875,0.010384701192378998,-0.01588248461484909,0.002443459117785096
1761333556486998500,9.54399853515625,0.010995565913617611,-0.015271619893610477,0.002443459117785096
1761333556505697500,9.562697509765625,0.010384701192378998,-0.014660755172371864,0.001832594396546483
1761333556524396300,9.581396240234374,0.010384701192378998,-0.015271619893610477,0.002443459117785096
1761333556543095000,9.600094970703125,0.009773836471140385,-0.014660755172371864,0.001221729558892548
1761333556561794000,9.6187939453125,0.010384701192378998,-0.01588248461484909,0.002443459117785096
1761333556580492800,9.637492919921876,0.010384701192378998,-0.015271619893610477,0.002443459117785096
1761333556599191800,9.65619189453125,0.009773836471140385,-0.014660755172371864,0.001832594396546483
1761333556617890600,9.674890625,0.010384701192378998,-0.01588248461484909,0.002443459117785096
1761333556636589300,9.69358935546875,0.009773836471140385,-0.015271619893610477,0.001832594396546483
1761333556655288300,9.712288330078126,0.010995565913617611,-0.014660755172371864,0.001832594396546483
1761333556673987000,9.730987060546875,0.010384701192378998,-0.01588248461484909,0.002443459117785096
1761333556692686000,9.74968603515625,0.010995565913617611,-0.01588248461484909,0.001832594396546483
1761333556711384800,9.768384765625,0.009773836471140385,-0.01588248461484909,0.002443459117785096
1761333556730083600,9.78708349609375,0.010384701192378998,-0.014660755172371864,0.001832594396546483
1761333556748782600,9.805782470703125,0.009773836471140385,-0.014660755172371864,0.002443459117785096
1761333556767481300,9.8244814453125,0.010995565913617611,-0.014660755172371864,0.001832594396546483
1761333556786180400,9.843180419921875,0.010995565913617611,-0.015271619893610477,0.002443459117785096
1761333556804879000,9.861879150390624,0.010995565913617611,-0.014660755172371864,0.001832594396546483
1761333556823577900,9.880577880859375,0.009773836471140385,-0.01588248461484909,0.001832594396546483
1761333556842276900,9.89927685546875,0.010384701192378998,-0.015271619893610477,0.002443459117785096
1761333556860975600,9.9179755859375,0.011606430634856224,-0.015271619893610477,0.002443459117785096
1761333556879674600,9.936674560546875,0.009773836471140385,-0.015271619893610477,0.001832594396546483
1761333556898373400,9.955373291015626,0.010995565913617611,-0.015271619893610477,0.002443459117785096
1761333556917072100,9.974072021484375,0.010384701192378998,-0.014660755172371864,0.002443459117785096
1761333556935771100,9.992771240234376,0.010384701192378998,-0.014660755172371864,0.001832594396546483
1761333556954470000,10.011469970703125,0.010384701192378998,-0.01588248461484909,0.001832594396546483
1761333556973169000,10.0301689453125,0.009773836471140385,-0.01649334840476513,0.002443459117785096
1761333556991867600,10.04886767578125,0.010384701192378998,-0.01588248461484909,0.002443459117785096
1761333557010566400,10.06756640625,0.010995565913617611,-0.01588248461484909,0.001832594396546483
1761333557029265400,10.086265380859375,0.010995565913617611,-0.015271619893610477,0.001832594396546483
1761333557047964200,10.104964111328124,0.011606430634856224,-0.01588248461484909,0.001221729558892548
1761333557066663200,10.1236630859375,0.010384701192378998,-0.015271619893610477,0.001832594396546483
1761333557085362000,10.14236181640625,0.010384701192378998,-0.012217295356094837,0.004276053514331579
1761333557104060700,10.161060791015625,0.010384701192378998,-0.014049889519810677,0.000610864779446274
1761333557122759700,10.179759765625,0.010384701192378998,-0.017104214057326317,0.000610864779446274
1761333557141458400,10.19845849609375,0.009773836471140385,-0.01588248461484909,0.001832594396546483
