time,seconds_elapsed,z,y,x
1761333547016038400,0.073038330078125,-0.0021380267571657896,-0.000305432389723137,0.000305432389723137
1761333547034737200,0.091737060546875,-0.0015271619195118546,0.000305432389723137,-0.000305432389723137
1761333547053436000,0.110435791015625,-0.0015271619195118546,0.000305432389723137,-0.0009162971982732415
1761333547072135000,0.129135009765625,-0.0021380267571657896,-0.0009162971982732415,-0.000305432389723137
1761333547090833700,0.147833740234375,-0.0009162971982732415,0.000305432389723137,-0.0009162971982732415
1761333547109532400,0.166532470703125,-0.0009162971982732415,0.0009162971982732415,-0.0009162971982732415
1761333547128231400,0.1852314453125,-0.0015271619195118546,-0.000305432389723137,0.000305432389723137
1761333547146930200,0.20393017578125,-0.000305432389723137,0.000305432389723137,0.000305432389723137
1761333547165629000,0.22262890625,-0.0009162971982732415,-0.0009162971982732415,-0.000305432389723137
1761333547184327700,0.24132763671875,-0.0015271619195118546,-0.000305432389723137,-0.0009162971982732415
1761333547203026400,0.2600263671875,-0.0015271619195118546,-0.000305432389723137,-0.000305432389723137
1761333547221725400,0.278725341796875,-0.0015271619195118546,-0.0009162971982732415,-0.000305432389723137
1761333547240424200,0.297424072265625,-0.0015271619195118546,-0.000305432389723137,-0.000305432389723137
1761333547259123000,0.316123046875,-0.0021380267571657896,-0.0009162971982732415,0.000305432389723137
1761333547277822000,0.334822021484375,-0.0009162971982732415,-0.000305432389723137,0.000305432389723137
1761333547296520700,0.353520751953125,-0.0015271619195118546,-0.000305432389723137,0.000305432389723137
1761333547315219500,0.372219482421875,-0.0009162971982732415,-0.000305432389723137,0.000305432389723137
1761333547333918200,0.390918212890625,-0.0015271619195118546,-0.0009162971982732415,-0.000305432389723137
1761333547352617200,0.4096171875,-0.0009162971982732415,-0.000305432389723137,0.000305432389723137
1761333547371316000,0.42831591796875,-0.0015271619195118546,-0.000305432389723137,-0.0009162971982732415
1761333547390014700,0.4470146484375,-0.0009162971982732415,-0.000305432389723137,0.000305432389723137
1761333547408713500,0.46571337890625,-0.000305432389723137,-0.000305432389723137,0.000305432389723137
1761333547427412500,0.48441259765625,-0.0021380267571657896,0.000305432389723137,-0.0009162971982732415
1761333547446111200,0.503111328125,-0.0015271619195118546,-0.0009162971982732415,-0.0009162971982732415
1761333547464810000,0.52181005859375,-0.0015271619195118546,0.000305432389723137,0.000305432389723137
1761333547483509000,0.540509033203125,-0.0021380267571657896,-0.000305432389723137,0.000305432389723137
1761333547502207700,0.559207763671875,-0.0021380267571657896,-0.0009162971982732415,-0.000305432389723137
1761333547520906500,0.577906494140625,-0.0021380267571657896,-0.0009162971982732415,0.000305432389723137
1761333547539605200,0.596605224609375,-0.0009162971982732415,-0.000305432389723137,-0.0009162971982732415
1761333547558304000,0.615303955078125,-0.0015271619195118546,-0.000305432389723137,-0.000305432389723137
1761333547577003000,0.6340029296875,-0.0021380267571657896,-0.000305432389723137,0.000305432389723137
1761333547595701800,0.65270166015625,-0.0015271619195118546,0.000305432389723137,-0.000305432389723137
1761333547614400500,0.671400390625,-0.0009162971982732415,0.0009162971982732415,-0.000305432389723137
1761333547633099500,0.690099609375,-0.0009162971982732415,-0.0009162971982732415,0.000305432389723137
1761333547651798300,0.70879833984375,-0.0015271619195118546,-0.0009162971982732415,-0.000305432389723137
1761333547670497000,0.7274970703125,-0.0009162971982732415,-0.0009162971982732415,0.000305432389723137
1761333547689195800,0.74619580078125,-0.0015271619195118546,-0.0009162971982732415,0.000305432389723137
1761333547707894800,0.764894775390625,-0.0009162971982732415,0.000305432389723137,-0.000305432389723137
1761333547726592300,0.78359228515625,-0.0021380267571657896,0.000305432389723137,-0.000305432389723137
1761333547745291300,0.802291259765625,-0.0015271619195118546,-0.000305432389723137,0.000305432389723137
1761333547763990000,0.820989990234375,-0.0021380267571657896,0.000305432389723137,-0.000305432389723137
1761333547782688800,0.839688720703125,-0.0015271619195118546,-0.000305432389723137,0.000305432389723137
1761333547801387500,0.858387451171875,-0.0009162971982732415,-0.0009162971982732415,0.000305432389723137
1761333547820086500,0.87708642578125,-0.0015271619195118546,-0.000305432389723137,-0.000305432389723137
1761333547838785300,0.895785400390625,-0.0021380267571657896,-0.000305432389723137,0.000305432389723137
1761333547857484000,0.914484130859375,-0.0015271619195118546,0.000305432389723137,-0.0009162971982732415
1761333547876183000,0.93318310546875,-0.0009162971982732415,-0.0009162971982732415,-0.000305432389723137
1761333547894881800,0.9518818359375,-0.0009162971982732415,0.000305432389723137,-0.0009162971982732415
1761333547913580500,0.97058056640625,-0.0015271619195118546,-0.000305432389723137,0.000305432389723137
1761333547932279300,0.989279296875,-0.0021380267571657896,-0.000305432389723137,-0.000305432389723137
1761333547950978300,1.007978271484375,-0.0009162971982732415,-0.0009162971982732415,0.000305432389723137
1761333547969677000,1.026677001953125,-0.0009162971982732415,-0.0009162971982732415,0.000305432389723137
1761333547988375800,1.045375732421875,-0.0009162971982732415,-0.0009162971982732415,-0.0009162971982732415
1761333548007074800,1.06407470703125,-0.0015271619195118546,-0.000305432389723137,0.000305432389723137
1761333548025773600,1.082773681640625,-0.0015271619195118546,0.000305432389723137,0.000305432389723137
1761333548044472300,1.101472412109375,-0.0015271619195118546,0.000305432389723137,0.000305432389723137
1761333548063171000,1.120171142578125,-0.0015271619195118546,-0.000305432389723137,0.000305432389723137
1761333548081870000,1.1388701171875,-0.0021380267571657896,-0.0009162971982732415,-0.000305432389723137
1761333548100568800,1.15756884765625,-0.0009162971982732415,0.000305432389723137,-0.000305432389723137
1761333548119267600,1.176267578125,-0.0009162971982732415,-0.000305432389723137,-0.000305432389723137
1761333548137966600,1.194966552734375,-0.0009162971982732415,-0.000305432389723137,-0.0009162971982732415
1761333548156665300,1.213665283203125,-0.0009162971982732415,-0.000305432389723137,-0.000305432389723137
1761333548175364000,1.232364013671875,-0.0015271619195118546,-0.000305432389723137,0.000305432389723137
1761333548194062800,1.251062744140625,-0.0009162971982732415,-0.000305432389723137,0.000305432389723137
1761333548212761600,1.26976171875,-0.0021380267571657896,-0.0009162971982732415,-0.0009162971982732415
1761333548231460600,1.288460693359375,-0.0021380267571657896,-0.0009162971982732415,-0.0009162971982732415
1761333548250159400,1.307159423828125,-0.0009162971982732415,-0.000305432389723137,-0.000305432389723137
1761333548268858000,1.325858154296875,-0.0015271619195118546,0.0009162971982732415,0.000305432389723137
1761333548287557000,1.34455712890625,-0.0009162971982732415,-0.0009162971982732415,0.000305432389723137
1761333548306256000,1.363255859375,-0.0015271619195118546,-0.0009162971982732415,0.000305432389723137
1761333548324954600,1.38195458984375,-0.0027488914784044027,0.000305432389723137,0.000305432389723137
1761333548343653400,1.4006533203125,-0.0015271619195118546,-0.000305432389723137,0.000305432389723137
1761333548362352400,1.419352294921875,-0.0015271619195118546,-0.000305432389723137,0.000305432389723137
1761333548381051100,1.438051025390625,-0.0015271619195118546,-0.000305432389723137,0.000305432389723137
1761333548399750000,1.45675,-0.0015271619195118546,-0.0009162971982732415,-0.0009162971982732415
1761333548418449000,1.475448974609375,-0.0009162971982732415,-0.000305432389723137,0.000305432389723137
1761333548437147600,1.494147705078125,-0.0009162971982732415,0.000305432389723137,-0.0009162971982732415
1761333548455846400,1.512846435546875,-0.0015271619195118546,-0.0009162971982732415,0.000305432389723137
1761333548474545200,1.531545166015625,-0.0015271619195118546,-0.000305432389723137,-0.000305432389723137
1761333548493244200,1.550244140625,-0.0009162971982732415,-0.000305432389723137,0.000305432389723137
1761333548511943000,1.56894287109375,-0.0009162971982732415,0.000305432389723137,0.000305432389723137
1761333548530641700,1.5876416015625,-0.0009162971982732415,-0.000305432389723137,0.000305432389723137
1761333548549340700,1.606340576171875,-0.0021380267571657896,-0.0009162971982732415,0.000305432389723137
1761333548568039400,1.625039306640625,-0.0015271619195118546,-0.0009162971982732415,-0.0009162971982732415
1761333548586738200,1.64373828125,-0.0009162971982732415,-0.0009162971982732415,0.000305432389723137
1761333548605437000,1.66243701171875,-0.0009162971982732415,-0.000305432389723137,-0.000305432389723137
1761333548624136000,1.681135986328125,-0.0015271619195118546,0.000305432389723137,0.000305432389723137
1761333548642834700,1.699834716796875,-0.0015271619195118546,0.000305432389723137,-0.0009162971982732415
1761333548661533400,1.718533447265625,-0.0015271619195118546,-0.0009162971982732415,0.000305432389723137
1761333548680232400,1.737232421875,-0.0009162971982732415,-0.000305432389723137,0.000305432389723137
1761333548698931200,1.75593115234375,-0.0009162971982732415,-0.0009162971982732415,0.000305432389723137
1761333548717630000,1.7746298828125,-0.0009162971982732415,-0.0009162971982732415,-0.000305432389723137
1761333548736328700,1.79332861328125,-0.0009162971982732415,0.000305432389723137,-0.000305432389723137
1761333548755027700,1.81202783203125,-0.0015271619195118546,-0.0009162971982732415,-0.000305432389723137
1761333548773726500,1.8307265625,-0.0009162971982732415,0.000305432389723137,-0.000305432389723137
1761333548792425200,1.84942529296875,-0.0015271619195118546,0.000305432389723137,0.000305432389723137
1761333548811124200,1.868124267578125,-0.0015271619195118546,-0.0009162971982732415,0.000305432389723137
1761333548829823000,1.886822998046875,-0.0015271619195118546,-0.000305432389723137,-0.000305432389723137
1761333548848521700,1.905521728515625,-0.0015271619195118546,-0.0009162971982732415,0.000305432389723137
1761333548867220500,1.924220458984375,-0.0015271619195118546,-0.000305432389723137,-0.0009162971982732415
1761333548885919500,1.94291943359375,-0.0009162971982732415,-0.0009162971982732415,0.000305432389723137
1761333548904618200,1.9616181640625,-0.0021380267571657896,-0.0009162971982732415,-0.000305432389723137
1761333548923317000,1.98031689453125,-0.0021380267571657896,0.000305432389723137,0.000305432389723137
1761333548942015700,1.999015625,-0.0015271619195118546,-0.000305432389723137,-0.000305432389723137
1761333548960714800,2.01771484375,-0.0009162971982732415,-0.0009162971982732415,-0.0009162971982732415
1761333548979413500,2.03641357421875,-0.0009162971982732415,0.000305432389723137,0.000305432389723137
1761333548998112300,2.0551123046875,-0.0009162971982732415,0.000305432389723137,-0.0009162971982732415
1761333549016811300,2.073811279296875,-0.0009162971982732415,-0.000305432389723137,0.000305432389723137
1761333549035510000,2.092510009765625,-0.0015271619195118546,-0.0009162971982732415,0.000305432389723137
1761333549054208800,2.111208740234375,-0.0009162971982732415,-0.000305432389723137,-0.000305432389723137
1761333549072907500,2.129907470703125,-0.0009162971982732415,-0.000305432389723137,-0.000305432389723137
1761333549091606500,2.1486064453125,-0.0015271619195118546,-0.0009162971982732415,-0.000305432389723137
1761333549110305300,2.16730517578125,-0.0009162971982732415,-0.0009162971982732415,-0.000305432389723137
1761333549129004000,2.186004150390625,-0.0021380267571657896,-0.0009162971982732415,-0.000305432389723137
1761333549147703000,2.204703125,-0.0009162971982732415,0.000305432389723137,-0.000305432389723137
1761333549166401800,2.22340185546875,-0.0015271619195118546,-0.0009162971982732415,-0.000305432389723137
1761333549185100500,2.2421005859375,-0.0021380267571657896,-0.0009162971982732415,-0.000305432389723137
1761333549203799300,2.26079931640625,-0.0009162971982732415,-0.000305432389723137,0.000305432389723137
1761333549222498000,2.279498046875,-0.0015271619195118546,0.000305432389723137,0.000305432389723137
1761333549241197000,2.298197021484375,-0.0021380267571657896,0.000305432389723137,-0.0009162971982732415
1761333549259895800,2.316895751953125,-0.0015271619195118546,-0.000305432389723137,-0.000305432389723137
1761333549278594800,2.3355947265625,-0.0015271619195118546,-0.0009162971982732415,0.000305432389723137
1761333549297293600,2.35429345703125,-0.0009162971982732415,-0.000305432389723137,-0.000305432389723137
1761333549315992300,2.372992431640625,-0.0015271619195118546,-0.000305432389723137,0.000305432389723137
1761333549334691000,2.391691162109375,-0.0009162971982732415,-0.0009162971982732415,0.000305432389723137
1761333549353390000,2.41039013671875,-0.0021380267571657896,-0.000305432389723137,0.000305432389723137
1761333549372088800,2.4290888671875,-0.0021380267571657896,0.000305432389723137,0.000305432389723137
1761333549390787600,2.44778759765625,-0.0015271619195118546,0.000305432389723137,0.000305432389723137
1761333549409486600,2.466486572265625,-0.0015271619195118546,-0.0009162971982732415,-0.000305432389723137
1761333549428185300,2.485185302734375,-0.0015271619195118546,-0.000305432389723137,0.000305432389723137
1761333549446884000,2.503884033203125,-0.0009162971982732415,-0.0009162971982732415,0.000305432389723137
1761333549465582800,2.522582763671875,-0.0021380267571657896,-0.000305432389723137,0.000305432389723137
1761333549484281900,2.54128173828125,-0.0009162971982732415,-0.0009162971982732415,0.000305432389723137
1761333549502980600,2.559980712890625,-0.0015271619195118546,-0.0009162971982732415,-0.0009162971982732415
1761333549521679600,2.5786796875,-0.0021380267571657896,-0.000305432389723137,-0.0009162971982732415
1761333549540378400,2.59737841796875,-0.0015271619195118546,-0.0009162971982732415,-0.000305432389723137
1761333549559077000,2.6160771484375,-0.0009162971982732415,-0.000305432389723137,0.000305432389723137
1761333549577775900,2.63477587890625,-0.0009162971982732415,-0.000305432389723137,-0.000305432389723137
1761333549596475000,2.653474853515625,-0.0009162971982732415,-0.000305432389723137,0.000305432389723137
1761333549615173600,2.672173583984375,-0.0015271619195118546,-0.0009162971982732415,0.000305432389723137
1761333549633872400,2.690872314453125,-0.0009162971982732415,0.000305432389723137,-0.000305432389723137
1761333549652571400,2.7095712890625,-0.0015271619195118546,-0.000305432389723137,-0.000305432389723137
1761333549671270100,2.728270263671875,-0.0009162971982732415,0.000305432389723137,0.000305432389723137
1761333549689969000,2.746968994140625,-0.0015271619195118546,-0.0009162971982732415,0.000305432389723137
1761333549708667600,2.765667724609375,-0.0009162971982732415,0.000305432389723137,-0.000305432389723137
1761333549727366700,2.78436669921875,-0.0009162971982732415,-0.000305432389723137,0.000305432389723137
1761333549746065400,2.8030654296875,-0.0009162971982732415,-0.0009162971982732415,0.000305432389723137
1761333549764764200,2.82176416015625,-0.0021380267571657896,-0.0009162971982732415,0.000305432389723137
1761333549783463200,2.840463134765625,-0.0009162971982732415,0.000305432389723137,-0.000305432389723137
1761333549802162000,2.859161865234375,-0.0015271619195118546,-0.000305432389723137,0.000305432389723137
1761333549820860700,2.877860595703125,-0.0021380267571657896,0.000305432389723137,-0.000305432389723137
1761333549839559400,2.896559326171875,-0.0015271619195118546,-0.0009162971982732415,0.000305432389723137
1761333549858258400,2.915258544921875,-0.0015271619195118546,0.000305432389723137,-0.0009162971982732415
1761333549876957200,2.933957275390625,-0.0015271619195118546,-0.0009162971982732415,-0.000305432389723137
1761333549895656200,2.95265625,-0.0015271619195118546,-0.0009162971982732415,-0.000305432389723137
1761333549914355000,2.97135498046875,-0.0021380267571657896,-0.000305432389723137,-0.000305432389723137
1761333549933053700,2.9900537109375,-0.0009162971982732415,-0.000305432389723137,-0.0009162971982732415
1761333549951752400,3.00875244140625,-0.0015271619195118546,-0.000305432389723137,0.000305432389723137
1761333549970451500,3.027451416015625,-0.0015271619195118546,-0.000305432389723137,0.000305432389723137
1761333549989150200,3.046150146484375,-0.0021380267571657896,-0.0015271619195118546,-0.0009162971982732415
1761333550007849000,3.064848876953125,-0.0009162971982732415,0.000305432389723137,0.000305432389723137
1761333550026548000,3.0835478515625,-0.0009162971982732415,-0.000305432389723137,0.000305432389723137
1761333550045246700,3.102246826171875,-0.0021380267571657896,-0.000305432389723137,0.000305432389723137
1761333550063945500,3.120945556640625,-0.0015271619195118546,-0.000305432389723137,-0.0009162971982732415
1761333550082644200,3.139644287109375,-0.0009162971982732415,-0.000305432389723137,-0.0009162971982732415
1761333550101343200,3.15834326171875,-0.0009162971982732415,-0.0009162971982732415,-0.000305432389723137
1761333550120042000,3.1770419921875,-0.0015271619195118546,-0.0009162971982732415,-0.0009162971982732415
1761333550138740700,3.19574072265625,-0.0027488914784044027,-0.0009162971982732415,-0.000305432389723137
1761333550157439700,3.214439697265625,-0.0009162971982732415,0.000305432389723137,0.000305432389723137
1761333550176138500,3.233138427734375,-0.0015271619195118546,-0.0009162971982732415,-0.000305432389723137
1761333550194837200,3.251837158203125,-0.0015271619195118546,-0.0009162971982732415,0.000305432389723137
1761333550213536300,3.270536376953125,-0.0009162971982732415,-0.000305432389723137,-0.0009162971982732415
1761333550232235000,3.289235107421875,-0.0015271619195118546,-0.000305432389723137,-0.000305432389723137
1761333550250933800,3.307933837890625,-0.000305432389723137,-0.000305432389723137,-0.0009162971982732415
1761333550269632500,3.326632568359375,-0.0021380267571657896,-0.0009162971982732415,-0.000305432389723137
1761333550288331500,3.34533154296875,-0.0009162971982732415,0.000305432389723137,0.000305432389723137
1761333550307030300,3.3640302734375,-0.0015271619195118546,-0.0009162971982732415,0.000305432389723137
1761333550325729000,3.38272900390625,-0.0009162971982732415,-0.000305432389723137,0.000305432389723137
1761333550344428000,3.401427978515625,-0.000305432389723137,-0.000305432389723137,0.000305432389723137
1761333550363126800,3.420126708984375,-0.0015271619195118546,-0.0009162971982732415,-0.000305432389723137
1761333550381825500,3.438825439453125,-0.0021380267571657896,0.000305432389723137,0.000305432389723137
1761333550400524300,3.457524169921875,-0.0009162971982732415,-0.000305432389723137,0.000305432389723137
1761333550419223300,3.476223388671875,-0.0021380267571657896,0.000305432389723137,-0.0009162971982732415
1761333550437922000,3.494922119140625,-0.0015271619195118546,0.000305432389723137,0.000305432389723137
1761333550456621000,3.51362109375,-0.0009162971982732415,-0.000305432389723137,-0.0009162971982732415
1761333550475319800,3.53231982421875,-0.0015271619195118546,-0.000305432389723137,-0.000305432389723137
1761333550494018600,3.5510185546875,-0.0009162971982732415,0.000305432389723137,-0.000305432389723137
1761333550512717300,3.56971728515625,-0.0015271619195118546,-0.000305432389723137,-0.000305432389723137
1761333550531416300,3.588416259765625,-0.0009162971982732415,0.000305432389723137,0.000305432389723137
1761333550550115000,3.607114990234375,-0.0015271619195118546,-0.0009162971982732415,-0.000305432389723137
1761333550568813800,3.625813720703125,-0.0009162971982732415,-0.0015271619195118546,0.000305432389723137
1761333550587512800,3.644512939453125,-0.0009162971982732415,0.000305432389723137,-0.000305432389723137
1761333550606211600,3.663211669921875,-0.0015271619195118546,0.000305432389723137,-0.000305432389723137
1761333550624910300,3.681910400390625,-0.0009162971982732415,-0.000305432389723137,-0.000305432389723137
1761333550643609000,3.700609130859375,-0.0009162971982732415,-0.000305432389723137,-0.000305432389723137
1761333550662308000,3.71930810546875,-0.0015271619195118546,-0.000305432389723137,-0.0009162971982732415
1761333550681006800,3.7380068359375,-0.0009162971982732415,-0.0009162971982732415,-0.0009162971982732415
1761333550699705900,3.756705810546875,-0.0015271619195118546,0.000305432389723137,0.000305432389723137
1761333550718404600,3.775404541015625,-0.0015271619195118546,0.000305432389723137,0.000305432389723137
1761333550737103400,3.794103271484375,-0.0009162971982732415,-0.000305432389723137,0.000305432389723137
1761333550755802000,3.812802001953125,-0.0015271619195118546,-0.000305432389723137,-0.000305432389723137
1761333550774501000,3.831501220703125,-0.0021380267571657896,-0.000305432389723137,-0.000305432389723137
1761333550793199900,3.850199951171875,0.000305432389723137,0.000305432389723137,0.000305432389723137
1761333550811899000,3.86889892578125,-0.0021380267571657896,-0.000305432389723137,-0.000305432389723137
1761333550830597600,3.88759765625,-0.0015271619195118546,0.000305432389723137,-0.0009162971982732415
1761333550849296400,3.90629638671875,-0.0015271619195118546,-0.000305432389723137,-0.0009162971982732415
1761333550867995100,3.9249951171875,-0.0009162971982732415,-0.000305432389723137,0.000305432389723137
1761333550886694100,3.943694091796875,-0.0009162971982732415,-0.000305432389723137,-0.0009162971982732415
1761333550905393000,3.962392822265625,-0.0009162971982732415,-0.000305432389723137,-0.000305432389723137
1761333550924091600,3.981091552734375,-0.0021380267571657896,-0.0009162971982732415,0.000305432389723137
1761333550942790700,3.999790771484375,-0.0009162971982732415,-0.000305432389723137,-0.000305432389723137
1761333550961489400,4.018489501953125,-0.0009162971982732415,0.000305432389723137,-0.000305432389723137
1761333550980188200,4.037188232421875,-0.0015271619195118546,-0.000305432389723137,-0.000305432389723137
1761333550998887200,4.05588720703125,-0.0015271619195118546,-0.0009162971982732415,-0.0009162971982732415
1761333551017586000,4.0745859375,-0.0015271619195118546,-0.000305432389723137,0.000305432389723137
1761333551036284700,4.09328466796875,-0.0001527161948615685,0,-0.0001527161948615685
1761333551054983700,4.111983642578125,-0.0001527161948615685,0,0.00045814859913662076
1761333551073682400,4.130682373046875,-0.0007635809597559273,0,-0.0007635809597559273
1761333551092381200,4.149381103515625,-0.0001527161948615685,0,-0.0001527161948615685
1761333551111080000,4.168079833984375,-0.0007635809597559273,-0.000610864779446274,0.00045814859913662076
1761333551129779000,4.186779052734375,0.00045814859913662076,-0.000610864779446274,0.00045814859913662076
1761333551148477700,4.205477783203125,-0.0007635809597559273,-0.000610864779446274,-0.0007635809597559273
1761333551167176700,4.2241767578125,-0.0001527161948615685,0,0.00045814859913662076
1761333551185875500,4.24287548828125,-0.0007635809597559273,-0.000610864779446274,-0.0001527161948615685
1761333551204574200,4.26157421875,-0.0007635809597559273,0.000610864779446274,-0.0007635809597559273
1761333551223273000,4.28027294921875,-0.0001527161948615685,-0.000610864779446274,-0.0001527161948615685
1761333551241972000,4.298971923828125,0.00045814859913662076,0,-0.0001527161948615685
1761333551260670700,4.317670654296875,-0.0001527161948615685,0,-0.0001527161948615685
1761333551279369700,4.33636962890625,-0.0007635809597559273,-0.000610864779446274,-0.0001527161948615685
1761333551298068500,4.355068359375,0.00045814859913662076,0.000610864779446274,0.00045814859913662076
1761333551316767200,4.373767333984375,-0.0001527161948615685,-0.000610864779446274,-0.0001527161948615685
1761333551335466000,4.392466064453125,-0.0001527161948615685,0,0.00045814859913662076
1761333551354165000,4.4111650390625,-0.0001527161948615685,-0.000610864779446274,-0.0001527161948615685
1761333551372863700,4.42986376953125,-0.0001527161948615685,0,-0.0001527161948615685
1761333551391562800,4.448562744140625,0.00045814859913662076,0,0.00045814859913662076
1761333551410261500,4.467261474609375,-0.0007635809597559273,0.000610864779446274,-0.0001527161948615685
1761333551428960300,4.485960205078125,-0.0007635809597559273,-0.000610864779446274,0.00045814859913662076
1761333551447659000,4.504658935546875,-0.0007635809597559273,0.000610864779446274,0.00045814859913662076
1761333551466358000,4.52335791015625,0.00045814859913662076,-0.000610864779446274,-0.0001527161948615685
1761333551485056800,4.542056884765625,0.00045814859913662076,0.000610864779446274,0.00045814859913662076
1761333551503755800,4.560755859375,-0.0001527161948615685,-0.000610864779446274,0.00045814859913662076
1761333551522454500,4.57945458984375,0.00045814859913662076,0,-0.0007635809597559273
1761333551541153300,4.5981533203125,0.00045814859913662076,-0.000610864779446274,-0.0001527161948615685
1761333551559852000,4.61685205078125,-0.0007635809597559273,0,0.00045814859913662076
1761333551578551000,4.635551025390625,0.00045814859913662076,-0.000610864779446274,-0.0007635809597559273
1761333551597249800,4.654249755859375,-0.0001527161948615685,-0.000610864779446274,0.00045814859913662076
1761333551615948800,4.67294873046875,-0.0001527161948615685,0.000610864779446274,-0.0001527161948615685
1761333551634647600,4.6916474609375,0.00045814859913662076,0.000610864779446274,0.00045814859913662076
1761333551653346300,4.71034619140625,-0.0007635809597559273,-0.000610864779446274,-0.0001527161948615685
1761333551672045000,4.729045166015625,0.00045814859913662076,-0.000610864779446274,-0.0001527161948615685
1761333551690744000,4.747744140625,-0.0001527161948615685,-0.000610864779446274,-0.0001527161948615685
1761333551709442800,4.76644287109375,0.00045814859913662076,0,-0.0007635809597559273
1761333551728141800,4.785141845703125,-0.0001527161948615685,0.000610864779446274,0.00045814859913662076
1761333551746840600,4.803840576171875,0.00045814859913662076,0.000610864779446274,0.00045814859913662076
1761333551765539300,4.822539306640625,-0.0001527161948615685,0,0.00045814859913662076
1761333551784238000,4.841238037109375,-0.0007635809597559273,0,-0.0001527161948615685
1761333551802937000,4.85993701171875,-0.0007635809597559273,0,0.00045814859913662076
1761333551821635800,4.8786357421875,0.00045814859913662076,-0.000610864779446274,-0.0001527161948615685
1761333551840334800,4.8973349609375,-0.0001527161948615685,0.000610864779446274,0.00045814859913662076
1761333551859033600,4.91603369140625,0.00045814859913662076,0.000610864779446274,-0.0007635809597559273
1761333551877732400,4.934732421875,-0.0001527161948615685,-0.000610864779446274,0.00045814859913662076
1761333551896431000,4.95343115234375,0.00045814859913662076,-0.000610864779446274,0.00045814859913662076
1761333551915130000,4.972130126953125,-0.0001527161948615685,0,-0.0001527161948615685
1761333551933828900,4.990828857421875,0.00045814859913662076,-0.000610864779446274,-0.0007635809597559273
1761333551952527600,5.009527587890625,-0.0007635809597559273,0,-0.0001527161948615685
1761333551971226600,5.0282265625,0.00045814859913662076,0.000610864779446274,-0.0001527161948615685
1761333551989925400,5.04692529296875,-0.0007635809597559273,0,-0.0001527161948615685
1761333552008624400,5.065624267578125,0.00045814859913662076,0,0.00045814859913662076
1761333552027323100,5.0843232421875,0.00045814859913662076,0,0.00045814859913662076
1761333552046022000,5.10302197265625,-0.0001527161948615685,0.000610864779446274,-0.0001527161948615685
1761333552064720600,5.121720703125,0.0010690133785828948,0.000610864779446274,-0.0007635809597559273
1761333552083419600,5.140419677734375,0.00045814859913662076,0.000610864779446274,0.00045814859913662076
1761333552102118400,5.159118408203125,-0.0001527161948615685,0.000610864779446274,0.00045814859913662076
1761333552120817400,5.1778173828125,-0.0001527161948615685,-0.000610864779446274,0.00045814859913662076
1761333552139516200,5.19651611328125,0.00045814859913662076,0,0.00045814859913662076
1761333552158215000,5.21521484375,-0.0007635809597559273,0,-0.0001527161948615685
1761333552176913700,5.23391357421875,0.00045814859913662076,0.000610864779446274,0.00045814859913662076
1761333552195612700,5.25261279296875,-0.0007635809597559273,-0.000610864779446274,-0.0001527161948615685
1761333552214311400,5.2713115234375,0.00045814859913662076,0,-0.0001527161948615685
1761333552233010400,5.290010498046875,-0.0001527161948615685,-0.000610864779446274,-0.0001527161948615685
1761333552251709200,5.308709228515625,-0.0007635809597559273,0,-0.0007635809597559273
1761333552270408000,5.327407958984375,0.00045814859913662076,0,-0.0007635809597559273
1761333552289107000,5.34610693359375,-0.0007635809597559273,0,-0.0001527161948615685
1761333552307805700,5.3648056640625,-0.0007635809597559273,0,0.00045814859913662076
1761333552326504400,5.38350439453125,0.00045814859913662076,0.000610864779446274,-0.0001527161948615685
1761333552345203500,5.402203369140625,0.00045814859913662076,0.000610864779446274,0.00045814859913662076
1761333552363902200,5.420902099609375,-0.0001527161948615685,-0.000610864779446274,0.00045814859913662076
1761333552382601000,5.43960107421875,-0.0007635809597559273,0,-0.0007635809597559273
1761333552401300000,5.458300048828125,0.00045814859913662076,-0.000610864779446274,-0.0007635809597559273
1761333552419998700,5.476998779296875,-0.0001527161948615685,0,0.00045814859913662076
1761333552438697700,5.49569775390625,-0.0001527161948615685,0,0.00045814859913662076
1761333552457396500,5.514396484375,-0.0001527161948615685,0,0.00045814859913662076
1761333552476095200,5.53309521484375,0.0010690133785828948,0,-0.0001527161948615685
1761333552494794000,5.5517939453125,-0.0001527161948615685,-0.000610864779446274,0.00045814859913662076
1761333552513493000,5.570492919921875,-0.0007635809597559273,0.000610864779446274,-0.0001527161948615685
1761333552532191700,5.589191650390625,0.00045814859913662076,-0.000610864779446274,-0.0001527161948615685
1761333552550890800,5.607890869140625,-0.0001527161948615685,-0.000610864779446274,0.00045814859913662076
1761333552569589500,5.626589599609375,0.00045814859913662076,-0.000610864779446274,-0.0007635809597559273
1761333552588288300,5.645288330078125,0.00045814859913662076,0,-0.0001527161948615685
1761333552606987300,5.6639873046875,-0.0001527161948615685,0,0.00045814859913662076
1761333552625686000,5.68268603515625,-0.0007635809597559273,0,-0.0001527161948615685
1761333552644384800,5.701384765625,0.00045814859913662076,0,0.00045814859913662076
1761333552663083800,5.720083740234375,-0.0001527161948615685,0,-0.0001527161948615685
1761333552681782500,5.738782470703125,-0.0007635809597559273,-0.000610864779446274,0.00045814859913662076
1761333552700481300,5.757481201171875,-0.0001527161948615685,0.000610864779446274,0.00045814859913662076
1761333552719180300,5.77618017578125,-0.0001527161948615685,0.000610864779446274,-0.0001527161948615685
1761333552737879000,5.794879150390625,0.00045814859913662076,0,0.00045814859913662076
1761333552756578000,5.813578125,0.00045814859913662076,0,0.00045814859913662076
1761333552775276800,5.83227685546875,-0.0001527161948615685,0.000610864779446274,0.00045814859913662076
1761333552793975600,5.8509755859375,-0.0001527161948615685,-0.000610864779446274,0.00045814859913662076
1761333552812674300,5.86967431640625,0.00045814859913662076,0.000610864779446274,-0.0001527161948615685
1761333552831373300,5.888373291015625,-0.0007635809597559273,-0.000610864779446274,-0.0007635809597559273
1761333552850072000,5.907072021484375,-0.0001527161948615685,0,-0.0001527161948615685
1761333552868771000,5.92577099609375,-0.0001527161948615685,-0.000610864779446274,-0.0001527161948615685
1761333552887469800,5.9444697265625,-0.0001527161948615685,0,-0.0001527161948615685
1761333552906168600,5.96316845703125,0.00045814859913662076,-0.000610864779446274,0.00045814859913662076
1761333552924867600,5.98186767578125,-0.0001527161948615685,-0.000610864779446274,-0.0001527161948615685
1761333552943566300,6.00056640625,-0.0001527161948615685,0,0.00045814859913662076
1761333552962265000,6.01926513671875,-0.0001527161948615685,-0.000610864779446274,-0.0007635809597559273
1761333552980964000,6.037964111328125,0.00045814859913662076,-0.000610864779446274,0.00045814859913662076
1761333552999662800,6.056662841796875,-0.0001527161948615685,0,0.00045814859913662076
1761333553018361600,6.075361572265625,-0.0001527161948615685,0,-0.0001527161948615685
1761333553037060600,6.094060546875,0.00045814859913662076,0,0.00045814859913662076
1761333553055759400,6.11275927734375,-0.0001527161948615685,0,-0.0001527161948615685
1761333553074458400,6.131458251953125,-0.0007635809597559273,-0.000610864779446274,0.00045814859913662076
1761333553093157000,6.1501572265625,0.00045814859913662076,0,-0.0001527161948615685
1761333553111855900,6.16885595703125,0.00045814859913662076,0,-0.0001527161948615685
1761333553130555000,6.187554931640625,0.00045814859913662076,0,0.00045814859913662076
1761333553149253600,6.206253662109375,-0.0001527161948615685,0,0.00045814859913662076
1761333553167952400,6.224952392578125,-0.0007635809597559273,0,-0.0001527161948615685
1761333553186651400,6.2436513671875,-0.0001527161948615685,-0.000610864779446274,-0.0007635809597559273
1761333553205350100,6.26235009765625,0.00045814859913662076,0.000610864779446274,0.00045814859913662076
1761333553224049000,6.281048828125,0.00045814859913662076,0.000610864779446274,0.00045814859913662076
1761333553242748000,6.299747802734375,-0.0007635809597559273,-0.000610864779446274,-0.0001527161948615685
1761333553261446700,6.31844677734375,-0.0001527161948615685,0.000610864779446274,-0.0007635809597559273
1761333553280145700,6.337145751953125,-0.0007635809597559273,0.000610864779446274,0.00045814859913662076
1761333553298844400,6.355844482421875,0.00045814859913662076,0,0.00045814859913662076
1761333553317543200,6.374543212890625,0.00045814859913662076,0.000610864779446274,-0.0001527161948615685
1761333553336242200,6.3932421875,-0.0001527161948615685,-0.000610864779446274,-0.0001527161948615685
1761333553354941000,6.41194091796875,0.00045814859913662076,0,0.00045814859913662076
1761333553373640000,6.430639892578125,0.00045814859913662076,0.000610864779446274,0.00045814859913662076
1761333553392338700,6.449338623046875,0.00045814859913662076,-0.000610864779446274,-0.0007635809597559273
1761333553411037400,6.468037353515625,-0.0001527161948615685,0,-0.0001527161948615685
1761333553429736200,6.486736083984375,0.00045814859913662076,0.000610864779446274,-0.0007635809597559273
1761333553448435200,6.505435302734375,-0.0001527161948615685,0.000610864779446274,0.00045814859913662076
1761333553467134000,6.524134033203125,-0.0007635809597559273,0,0.00045814859913662076
1761333553485833000,6.5428330078125,-0.0001527161948615685,-0.000610864779446274,-0.0001527161948615685
1761333553504531700,6.56153173828125,-0.0001527161948615685,-0.000610864779446274,0.00045814859913662076
1761333553523230500,6.58023046875,-0.0001527161948615685,-0.000610864779446274,-0.0001527161948615685
1761333553541929500,6.598929443359375,0.0010690133785828948,0,0.00045814859913662076
1761333553560628200,6.617628173828125,0.00045814859913662076,0.000610864779446274,-0.0001527161948615685
1761333553579327200,6.6363271484375,-0.0007635809597559273,-0.000610864779446274,-0.0007635809597559273
1761333553598026000,6.65502587890625,-0.0001527161948615685,0,-0.0001527161948615685
1761333553616724700,6.673724853515625,-0.0007635809597559273,0,0.00045814859913662076
1761333553635423500,6.692423583984375,0.00045814859913662076,0,-0.0007635809597559273
1761333553654122500,6.71112255859375,0.00045814859913662076,0,0.00045814859913662076
1761333553672821200,6.7298212890625,0.00045814859913662076,-0.000610864779446274,0.00045814859913662076
1761333553691520300,6.748520263671875,-0.0001527161948615685,-0.000610864779446274,0.00045814859913662076
1761333553710219000,6.767218994140625,0.00045814859913662076,0,0.00045814859913662076
1761333553728917800,6.785917724609375,0.00045814859913662076,-0.000610864779446274,-0.0001527161948615685
1761333553747616800,6.80461669921875,-0.0013744457392022014,-0.000610864779446274,0.00045814859913662076
1761333553766315500,6.8233154296875,-0.0001527161948615685,-0.000610864779446274,-0.0007635809597559273
1761333553785014500,6.8420146484375,-0.0001527161948615685,0,-0.0001527161948615685
1761333553803713300,6.86071337890625,-0.0007635809597559273,0.000610864779446274,-0.0001527161948615685
1761333553822412000,6.879412109375,-0.0007635809597559273,-0.000610864779446274,-0.0001527161948615685
1761333553841111000,6.898111083984375,-0.0007635809597559273,-0.000610864779446274,-0.0001527161948615685
1761333553859809800,6.916809814453125,-0.0007635809597559273,0,-0.0007635809597559273
1761333553878508800,6.9355087890625,-0.0001527161948615685,0.000610864779446274,-0.0001527161948615685
1761333553897207600,6.95420751953125,-0.0001527161948615685,0,0.00045814859913662076
1761333553915906300,6.97290625,-0.0001527161948615685,0.000610864779446274,0.00045814859913662076
1761333553934605000,6.99160498046875,0.00045814859913662076,0,0.00045814859913662076
1761333553953304000,7.010303955078125,-0.0001527161948615685,-0.000610864779446274,-0.0001527161948615685
1761333553972002800,7.0290029296875,-0.0013744457392022014,0,0.00045814859913662076
1761333553990701800,7.047701904296875,-0.0001527161948615685,0,0.00045814859913662076
1761333554009400600,7.066400634765625,-0.0007635809597559273,0.000610864779446274,-0.0001527161948615685
1761333554028099300,7.085099365234375,-0.0001527161948615685,-0.000610864779446274,0.00045814859913662076
1761333554046798300,7.10379833984375,-0.0001527161948615685,0,-0.0001527161948615685
1761333554065497000,7.1224970703125,-0.0001527161948615685,-0.000610864779446274,-0.0007635809597559273
1761333554084196000,7.141196044921875,0.00045814859913662076,-0.000610864779446274,-0.0001527161948615685
1761333554102894800,7.159894775390625,-0.0001527161948615685,0,-0.0001527161948615685
1761333554121593600,7.178593505859375,-0.0001527161948615685,0,0.00045814859913662076
1761333554140292600,7.197292724609375,0.00045814859913662076,0,-0.0001527161948615685
1761333554158991400,7.215991455078125,-0.0001527161948615685,0.000610864779446274,-0.0001527161948615685
1761333554177690400,7.2346904296875,-0.0007635809597559273,-0.000610864779446274,0.00045814859913662076
1761333554196388900,7.253388916015625,-0.0007635809597559273,0,-0.0001527161948615685
1761333554215087900,7.272087890625,-0.0001527161948615685,-0.001221729558892548,-0.0007635809597559273
1761333554233787000,7.290786865234375,0.00045814859913662076,0,-0.0001527161948615685
1761333554252485600,7.309485595703125,0.00045814859913662076,0,0.00045814859913662076
1761333554271184400,7.328184326171875,-0.0001527161948615685,0,0.00045814859913662076
1761333554289883100,7.346883056640625,0.00045814859913662076,-0.000610864779446274,0.00045814859913662076
1761333554308582100,7.36558203125,-0.0007635809597559273,0.000610864779446274,0.00045814859913662076
1761333554327281000,7.384281005859375,-0.0001527161948615685,-0.000610864779446274,0.00045814859913662076
1761333554345980000,7.40297998046875,-0.0007635809597559273,0,0.00045814859913662076
1761333554364678700,7.4216787109375,0.00045814859913662076,-0.000610864779446274,-0.0007635809597559273
1761333554383377400,7.44037744140625,-0.0007635809597559273,0,0.00045814859913662076
1761333554402076400,7.459076416015625,-0.0001527161948615685,0.000610864779446274,0.00045814859913662076
1761333554420775200,7.477775146484375,0.00045814859913662076,-0.000610864779446274,0.00045814859913662076
1761333554439474200,7.49647412109375,0.0010690133785828948,0.000610864779446274,-0.0007635809597559273
1761333554458173000,7.5151728515625,-0.0001527161948615685,0.000610864779446274,-0.0001527161948615685
1761333554476871700,7.53387158203125,0.00045814859913662076,0,-0.0001527161948615685
1761333554495570700,7.55257080078125,-0.0001527161948615685,0.000610864779446274,0.00045814859913662076
1761333554514269400,7.57126953125,0.00045814859913662076,0,-0.0001527161948615685
1761333554532968400,7.589968505859375,0.00045814859913662076,0,-0.0001527161948615685
1761333554551667200,7.608667236328125,0.00045814859913662076,0,0.00045814859913662076
1761333554570366000,7.627365966796875,-0.0001527161948615685,0.000610864779446274,-0.0001527161948615685
1761333554589065000,7.64606494140625,-0.0001527161948615685,0,-0.0001527161948615685
1761333554607763700,7.664763671875,0.00045814859913662076,0,0.00045814859913662076
1761333554626462700,7.683462646484375,-0.0001527161948615685,-0.000610864779446274,-0.0007635809597559273
1761333554645161500,7.702161376953125,0.00045814859913662076,0,-0.0007635809597559273
1761333554663860200,7.720860107421875,0.00045814859913662076,0,-0.0001527161948615685
1761333554682559200,7.739559326171875,-0.0001527161948615685,0.000610864779446274,0.00045814859913662076
1761333554701258000,7.758258056640625,-0.0001527161948615685,-0.000610864779446274,0.00045814859913662076
1761333554719957000,7.77695703125,-0.0001527161948615685,-0.000610864779446274,-0.0001527161948615685
1761333554738655700,7.79565576171875,-0.0007635809597559273,0,0.00045814859913662076
1761333554757354500,7.8143544921875,0.00045814859913662076,0.000610864779446274,0.00045814859913662076
1761333554776053200,7.83305322265625,-0.0001527161948615685,-0.000610864779446274,0.00045814859913662076
1761333554794752300,7.851752197265625,0.00045814859913662076,0.000610864779446274,-0.0007635809597559273
1761333554813451000,7.870450927734375,0.00045814859913662076,0.000610864779446274,0.00045814859913662076
1761333554832150000,7.88914990234375,-0.0007635809597559273,0.000610864779446274,0.00045814859913662076
1761333554850848800,7.907848876953125,0.00045814859913662076,0,0.00045814859913662076
1761333554869547500,7.926547607421875,-0.0001527161948615685,0,-0.0007635809597559273
1761333554888246500,7.94524658203125,-0.0001527161948615685,-0.000610864779446274,-0.0007635809597559273
1761333554906945300,7.9639453125,-0.0001527161948615685,0,-0.0007635809597559273
1761333554925644300,7.982644287109375,-0.0001527161948615685,-0.000610864779446274,0.00045814859913662076
1761333554944343000,8.001343017578124,-0.0001527161948615685,0,0.00045814859913662076
1761333554963041800,8.020041748046875,-0.0001527161948615685,0,-0.0001527161948615685
1761333554981740800,8.03874072265625,-0.0001527161948615685,0,-0.0001527161948615685
1761333555000439600,8.057439453125,-0.0001527161948615685,-0.000610864779446274,0.00045814859913662076
1761333555019138600,8.076138671875,-0.0001527161948615685,0,0.00045814859913662076
1761333555037837300,8.09483740234375,-0.0007635809597559273,0.000610864779446274,0.00045814859913662076
1761333555056536000,8.1135361328125,0.00045814859913662076,0.000610864779446274,0.00045814859913662076
1761333555075235000,8.132235107421875,-0.0001527161948615685,-0.000610864779446274,0.00045814859913662076
1761333555093933800,8.150933837890625,-0.0001527161948615685,-0.000610864779446274,-0.0001527161948615685
1761333555112632800,8.1696328125,0.00045814859913662076,-0.000610864779446274,0.00045814859913662076
1761333555131331600,8.18833154296875,0.00045814859913662076,0,0.00045814859913662076
1761333555150030300,8.2070302734375,-0.0001527161948615685,-0.000610864779446274,-0.0001527161948615685
1761333555168729300,8.225729248046875,-0.0001527161948615685,-0.000610864779446274,0.00045814859913662076
1761333555187428000,8.244427978515626,-0.0001527161948615685,0.000610864779446274,0.00045814859913662076
1761333555206127000,8.263127197265625,-0.0007635809597559273,0,-0.0001527161948615685
1761333555224825900,8.281825927734374,-0.0001527161948615685,0.000610864779446274,-0.0001527161948615685
1761333555243524600,8.300524658203125,-0.0001527161948615685,0,-0.0001527161948615685
1761333555262223600,8.3192236328125,-0.0001527161948615685,-0.001221729558892548,-0.0001527161948615685
1761333555280922400,8.33792236328125,-0.0001527161948615685,0,-0.0001527161948615685
1761333555299621400,8.356621337890624,-0.0007635809597559273,-0.000610864779446274,0.00045814859913662076
1761333555318320000,8.375320068359375,-0.0001527161948615685,0,0.00045814859913662076
1761333555337019000,8.394018798828125,-0.0007635809597559273,0,0.00045814859913662076
1761333555355718000,8.4127177734375,-0.0007635809597559273,0,0.00045814859913662076
1761333555374416600,8.431416748046875,-0.0001527161948615685,0,0.00045814859913662076
1761333555393115600,8.45011572265625,0.00045814859913662076,0,-0.0001527161948615685
1761333555411814400,8.468814453125,-0.0001527161948615685,0,0.00045814859913662076
1761333555430513200,8.48751318359375,0.00045814859913662076,-0.000610864779446274,-0.0001527161948615685
1761333555449212200,8.506212158203125,-0.0001527161948615685,0,0.00045814859913662076
1761333555467911000,8.524910888671876,-0.0001527161948615685,-0.000610864779446274,-0.0007635809597559273
1761333555486610000,8.54360986328125,-0.0001527161948615685,0,0.00045814859913662076
1761333555505308700,8.56230859375,0.00045814859913662076,0.000610864779446274,-0.0001527161948615685
1761333555524007400,8.58100732421875,0.00045814859913662076,0.000610864779446274,0.00045814859913662076
1761333555542706400,8.59970654296875,0.00045814859913662076,-0.000610864779446274,-0.0001527161948615685
1761333555561405200,8.6184052734375,0.00045814859913662076,0,0.00045814859913662076
1761333555580104200,8.637104248046874,-0.0001527161948615685,-0.000610864779446274,-0.0001527161948615685
1761333555598803000,8.655802978515625,0.00045814859913662076,0,0.00045814859913662076
1761333555617501700,8.674501708984375,-0.0001527161948615685,0,0.00045814859913662076
1761333555636200700,8.69320068359375,-0.0001527161948615685,0,-0.0001527161948615685
1761333555654899500,8.7118994140625,0.00045814859913662076,0,0.00045814859913662076
1761333555673598500,8.730598388671876,0.00045814859913662076,0,0.00045814859913662076
1761333555692297200,8.749297119140625,0.00045814859913662076,-0.000610864779446274,-0.0001527161948615685
1761333555710996000,8.767995849609376,0.00045814859913662076,0,-0.0007635809597559273
1761333555729695000,8.786695068359375,-0.0001527161948615685,-0.000610864779446274,0.00045814859913662076
1761333555748393700,8.805393798828124,-0.0001527161948615685,0,0.00045814859913662076
1761333555767092700,8.8240927734375,-0.0001527161948615685,0.000610864779446274,-0.0001527161948615685
1761333555785791500,8.84279150390625,-0.0001527161948615685,-0.000610864779446274,0.00045814859913662076
1761333555804490200,8.861490234375,0.00045814859913662076,0,-0.0001527161948615685
1761333555823189200,8.880189208984374,-0.0001527161948615685,0.000610864779446274,0.00045814859913662076
1761333555841888000,8.898887939453125,0.00045814859913662076,0,0.00045814859913662076
1761333555860587000,8.9175869140625,-0.0001527161948615685,-0.000610864779446274,0.00045814859913662076
1761333555879285800,8.93628564453125,0.00045814859913662076,-0.000610864779446274,-0.0007635809597559273
1761333555897984500,8.954984619140625,-0.0001527161948615685,0,0.00045814859913662076
1761333555916683500,8.97368359375,0.00045814859913662076,0.000610864779446274,0.00045814859913662076
1761333555935382300,8.99238232421875,-0.0001527161948615685,-0.000610864779446274,0.00045814859913662076
1761333555954081300,9.011081298828126,0.00045814859913662076,0,-0.0007635809597559273
1761333555972780000,9.029780029296875,-0.0007635809597559273,0.000610864779446274,-0.0001527161948615685
1761333555991478800,9.048478759765626,-0.0007635809597559273,-0.000610864779446274,0.00045814859913662076
1761333556010177800,9.067177734375,-0.0001527161948615685,0,-0.0007635809597559273
1761333556028876500,9.08587646484375,0.00045814859913662076,-0.000610864779446274,-0.0001527161948615685
1761333556047575600,9.104575439453125,0.00045814859913662076,-0.000610864779446274,0.00045814859913662076
1761333556066274300,9.1232744140625,0.00045814859913662076,-0.000610864779446274,-0.0001527161948615685
1761333556084973000,9.14197314453125,0.00045814859913662076,0,-0.0001527161948615685
1761333556103672000,9.160672119140624,0.00045814859913662076,-0.000610864779446274,0.00045814859913662076
1761333556122370800,9.179370849609375,-0.0007635809597559273,0.000610864779446274,0.00045814859913662076
1761333556141069800,9.19806982421875,0.00045814859913662076,0,0.00045814859913662076
1761333556159768600,9.2167685546875,-0.0001527161948615685,0.000610864779446274,0.00045814859913662076
1761333556178467300,9.23546728515625,-0.0001527161948615685,0.000610864779446274,0.00045814859913662076
1761333556197166300,9.254166259765626,-0.0007635809597559273,-0.000610864779446274,0.00045814859913662076
1761333556215865000,9.272864990234375,0.00045814859913662076,0.000610864779446274,-0.0001527161948615685
1761333556234564000,9.291564208984376,0.00045814859913662076,-0.000610864779446274,-0.0001527161948615685
1761333556253262800,9.310262939453125,0.00045814859913662076,-0.000610864779446274,-0.0001527161948615685
1761333556271961600,9.328961669921876,-0.0001527161948615685,0.000610864779446274,0.00045814859913662076
1761333556290660400,9.347660400390625,0.00045814859913662076,0,0.00045814859913662076
1761333556309359400,9.366359375,0.00045814859913662076,0,-0.0001527161948615685
1761333556328058400,9.385058349609375,-0.0001527161948615685,-0.000610864779446274,-0.0001527161948615685
1761333556346757000,9.403757080078124,0.00045814859913662076,0,0.00045814859913662076
1761333556365456000,9.422455810546875,0.00045814859913662076,0,0.00045814859913662076
1761333556384155000,9.44115478515625,0.00045814859913662076,-0.000610864779446274,-0.0001527161948615685
1761333556402853600,9.459853515625,-0.0013744457392022014,-0.000610864779446274,0.00045814859913662076
1761333556421552600,9.478552734375,-0.0007635809597559273,-0.000610864779446274,-0.0001527161948615685
1761333556440251400,9.49725146484375,-0.0001527161948615685,-0.000610864779446274,-0.0001527161948615685
1761333556458950100,9.5159501953125,-0.0007635809597559273,-0.000610864779446274,0.00045814859913662076
1761333556477649200,9.534649169921876,-0.0007635809597559273,0,0.00045814859913662076
1761333556496348000,9.553347900390625,0.00045814859913662076,0.000610864779446274,0.00045814859913662076
1761333556515047000,9.572046875,0.00045814859913662076,0,0.00045814859913662076
1761333556533745700,9.59074560546875,-0.0001527161948615685,0.000610864779446274,0.00045814859913662076
1761333556552444400,9.6094443359375,0.0010690133785828948,-0.000610864779446274,0.00045814859913662076
1761333556571143400,9.628143310546875,0.00045814859913662076,0.000610864779446274,0.00045814859913662076
1761333556589842200,9.64684228515625,-0.0001527161948615685,-0.000610864779446274,-0.0001527161948615685
1761333556608541200,9.665541259765625,-0.0013744457392022014,0.000610864779446274,-0.0007635809597559273
1761333556627240000,9.684239990234374,-0.0007635809597559273,-0.000610864779446274,0.00045814859913662076
1761333556645938700,9.702938720703125,0.00045814859913662076,0.000610864779446274,0.00045814859913662076
1761333556664637700,9.7216376953125,-0.0007635809597559273,0,0.00045814859913662076
1761333556683336400,9.74033642578125,0.00045814859913662076,0.000610864779446274,-0.0007635809597559273
1761333556702035500,9.759035400390625,0.00045814859913662076,0,-0.0001527161948615685
1761333556720734200,9.777734130859375,0.00045814859913662076,0,-0.0001527161948615685
1761333556739433000,9.796432861328125,0.00045814859913662076,0.000610864779446274,-0.0007635809597559273
1761333556758132000,9.815132080078126,0.00045814859913662076,0,-0.0007635809597559273
1761333556776830700,9.833830810546875,-0.0007635809597559273,0.000610864779446274,-0.0007635809597559273
1761333556795529700,9.85252978515625,-0.0001527161948615685,-0.000610864779446274,0.00045814859913662076
1761333556814228500,9.871228515625,-0.0001527161948615685,0,-0.0001527161948615685
1761333556832927200,9.88992724609375,0.00045814859913662076,0,-0.0007635809597559273
1761333556851626200,9.908626220703125,-0.0007635809597559273,0,0.00045814859913662076
1761333556870325000,9.927324951171874,-0.0007635809597559273,-0.000610864779446274,-0.0001527161948615685
1761333556889024000,9.94602392578125,-0.0007635809597559273,0.000610864779446274,-0.0007635809597559273
1761333556907722800,9.96472265625,0.00045814859913662076,0,0.00045814859913662076
1761333556926421800,9.983421875,0.00045814859913662076,0.000610864779446274,-0.0001527161948615685
1761333556945120500,10.00212060546875,-0.0007635809597559273,0,-0.0001527161948615685
1761333556963819500,10.020819580078125,-0.0001527161948615685,-0.000610864779446274,-0.0007635809597559273
1761333556982518300,10.039518310546875,-0.0007635809597559273,0,0.00045814859913662076
1761333557001217000,10.058217041015626,0.00045814859913662076,0,-0.0007635809597559273
1761333557019916000,10.076916015625,-0.0001527161948615685,0,0.00045814859913662076
1761333557038614800,10.09561474609375,-0.0001527161948615685,0.000610864779446274,-0.0001527161948615685
1761333557057313800,10.114313720703125,-0.0001527161948615685,0.000610864779446274,-0.0007635809597559273
1761333557076012500,10.133012451171876,-0.0001527161948615685,0.001221729558892548,0.00045814859913662076
1761333557094711300,10.151711181640625,-0.0001527161948615685,-0.000610864779446274,0.00045814859913662076
1761333557113410300,10.170410400390624,-0.0007635809597559273,-0.001221729558892548,-0.0019853105768561363
1761333557132109000,10.189109130859375,0.0010690133785828948,0.000610864779446274,-0.0001527161948615685
1761333557150808000,10.20780810546875,0.00045814859913662076,-0.000610864779446274,0.00045814859913662076
