time,seconds_elapsed,z,y,x
1761333866916972800,0.056972900390625,0,0,0
1761333866935673000,0.075673095703125,-0.03942584991455078,-0.04735743999481201,0.01823415607213974
1761333866954373000,0.094373046875,0.013249397277832031,-0.0799022912979126,0.05322529375553131
1761333866973073200,0.1130732421875,0.17572879791259766,-0.038411736488342285,0.11131903529167175
1761333866991773400,0.1317734375,0.5020751953125,-0.00954747200012207,0.33771124482154846
1761333867010473500,0.150473388671875,0.48482704162597656,0.12471175193786621,0.4981531500816345
1761333867029173800,0.169173828125,0.40036964416503906,0.4144054651260376,0.6097705364227295
1761333867047873800,0.187873779296875,0.5248594284057617,0.5028324127197266,0.752251148223877
1761333867066574000,0.206573974609375,0.5258798599243164,0.5703438520431519,0.6598183512687683
1761333867085274000,0.225274169921875,0.5809640884399414,0.49344778060913086,0.5690288543701172
1761333867103974100,0.24397412109375,0.6449918746948242,0.3265780210494995,0.4040067195892334
1761333867122674400,0.26267431640625,0.2351827621459961,0.2994546890258789,0.23615539073944092
1761333867141374500,0.28137451171875,-0.26804161071777344,0.2834054231643677,-0.05006808042526245
1761333867160074500,0.300074462890625,-0.21769428253173828,0.2516794204711914,-0.04706084728240967
1761333867178774800,0.31877490234375,0.0708761215209961,0.15629971027374268,0.10995858907699585
1761333867197474800,0.337474853515625,0.20293617248535156,0.1970529556274414,0.0667683482170105
1761333867216175000,0.356175048828125,0.3717508316040039,0.1410694122314453,0.08666372299194336
1761333867234875100,0.374875244140625,0.3052082061767578,0.17546570301055908,0.06670951843261719
1761333867253575400,0.393575439453125,0.06639862060546875,0.2806880474090576,0.0066075921058654785
1761333867272275500,0.412275390625,0.04731178283691406,0.2548903226852417,0.0716429054737091
1761333867290975500,0.4309755859375,0.03886985778808594,0.2654836177825928,0.14552730321884155
1761333867309675800,0.44967578125,0.0704641342163086,0.3170360326766968,0.1514887809753418
1761333867328375800,0.468375732421875,0.18200016021728516,0.2378988265991211,0.20877677202224731
1761333867347075800,0.487075927734375,0.18597412109375,0.22409701347351074,0.16885343194007874
1761333867365776100,0.505776123046875,0.24882030487060547,0.20585095882415771,0.13086271286010742
1761333867384476200,0.52447607421875,0.4639148712158203,0.07258951663970947,0.18719860911369324
1761333867403176400,0.543176513671875,0.7291116714477539,0.19395899772644043,0.04679453372955322
1761333867421876500,0.56187646484375,0.6455507278442383,0.07524347305297852,-0.006925627589225769
1761333867440576800,0.58057666015625,0.4255552291870117,0.08578288555145264,-0.0731750950217247
1761333867459276800,0.59927685546875,0.09001445770263672,0.10530543327331543,-0.10227186977863312
1761333867477976800,0.617976806640625,-0.2295055389404297,0.13697516918182373,-0.20503273606300354
1761333867496677000,0.636677001953125,-0.2962503433227539,0.1559131145477295,-0.2980283200740814
1761333867515377200,0.655377197265625,-0.0644378662109375,0.08343183994293213,-0.34976157546043396
1761333867534077400,0.674077392578125,0.08670330047607422,-0.03435826301574707,-0.2781465947628021
1761333867552777500,0.692777587890625,0.15887069702148438,-0.028148770332336426,-0.07291547954082489
1761333867571477500,0.7114775390625,0.1330432891845703,-0.02067577838897705,-0.006605222821235657
1761333867590177800,0.730177734375,0.14080238342285156,0.004694819450378418,-0.11100643873214722
1761333867608877800,0.7488779296875,0.1355457305908203,-0.007598400115966797,-0.10955384373664856
1761333867627578000,0.767578125,0.20616722106933594,-0.07998573780059814,-0.14081208407878876
1761333867646278100,0.786278076171875,0.3623781204223633,-0.13689982891082764,-0.16026237607002258
1761333867664978200,0.804978271484375,0.3685636520385742,-0.028974056243896484,-0.21960020065307617
1761333867683678500,0.823678466796875,0.3873567581176758,-0.08458614349365234,-0.271440327167511
1761333867702378500,0.84237841796875,0.5440511703491211,-0.10521340370178223,-0.17585068941116333
1761333867721078800,0.861078857421875,0.5970945358276367,-0.014704346656799316,0.02399080991744995
1761333867739778800,0.87977880859375,0.35796356201171875,0.08131933212280273,0.06438574194908142
1761333867758479000,0.89847900390625,-0.03564643859863281,0.1322648525238037,-0.007930368185043335
1761333867777179100,0.91717919921875,-0.29366493225097656,0.16275250911712646,-0.1597503125667572
1761333867795879200,0.935879150390625,-0.22228622436523438,0.09661781787872314,-0.16293084621429443
1761333867814579500,0.954579345703125,-0.02339649200439453,-0.01929795742034912,-0.011712253093719482
1761333867833279500,0.973279541015625,-0.0775594711303711,0.06403028964996338,-0.10693114995956421
1761333867851979500,0.9919794921875,0.030480384826660156,-0.03519558906555176,-0.07831162214279175
1761333867870679800,1.0106796875,-0.11594581604003906,-0.10494208335876465,-0.0624203085899353
1761333867889379800,1.0293798828125,-0.2903413772583008,-0.14495980739593506,0.015079140663146973
1761333867908080000,1.048080078125,-0.48670005798339844,-0.07038700580596924,-0.10648328065872192
1761333867926780200,1.0667802734375,-0.5705070495605469,-0.007643342018127441,-0.1253293752670288
1761333867945480400,1.08548046875,-0.6573581695556641,0.03505897521972656,-0.03542858362197876
1761333867964180500,1.104180419921875,-0.5954456329345703,0.02100193500518799,-0.01851356029510498
1761333867982880500,1.122880615234375,-0.07770633697509766,0.11559927463531494,0.13615506887435913
1761333868001580800,1.141580810546875,0.6020040512084961,0.20318889617919922,0.31773731112480164
1761333868020280800,1.16028076171875,1.2196788787841797,0.16251444816589355,0.41626226902008057
1761333868038980900,1.17898095703125,1.6284761428833008,0.015044927597045898,0.39325150847435
1761333868057681200,1.19768115234375,1.6193580627441406,-0.03893768787384033,0.1628427803516388
1761333868076381200,1.216381103515625,1.0550975799560547,0.030892491340637207,-0.09388294816017151
1761333868095081500,1.23508154296875,0.29644775390625,0.09737265110015869,-0.30532583594322205
1761333868113781500,1.253781494140625,-0.1214132308959961,0.06969213485717773,-0.34834638237953186
1761333868132481800,1.272481689453125,-0.2894582748413086,0.11741483211517334,-0.1738506257534027
1761333868151181800,1.291181884765625,-0.42461681365966797,0.18216168880462646,0.06870877742767334
1761333868169881900,1.3098818359375,-0.4777717590332031,0.20559155941009521,0.302716463804245
1761333868188582100,1.32858203125,-0.5170717239379883,0.21988976001739502,0.21070367097854614
1761333868207282200,1.3472822265625,-0.4153871536254883,0.27404463291168213,0.006451070308685303
1761333868225982200,1.365982177734375,-0.16980648040771484,0.2665126323699951,-0.040677785873413086
1761333868244682500,1.3846826171875,0.008190155029296875,0.22096943855285645,-0.019327312707901
1761333868263382500,1.403382568359375,0.015604019165039062,0.2729250192642212,0.011883646249771118
1761333868282082800,1.422082763671875,-0.1428384780883789,0.2819780111312866,-0.021662399172782898
1761333868300782800,1.440782958984375,-0.06586837768554688,0.2996084690093994,-0.3622899055480957
1761333868319483100,1.459483154296875,0.3089752197265625,0.15208888053894043,-0.40487217903137207
1761333868338183200,1.47818310546875,0.481475830078125,0.11556792259216309,-0.2504969537258148
1761333868356883200,1.49688330078125,0.4353809356689453,0.20225071907043457,-0.1633683443069458
1761333868375583500,1.51558349609375,0.4009847640991211,0.18649506568908691,-0.11320464313030243
1761333868394283500,1.534283447265625,0.4144611358642578,0.11467611789703369,0.056477077305316925
1761333868412983600,1.552983642578125,0.2406015396118164,-0.006286501884460449,0.4340559244155884
1761333868431683800,1.571683837890625,-0.21921539306640625,-0.11064755916595459,0.6276578307151794
1761333868450384000,1.5903837890625,-0.5777864456176758,-0.24335861206054688,0.5344187021255493
1761333868469084200,1.609084228515625,-0.7224950790405273,-0.39394497871398926,0.5281704068183899
1761333868487784200,1.6277841796875,-0.6584634780883789,-0.43586719036102295,0.510116696357727
1761333868506484500,1.646484375,-0.21395015716552734,-0.4126652479171753,0.64029860496521
1761333868525184500,1.6651845703125,0.3547811508178711,-0.41875267028808594,0.5743681192398071
1761333868543884800,1.683884765625,0.6605558395385742,-0.3034931421279907,0.42652949690818787
1761333868562584800,1.702584716796875,0.6635723114013672,-0.1937335729598999,0.37764132022857666
1761333868581284900,1.721284912109375,0.1822528839111328,-0.0685584545135498,0.23974202573299408
1761333868599985000,1.73998486328125,-0.3268156051635742,-0.11185884475708008,0.07365801930427551
1761333868618685200,1.758685302734375,-0.7985973358154297,-0.2546570301055908,0.03340601921081543
1761333868637385200,1.77738525390625,-1.0181398391723633,-0.2944716215133667,-0.15467527508735657
1761333868656085500,1.79608544921875,-1.1158437728881836,-0.3997488021850586,-0.21409299969673157
1761333868674785500,1.81478564453125,-1.0924720764160156,-0.39996814727783203,-0.3399902880191803
1761333868693485800,1.83348583984375,-0.902277946472168,-0.39900803565979004,-0.2682560980319977
1761333868712185900,1.852185791015625,-0.6165189743041992,-0.3356820344924927,0.005116790533065796
1761333868730886100,1.87088623046875,0.21343517303466797,-0.01686716079711914,0.33361488580703735
1761333868749586200,1.889586181640625,1.2705612182617188,0.3156397342681885,0.5240910053253174
1761333868768286200,1.9082861328125,2.0154008865356445,0.5183918476104736,0.5120111703872681
1761333868786986500,1.926986572265625,1.8337278366088867,0.7757914066314697,0.1100822389125824
1761333868805686500,1.9456865234375,0.9562978744506836,0.9158838987350464,-0.3674257695674896
1761333868824386800,1.96438671875,-0.14702701568603516,1.0924097299575806,-0.5077129602432251
1761333868843086800,1.9830869140625,-0.9772911071777344,1.045069694519043,-0.3362966775894165
1761333868861787000,2.001786865234375,-1.3685569763183594,0.8557157516479492,0.004091590642929077
1761333868880487200,2.020487060546875,-1.3733625411987305,0.5445938110351562,0.05009987950325012
1761333868899187200,2.039187255859375,-1.048384666442871,0.1453859806060791,-0.1028907299041748
1761333868917887500,2.057887451171875,-0.39669227600097656,-0.20031118392944336,-0.33118999004364014
1761333868936587500,2.07658740234375,0.42273426055908203,-0.4467414617538452,-0.41931992769241333
1761333868955287600,2.09528759765625,1.2577762603759766,-0.6624003648757935,-0.34338968992233276
1761333868973987800,2.11398779296875,1.7218341827392578,-0.8184754848480225,-0.3399772047996521
1761333868992687900,2.13268798828125,1.3133764266967773,-0.8294771909713745,-0.492191880941391
1761333869011388200,2.15138818359375,0.39714527130126953,-0.7997605800628662,-0.6067038774490356
1761333869030088200,2.170088134765625,-0.36890602111816406,-0.6577935218811035,-0.5859200358390808
1761333869048788500,2.18878857421875,-0.624725341796875,-0.5562293529510498,-0.2614191770553589
1761333869067488500,2.207488525390625,-0.6656608581542969,-0.42111754417419434,0.217124804854393
1761333869086188500,2.2261884765625,-0.7630233764648438,-0.23006808757781982,0.604407787322998
1761333869104888800,2.244888916015625,-0.9060745239257812,-0.04599475860595703,0.8099894523620605
1761333869123588900,2.2635888671875,-0.7545242309570312,0.20688199996948242,0.8403499126434326
1761333869142289200,2.2822890625,-0.3690156936645508,0.30000853538513184,0.7965552806854248
1761333869160989200,2.3009892578125,0.00020885467529296875,0.25528430938720703,0.6191470623016357
1761333869179689200,2.319689208984375,0.1891641616821289,0.21880841255187988,0.3704916834831238
1761333869198389500,2.338389404296875,0.1936321258544922,0.19868719577789307,0.11071254312992096
1761333869217089500,2.357089599609375,-0.09758377075195312,0.21277844905853271,-0.22727231681346893
1761333869235789800,2.375789794921875,-0.3224306106567383,0.21784842014312744,-0.3492877781391144
1761333869254489900,2.39448974609375,-0.31569957733154297,0.21876025199890137,-0.28528469800949097
1761333869273190100,2.413190185546875,-0.05946636199951172,0.15874147415161133,-0.14061576128005981
1761333869291890200,2.43189013671875,0.04518699645996094,0.18330907821655273,-0.06220903620123863
1761333869310590500,2.450590576171875,0.03239250183105469,0.23264169692993164,-0.10811900347471237
1761333869329290500,2.46929052734375,0.04978179931640625,0.3077026605606079,-0.23259933292865753
1761333869347990500,2.487990478515625,0.2954692840576172,0.3156778812408447,-0.4000384211540222
1761333869366690800,2.50669091796875,0.6606082916259766,0.1275266408920288,-0.2860507369041443
1761333869385390800,2.525390869140625,0.6512603759765625,-0.034767985343933105,0.03870172053575516
1761333869404091000,2.5440908203125,0.07362079620361328,-0.022183895111083984,0.18375539779663086
1761333869422791200,2.562791259765625,-0.3034524917602539,0.13468563556671143,-0.00860227644443512
1761333869441491200,2.5814912109375,-0.14308643341064453,0.11952269077301025,-0.17058220505714417
1761333869460191500,2.60019140625,0.2102193832397461,-0.11490750312805176,-0.049024797976017
1761333869478891500,2.6188916015625,0.29343509674072266,-0.26002955436706543,0.12212201207876205
1761333869497591800,2.637591796875,0.26165199279785156,-0.19497692584991455,0.304950475692749
1761333869516291800,2.656291748046875,0.09889888763427734,-0.14503610134124756,0.302794486284256
1761333869534992100,2.6749921875,-0.1074533462524414,-0.1337604522705078,0.20343035459518433
1761333869553692200,2.693692138671875,-0.2549400329589844,-0.15439629554748535,0.2806389331817627
1761333869572392200,2.71239208984375,-0.29685401916503906,-0.03255641460418701,0.33477699756622314
1761333869591092500,2.731092529296875,-0.22022724151611328,0.13205623626708984,0.2799227237701416
1761333869609792500,2.74979248046875,-0.057326316833496094,0.06749546527862549,0.37616294622421265
1761333869628492500,2.768492431640625,-0.0683584213256836,0.06399261951446533,0.29436779022216797
1761333869647192800,2.78719287109375,0.0067691802978515625,0.17477285861968994,-0.056181471794843674
1761333869665892900,2.805892822265625,0.20967674255371094,0.27845096588134766,-0.12661835551261902
1761333869684593200,2.82459326171875,0.42989444732666016,0.19926393032073975,-0.17684157192707062
1761333869703293200,2.843293212890625,0.47001171112060547,0.04597306251525879,-0.18542051315307617
1761333869721993500,2.861993408203125,0.17014598846435547,0.07039272785186768,-0.3697400689125061
1761333869740693500,2.880693603515625,0.0977020263671875,0.10755908489227295,-0.5680515766143799
1761333869759393800,2.899393798828125,0.33106040954589844,0.029956579208374023,-0.49373358488082886
1761333869778093800,2.91809375,0.4066638946533203,0.007756710052490234,-0.3291053771972656
1761333869796793900,2.9367939453125,0.19996356964111328,-0.002848386764526367,-0.2835863530635834
1761333869815494100,2.955494140625,-0.026868820190429688,0.024007797241210938,-0.2579421401023865
1761333869834194200,2.974194091796875,-0.1666707992553711,0.042641401290893555,-0.3252204656600952
1761333869852894200,2.992894287109375,-0.2635154724121094,-0.02838897705078125,-0.3158808648586273
1761333869871594500,3.011594482421875,-0.33280181884765625,-0.03223228454589844,-0.34433653950691223
1761333869890294500,3.03029443359375,-0.3347339630126953,-0.0436556339263916,-0.3186389207839966
1761333869908994800,3.048994873046875,-0.2643003463745117,-0.17000317573547363,-0.16237489879131317
1761333869927694800,3.06769482421875,-0.26937007904052734,-0.1747431755065918,-0.29415804147720337
1761333869946395100,3.08639501953125,-0.20310211181640625,-0.2424614429473877,-0.3695821762084961
1761333869965095200,3.10509521484375,0.06403446197509766,-0.3003314733505249,-0.27705806493759155
1761333869983795500,3.12379541015625,0.14557647705078125,-0.2080848217010498,-0.14515289664268494
1761333870002495500,3.14249560546875,0.09675121307373047,-0.05804705619812012,-0.04387544095516205
1761333870021195500,3.161195556640625,0.10172748565673828,0.06859683990478516,0.014854580163955688
1761333870039895800,3.179895751953125,0.07196044921875,0.2032310962677002,-0.01581951230764389
1761333870058595800,3.198595947265625,0.06660747528076172,0.2895545959472656,0.007125012576580048
1761333870077296000,3.217296142578125,0.12612438201904297,0.3226339817047119,0.14777281880378723
1761333870095996200,3.23599609375,0.1775379180908203,0.3075385093688965,0.1447543054819107
1761333870114696200,3.2546962890625,0.0737314224243164,0.2081894874572754,0.08006081730127335
1761333870133396500,3.273396484375,-0.07996940612792969,0.12160038948059082,-0.012764453887939453
1761333870152096500,3.292096435546875,-0.13303089141845703,0.10361385345458984,-0.022724304348230362
1761333870170796800,3.310796875,-0.08066844940185547,0.004964113235473633,0.09866239130496979
1761333870189496800,3.329496826171875,-0.07256412506103516,-0.08199405670166016,0.08127669990062714
1761333870208197000,3.348197021484375,-0.13927650451660156,-0.049774885177612305,-0.021505512297153473
1761333870226897200,3.366897216796875,-0.2507057189941406,0.05300092697143555,-0.058165065944194794
1761333870245597400,3.385597412109375,-0.28558921813964844,0.06975865364074707,-0.01696350798010826
1761333870264297500,3.40429736328125,-0.1129007339477539,0.0016791820526123047,-0.06381735950708389
1761333870282997500,3.42299755859375,0.10706043243408203,-0.1672520637512207,-0.029615405946969986
1761333870301697500,3.441697509765625,0.2043895721435547,-0.07176780700683594,0.018121466040611267
1761333870320397800,3.460397705078125,0.08502578735351562,0.14349961280822754,0.023053960874676704
1761333870339097900,3.479097900390625,0.08459663391113281,0.16887283325195312,0.15169915556907654
1761333870357798100,3.497798095703125,0.0467376708984375,0.09114909172058105,0.24646103382110596
1761333870376498200,3.516498291015625,-0.060029029846191406,-0.07155847549438477,0.08961912989616394
1761333870395198500,3.535198486328125,-0.18030643463134766,-0.09958076477050781,0.10784578323364258
1761333870413898500,3.5538984375,-0.07593059539794922,-0.08640027046203613,0.18446823954582214
1761333870432598800,3.572598876953125,0.11566352844238281,-0.00787973403930664,0.1949675977230072
1761333870451298800,3.591298828125,0.30187225341796875,0.08614492416381836,0.2922542691230774
1761333870469999000,3.6099990234375,0.26187610626220703,0.17455029487609863,0.3515520989894867
1761333870488699100,3.62869921875,0.07262706756591797,0.18332433700561523,0.2881888747215271
1761333870507399200,3.647399169921875,-0.0756235122680664,0.11162948608398438,0.24824197590351105
1761333870526099500,3.666099365234375,-0.025541305541992188,0.016066551208496094,0.16810642182826996
1761333870544799500,3.684799560546875,-0.056980133056640625,-0.0977928638458252,0.17613005638122559
1761333870563499800,3.703499755859375,-0.12700748443603516,-0.10406970977783203,0.06550318002700806
1761333870582199800,3.72219970703125,-0.09464740753173828,-0.08730053901672363,0.02210044115781784
1761333870600899800,3.74089990234375,-0.011926651000976562,-0.06759905815124512,0.07820799946784973
1761333870619600100,3.75960009765625,0.10082054138183594,-0.05156588554382324,0.14546345174312592
1761333870638300200,3.778300048828125,0.040215492248535156,0.01889944076538086,0.18143507838249207
1761333870657000400,3.79700048828125,-0.11384391784667969,0.10529565811157227,0.14633499085903168
1761333870675701000,3.815700927734375,0.021714210510253906,0.1008143424987793,0.1949983686208725
1761333870694400800,3.83440087890625,0.18709182739257812,0.09573030471801758,0.20993225276470184
1761333870713100800,3.853100830078125,0.08215713500976562,0.09060025215148926,0.15655362606048584
1761333870731801000,3.871801025390625,-0.13053131103515625,0.1181952953338623,0.06531663239002228
1761333870750501000,3.890501220703125,-0.18972301483154297,0.10359740257263184,0.050421759486198425
1761333870769201200,3.909201171875,0.05988502502441406,0.04461240768432617,0.09723970293998718
1761333870787901400,3.9279013671875,0.16860008239746094,-0.0575251579284668,0.1444200724363327
1761333870806601500,3.9466015625,-0.03563690185546875,-0.08374738693237305,0.08620180189609528
1761333870825301800,3.9653017578125,-0.2539997100830078,-0.07789158821105957,0.012331068515777588
1761333870844001800,3.984001708984375,-0.28690338134765625,-0.11084532737731934,-0.07592768222093582
1761333870862702000,4.0027021484375,-0.14155960083007812,-0.1372683048248291,-0.0799887478351593
1761333870881402000,4.021402099609375,0.16811656951904297,-0.2026500701904297,-0.07212205231189728
1761333870900102100,4.04010205078125,0.29277515411376953,-0.21391510963439941,-0.11541285365819931
1761333870918802400,4.058802490234375,0.15258121490478516,-0.06358075141906738,-0.23057985305786133
1761333870937502500,4.07750244140625,-0.0965127944946289,0.07229328155517578,-0.2625420093536377
1761333870956202800,4.09620263671875,-0.15070724487304688,0.09614729881286621,-0.13108104467391968
1761333870974902800,4.11490283203125,0.11451148986816406,0.07969307899475098,-0.0312005877494812
1761333870993602800,4.133602783203125,0.1945943832397461,0.11008620262145996,0.006112530827522278
1761333871012303000,4.15230322265625,0.015035629272460938,0.1447746753692627,-0.029954925179481506
1761333871031003100,4.171003173828125,-0.2261056900024414,0.04183769226074219,-0.06207272410392761
1761333871049703400,4.189703369140625,-0.31667041778564453,-0.00012040138244628906,-0.12724240124225616
1761333871068403500,4.208403564453125,-0.1935567855834961,-0.0750417709350586,-0.13388371467590332
1761333871087103700,4.227103759765625,0.14690303802490234,-0.11738038063049316,-0.0778166726231575
1761333871105803800,4.2458037109375,0.29952526092529297,-0.16100263595581055,-0.012897327542304993
1761333871124504000,4.264504150390625,0.308319091796875,-0.09543275833129883,0.011352330446243286
1761333871143204000,4.2832041015625,0.31068897247314453,0.019956588745117188,0.09833629429340363
1761333871161904400,4.301904296875,0.24149608612060547,0.0953056812286377,0.017785832285881042
1761333871180604400,4.3206044921875,0.17785072326660156,0.11343574523925781,0.035255685448646545
1761333871199304700,4.3393046875,0.18710899353027344,0.0005593299865722656,-0.05308207869529724
1761333871218004700,4.358004638671875,0.0030994415283203125,-0.1194922924041748,-0.2815173268318176
1761333871236704800,4.376704833984375,-0.23073768615722656,-0.16612839698791504,-0.27025648951530457
1761333871255405000,4.395405029296875,-0.3365592956542969,-0.21470236778259277,-0.1885836273431778
1761333871274105000,4.41410498046875,-0.3261861801147461,-0.2200303077697754,-0.1655448079109192
1761333871292805400,4.432805419921875,-0.2571420669555664,-0.24024534225463867,-0.18443411588668823
1761333871311505400,4.45150537109375,-0.13050556182861328,-0.20678472518920898,-0.1517791599035263
1761333871330205400,4.470205322265625,0.04073810577392578,-0.08959150314331055,-0.08779332041740417
1761333871348905700,4.48890576171875,0.10606765747070312,0.04885554313659668,0.005895644426345825
1761333871367605800,4.507605712890625,0.12293243408203125,0.11781597137451172,0.018701910972595215
1761333871386306000,4.52630615234375,0.24913406372070312,0.08696269989013672,0.022178620100021362
1761333871405006000,4.545006103515625,0.2858314514160156,0.08092141151428223,0.03500381112098694
1761333871423706400,4.563706298828125,0.04957294464111328,0.09934449195861816,0.037143856287002563
1761333871442406400,4.582406494140625,-0.15069293975830078,0.04010748863220215,0.013438493013381958
1761333871461106700,4.601106689453125,-0.11435890197753906,-0.008215904235839844,0.012735724449157715
1761333871479806700,4.619806640625,-0.03807830810546875,-0.05286431312561035,0.01583583652973175
1761333871498507000,4.638507080078125,-0.07119083404541016,-0.04002499580383301,-0.03194765746593475
1761333871517207000,4.65720703125,-0.09865474700927734,-0.025537967681884766,0.010973453521728516
1761333871535907300,4.6759072265625,-0.05325031280517578,0.02055191993713379,-0.08446282893419266
1761333871554607400,4.694607421875,0.06499481201171875,0.0027053356170654297,-0.08460557460784912
1761333871573307600,4.7133076171875,0.17266368865966797,0.017722606658935547,0.03477384150028229
1761333871592007700,4.732007568359375,0.2925739288330078,-0.0025534629821777344,0.19015838205814362
1761333871610707700,4.750707763671875,0.18741321563720703,0.04062914848327637,0.1734703779220581
1761333871629408000,4.769407958984375,-0.1399688720703125,0.0844576358795166,0.08446590602397919
1761333871648108000,4.78810791015625,-0.34081459045410156,0.11249971389770508,-0.012798711657524109
1761333871666808300,4.806808349609375,-0.19818878173828125,0.07339119911193848,-0.03244344890117645
1761333871685508400,4.82550830078125,0.148468017578125,-0.035347700119018555,0.09321218729019165
1761333871704208400,4.84420849609375,0.3702507019042969,-0.04836130142211914,0.1532469093799591
1761333871722908700,4.86290869140625,0.22519683837890625,-0.029625415802001953,0.0988725870847702
1761333871741608700,4.881608642578125,-0.1540050506591797,0.02127552032470703,0.04420812427997589
1761333871760309000,4.90030908203125,-0.291107177734375,0.024071216583251953,0.019366353750228882
1761333871779009000,4.919009033203125,-0.15471935272216797,-0.018117904663085938,-0.05046631395816803
1761333871797709300,4.937709228515625,0.0089874267578125,-0.06963515281677246,0.0025231093168258667
1761333871816409300,4.956409423828125,0.06714820861816406,-0.0982213020324707,-0.009388983249664307
1761333871835109400,4.975109375,-0.023193359375,-0.07771873474121094,-0.04698151350021362
1761333871853809700,4.9938095703125,-0.0847177505493164,-0.04293632507324219,-0.05746570974588394
1761333871872509700,5.012509765625,-0.05304527282714844,-0.03951096534729004,-0.009697407484054565
1761333871891210000,5.0312099609375,-0.08344173431396484,-0.03312516212463379,0.09686097502708435
1761333871909910000,5.049909912109375,-0.1295909881591797,0.012907028198242188,0.10972613096237183
1761333871928610300,5.0686103515625,-0.1328907012939453,0.06699419021606445,0.06764340400695801
1761333871947310300,5.087310302734375,-0.038453102111816406,0.04913020133972168,0.1073855459690094
1761333871966010600,5.1060107421875,-0.015001296997070312,0.044361114501953125,0.06301678717136383
1761333871984710700,5.124710693359375,-0.010779380798339844,0.043010711669921875,0.054692044854164124
1761333872003411000,5.143410888671875,-0.025421142578125,0.02503371238708496,-0.03350859880447388
1761333872022111000,5.162111083984375,-0.05634021759033203,0.023325204849243164,-0.10450214147567749
1761333872040811300,5.180811279296875,0.030257225036621094,-0.002048015594482422,-0.091727614402771
1761333872059511300,5.19951123046875,0.10702991485595703,-0.0300290584564209,-0.04960458725690842
1761333872078211600,5.218211669921875,0.15352439880371094,-0.005845546722412109,-0.0967569351196289
1761333872096911600,5.23691162109375,0.18067359924316406,0.009650945663452148,-0.07631948590278625
1761333872115611600,5.255611572265625,0.1542491912841797,0.060561418533325195,-0.027627304196357727
1761333872134312000,5.27431201171875,0.010257720947265625,0.06598353385925293,-0.023165598511695862
1761333872153012200,5.29301220703125,-0.19966888427734375,0.06412267684936523,-0.01977880299091339
1761333872171712300,5.311712158203125,-0.25433921813964844,0.026011228561401367,-0.01592269539833069
1761333872190412300,5.330412353515625,-0.04228019714355469,-0.02807331085205078,-0.011373922228813171
1761333872209112600,5.349112548828125,0.12558746337890625,-0.07993388175964355,0.006640985608100891
1761333872227812600,5.3678125,0.06964397430419922,-0.0320439338684082,-0.006164252758026123
1761333872246513000,5.386512939453125,-0.11730384826660156,-0.006553173065185547,-0.06207245588302612
1761333872265213000,5.405212890625,-0.18446826934814453,0.03014659881591797,-0.12055560946464539
1761333872283913000,5.423912841796875,-0.021455764770507812,0.025803565979003906,-0.07715938985347748
1761333872302613200,5.44261328125,0.11779403686523438,0.07634401321411133,0.0018455535173416138
1761333872321313300,5.461313232421875,0.12241554260253906,0.09024643898010254,-0.017726585268974304
1761333872340013600,5.480013671875,0.054892539978027344,0.10027503967285156,-0.007637456059455872
1761333872358713600,5.498713623046875,-0.010510444641113281,-0.006474733352661133,0.002875491976737976
1761333872377414000,5.517413818359375,0.0032806396484375,-0.04618191719055176,-0.024177074432373047
1761333872396114000,5.536114013671875,-0.008859634399414062,-0.08745145797729492,0.01714511215686798
1761333872414814200,5.554814208984375,-0.1024484634399414,-0.0305330753326416,0.040548086166381836
1761333872433514200,5.57351416015625,-0.14866352081298828,0.05265617370605469,0.007947325706481934
1761333872452214300,5.59221435546875,-0.09857654571533203,0.016562700271606445,-0.038874827325344086
1761333872470914600,5.61091455078125,0.18948745727539062,-0.0297088623046875,0.014456108212471008
1761333872489614600,5.629614501953125,0.3448820114135742,-0.02636551856994629,0.029497414827346802
1761333872508315000,5.64831494140625,0.12863636016845703,0.04236865043640137,-0.02360832691192627
1761333872527015000,5.667014892578125,-0.08417606353759766,0.11499524116516113,-0.08085894584655762
1761333872545715200,5.685715087890625,-0.12571239471435547,0.08446121215820312,-0.08450284600257874
1761333872564415200,5.704415283203125,-0.08272266387939453,0.0895071029663086,-0.0187671035528183
1761333872583115500,5.723115478515625,-0.027088165283203125,0.04975152015686035,0.008454442024230957
1761333872601815600,5.741815673828125,0.05977916717529297,0.05013751983642578,0.04299670457839966
1761333872620515800,5.760515869140625,0.10413360595703125,0.02341628074645996,0.09899497032165527
1761333872639215900,5.7792158203125,0.08020973205566406,0.026762723922729492,0.08181197941303253
1761333872657916200,5.797916259765625,-0.028830528259277344,0.03327798843383789,-0.0037354081869125366
1761333872676616200,5.8166162109375,-0.1608572006225586,0.03446245193481445,0.03311717510223389
1761333872695316500,5.83531640625,-0.0650491714477539,0.032271385192871094,0.08896760642528534
1761333872714016500,5.8540166015625,0.1069345474243164,-0.01450204849243164,0.08445017039775848
1761333872732716800,5.872716796875,0.11763858795166016,0.02028679847717285,0.044494032859802246
1761333872751416800,5.891416748046875,-0.07668113708496094,0.03692197799682617,0.044642090797424316
1761333872770117000,5.9101171875,-0.14847087860107422,0.052813053131103516,0.10127459466457367
1761333872788817200,5.928817138671875,0.009957313537597656,-0.038527488708496094,0.05929936468601227
1761333872807517400,5.947517333984375,0.11858463287353516,-0.06350111961364746,0.07159315049648285
1761333872826217500,5.966217529296875,0.10540771484375,-0.06609082221984863,0.06086699664592743
1761333872844917500,5.98491748046875,0.025615692138671875,-0.0736234188079834,0.06728924810886383
1761333872863617800,6.00361767578125,-0.03774261474609375,-0.0939338207244873,0.005194276571273804
1761333872882317800,6.02231787109375,-0.08747196197509766,-0.08600425720214844,0.0425153523683548
1761333872901018000,6.04101806640625,-0.07799816131591797,-0.039536237716674805,0.06316131353378296
1761333872919718100,6.05971826171875,-0.0827016830444336,-0.03855586051940918,0.009080544114112854
1761333872938418400,6.07841845703125,-0.01306915283203125,-0.016953229904174805,-0.03775513172149658
1761333872957118500,6.097118408203125,0.02363300323486328,-0.002365589141845703,-0.017869114875793457
1761333872975818800,6.11581884765625,0.07837677001953125,0.002579927444458008,0.025559276342391968
1761333872994518800,6.134518798828125,0.026277542114257812,0.0056726932525634766,0.030601471662521362
1761333873013219000,6.153218994140625,-0.11048412322998047,0.0040051937103271484,0.036040663719177246
1761333873031919000,6.171919189453125,-0.12698936462402344,0.011564970016479492,0.045622631907463074
1761333873050619400,6.190619384765625,-0.10362815856933594,0.007844209671020508,0.0110645592212677
1761333873069319400,6.2093193359375,0.014590263366699219,0.01929163932800293,0.0046326518058776855
1761333873088019700,6.228019775390625,0.23200225830078125,0.01313018798828125,-0.10796833783388138
1761333873106719700,6.2467197265625,0.30324840545654297,0.015024662017822266,-0.047119855880737305
1761333873125420000,6.265419921875,0.20610332489013672,-0.035193443298339844,-0.022346988320350647
1761333873144120000,6.2841201171875,0.10354995727539062,0.04405999183654785,-0.02458880841732025
1761333873162820400,6.3028203125,-0.035462379455566406,-0.015130996704101562,0.020583823323249817
1761333873181520400,6.321520263671875,-0.13948631286621094,0.04807472229003906,0.04563337564468384
1761333873200220700,6.340220703125,-0.19916057586669922,0.04112982749938965,-0.0029009729623794556
1761333873218920700,6.358920654296875,-0.06905651092529297,-0.007155656814575195,-0.07576969265937805
1761333873237620700,6.377620849609375,0.13820552825927734,-0.09408020973205566,0.03453628718852997
1761333873256321000,6.396321044921875,0.13855648040771484,-0.09998059272766113,0.04734070599079132
1761333873275021000,6.41502099609375,-0.09338951110839844,-0.04610037803649902,-0.03872944414615631
1761333873293721300,6.433721435546875,-0.2918729782104492,0.05222749710083008,-0.07731108367443085
1761333873312421400,6.45242138671875,-0.2943754196166992,0.08005475997924805,-0.034405291080474854
1761333873331121700,6.47112158203125,-0.11624717712402344,0.03484511375427246,-0.021919339895248413
1761333873349821700,6.48982177734375,0.07648658752441406,0.030762672424316406,-0.012925341725349426
1761333873368522000,6.50852197265625,0.222015380859375,0.0237119197845459,0.005438640713691711
1761333873387222000,6.527221923828125,0.2349700927734375,-0.036458730697631836,-0.05066835880279541
1761333873405922300,6.54592236328125,0.15027236938476562,-0.049658775329589844,-0.10580432415008545
1761333873424622300,6.564622314453125,-0.017110824584960938,-0.062322378158569336,-0.11507056653499603
1761333873443322600,6.583322509765625,-0.06757640838623047,-0.08890819549560547,-0.0875859335064888
1761333873462022700,6.602022705078125,-0.0582733154296875,-0.07851576805114746,-0.051133982837200165
1761333873480723000,6.620722900390625,-0.042351722717285156,-0.023085832595825195,-0.022256270051002502
1761333873499423000,6.639423095703125,-0.08103466033935547,0.024618148803710938,-0.014807924628257751
1761333873518123300,6.658123291015625,-0.011309623718261719,0.05811333656311035,0.008138328790664673
1761333873536823300,6.6768232421875,0.07452392578125,0.046042442321777344,0.03643710911273956
1761333873555523600,6.695523681640625,0.10667705535888672,0.029560565948486328,-0.018659651279449463
1761333873574223600,6.7142236328125,0.09154796600341797,-0.03252553939819336,-0.018905654549598694
1761333873592923600,6.732923583984375,0.0657958984375,-0.03472185134887695,-0.012752577662467957
1761333873611624000,6.7516240234375,0.042667388916015625,-0.07281208038330078,-0.007666409015655518
1761333873630324000,6.770323974609375,-0.018843650817871094,-0.06194591522216797,-0.0330493301153183
1761333873649024300,6.789024169921875,-0.007948875427246094,-0.026688814163208008,0.021638453006744385
1761333873667724300,6.807724365234375,-0.03997993469238281,-0.05112481117248535,0.05403469502925873
1761333873686424600,6.826424560546875,-0.09453296661376953,0.0064966678619384766,0.023458749055862427
1761333873705124600,6.84512451171875,-0.021497726440429688,-0.0124969482421875,0.02943873405456543
1761333873723825000,6.863824951171875,0.06972312927246094,-0.017601490020751953,0.059659361839294434
1761333873742525000,6.88252490234375,0.09074783325195312,-0.017703533172607422,0.09916295111179352
1761333873761225200,6.90122509765625,0.034743309020996094,-0.002610445022583008,0.04003947973251343
1761333873779925500,6.919925537109375,0.02689075469970703,-0.01400136947631836,0.05470505356788635
1761333873798625500,6.93862548828125,0.026676177978515625,-0.013229608535766602,0.02501741051673889
1761333873817325800,6.957325927734375,-0.011135101318359375,0.002977609634399414,0.004684999585151672
1761333873836025900,6.97602587890625,-0.09149360656738281,0.004073381423950195,0.038069143891334534
1761333873854726100,6.99472607421875,-0.10271072387695312,-0.006365060806274414,0.06087319552898407
1761333873873426200,7.01342626953125,0.03339195251464844,-0.012929439544677734,0.025473356246948242
1761333873892126500,7.03212646484375,0.05572795867919922,-0.006139516830444336,0.08922460675239563
1761333873910826500,7.050826416015625,-0.09575176239013672,0.0395817756652832,0.015839606523513794
1761333873929526800,7.06952685546875,-0.13030242919921875,0.04252028465270996,-0.12442733347415924
1761333873948226800,7.088226806640625,0.12717819213867188,-0.07571864128112793,-0.10175614058971405
1761333873966927000,7.106927001953125,0.32045936584472656,-0.12181472778320312,0.004888549447059631
1761333873985627100,7.125627197265625,0.18305397033691406,-0.03705716133117676,0.011911585927009583
1761333874004327400,7.144327392578125,-0.09896469116210938,0.06033492088317871,-0.052125826478004456
1761333874023027500,7.16302734375,-0.2857170104980469,0.11609029769897461,-0.07142434269189835
1761333874041727700,7.181727783203125,-0.22790145874023438,0.061896562576293945,0.006021514534950256
1761333874060427800,7.200427734375,0.014068603515625,0.03064751625061035,0.031198427081108093
1761333874079128000,7.219128173828125,0.1990518569946289,-0.007674217224121094,0.04937863349914551
1761333874097828000,7.237828125,0.1645650863647461,0.0045397281646728516,0.039003968238830566
1761333874116528000,7.256528076171875,0.010468482971191406,0.0026886463165283203,0.02289929986000061
1761333874135228400,7.275228515625,-0.08923721313476562,0.03052377700805664,-0.060938432812690735
1761333874153928400,7.293928466796875,-0.03682994842529297,-0.05237269401550293,-0.035530105233192444
1761333874172628700,7.312628662109375,0.018297195434570312,0.00036144256591796875,-0.08642596006393433
1761333874191328800,7.331328857421875,0.04603862762451172,-0.03493380546569824,-0.004341438412666321
1761333874210029000,7.350029052734375,0.005965232849121094,0.030079364776611328,-0.06703272461891174
1761333874228729000,7.36872900390625,-0.089263916015625,0.016324520111083984,-0.01297992467880249
1761333874247429400,7.387429443359375,-0.16318702697753906,0.05249834060668945,-0.025803685188293457
1761333874266129400,7.40612939453125,-0.10208606719970703,0.028474807739257812,0.04024168848991394
1761333874284829700,7.42482958984375,0.1808338165283203,0.0015423297882080078,0.0512426495552063
1761333874303529700,7.44352978515625,0.2428264617919922,-0.011482000350952148,0.07653582096099854
1761333874322230000,7.46222998046875,0.10089969635009766,-0.011774301528930664,-0.0002932697534561157
1761333874340930300,7.480930419921875,-0.04089927673339844,0.017543792724609375,-0.06375013291835785
1761333874359630300,7.49963037109375,-0.05902099609375,-0.015450000762939453,-0.05890917778015137
1761333874378330600,7.51833056640625,-0.021411895751953125,-0.007551670074462891,-0.03586265444755554
1761333874397030700,7.53703076171875,-0.05930519104003906,0.0017611980438232422,-0.032112061977386475
1761333874415731000,7.55573095703125,-0.1336526870727539,0.007476329803466797,-0.012973576784133911
1761333874434431000,7.574430908203125,-0.07547760009765625,-0.004673004150390625,0.04801252484321594
1761333874453131300,7.59313134765625,-0.01953887939453125,-0.013312101364135742,0.02916012704372406
1761333874471831300,7.611831298828125,0.02307415008544922,-0.0011713504791259766,0.020639196038246155
1761333874490531600,7.630531494140625,0.06252765655517578,-0.011534452438354492,0.04336303472518921
1761333874509231600,7.649231689453125,0.06113147735595703,-0.018291950225830078,0.007318094372749329
1761333874527932000,7.667931884765625,0.03863811492919922,-0.00010204315185546875,0.011218294501304626
1761333874546632000,7.6866318359375,-0.03183269500732422,-0.008306741714477539,-0.07865560054779053
1761333874565332200,7.705332275390625,-0.03736686706542969,-0.022355318069458008,-0.03621271252632141
1761333874584032300,7.7240322265625,-0.11280155181884766,-0.0029463768005371094,0.05820050835609436
1761333874602732500,7.742732666015625,-0.16966819763183594,0.041596174240112305,0.008723422884941101
1761333874621432600,7.7614326171875,-0.06886959075927734,0.000053882598876953125,-0.07082201540470123
1761333874640132600,7.780132568359375,0.1939716339111328,-0.06759428977966309,-0.02234967052936554
1761333874658833000,7.7988330078125,0.3488931655883789,-0.06267333030700684,0.09786568582057953
1761333874677533000,7.817532958984375,0.31191539764404297,0.011138677597045898,0.028631150722503662
1761333874696233200,7.836233154296875,0.16592121124267578,0.03259682655334473,0.09797348082065582
1761333874714933500,7.85493359375,-0.1309061050415039,0.1628429889678955,-0.04530149698257446
1761333874733633500,7.873633544921875,-0.19274520874023438,0.08682990074157715,-0.0659932792186737
1761333874752333800,7.892333740234375,-0.21498394012451172,-0.03270673751831055,-0.10540729761123657
1761333874771033900,7.911033935546875,-0.1932973861694336,-0.057016611099243164,-0.10568051040172577
1761333874789734100,7.929734130859375,-0.05861663818359375,-0.10369253158569336,-0.0384964644908905
1761333874808434200,7.94843408203125,0.010895729064941406,-0.07284665107727051,-0.022488266229629517
1761333874827134500,7.967134521484375,-0.036004066467285156,-0.012448549270629883,-0.04099069535732269
1761333874845834500,7.98583447265625,0.02822399139404297,0.02842879295349121,0.06244969367980957
1761333874864534800,8.00453466796875,0.09055614471435547,0.03299355506896973,0.07147090137004852
1761333874883234800,8.02323486328125,0.05075550079345703,0.04387068748474121,0.028528571128845215
1761333874901935000,8.04193505859375,-0.056957244873046875,0.04088878631591797,0.0028527677059173584
1761333874920635100,8.06063525390625,-0.06853675842285156,0.022761821746826172,0.03144882619380951
1761333874939335400,8.07933544921875,-0.02357959747314453,0.022182941436767578,-0.010416567325592041
1761333874958035500,8.098035400390625,-0.02206707000732422,0.03622627258300781,0.008573710918426514
1761333874976735700,8.11673583984375,-0.03986835479736328,0.025361061096191406,0.021791592240333557
1761333874995435800,8.135435791015626,0.0058727264404296875,-0.033928871154785156,0.012297704815864563
1761333875014136000,8.154135986328125,0.059467315673828125,-0.02435469627380371,0.011343315243721008
1761333875032836000,8.172836181640625,0.043888092041015625,0.00019073486328125,0.01816488802433014
1761333875051536400,8.191536376953126,-0.0013780593872070312,0.004331111907958984,0.0234433114528656
1761333875070236400,8.210236328125,-0.04996204376220703,-0.009430408477783203,-0.026097580790519714
1761333875088936700,8.228936767578125,-0.07629871368408203,-0.0031147003173828125,-0.03495866060256958
1761333875107637000,8.247636962890626,-0.07833671569824219,0.0053060054779052734,-0.014883369207382202
1761333875126337000,8.2663369140625,-0.06469535827636719,-0.034340858459472656,-0.03428129851818085
1761333875145037300,8.285037353515625,0.08142852783203125,-0.007803678512573242,0.01966392993927002
1761333875163737300,8.3037373046875,0.0038518905639648438,0.02491903305053711,-0.04007762670516968
1761333875182437600,8.322437744140625,-0.08040714263916016,0.028461933135986328,-0.0640411525964737
1761333875201137700,8.3411376953125,0.07087039947509766,-0.00177764892578125,-0.005866512656211853
1761333875219838000,8.359837890625,0.18043899536132812,0.022617340087890625,0.0627976804971695
1761333875238538000,8.3785380859375,0.026137351989746094,0.014749765396118164,-0.009630486369132996
1761333875257238300,8.39723828125,-0.18874549865722656,0.03465437889099121,0.059327468276023865
1761333875275938300,8.415938232421874,-0.25028514862060547,0.0639793872833252,0.0075770169496536255
1761333875294638300,8.434638427734376,-0.14310169219970703,0.0526280403137207,-0.07090990245342255
1761333875313338600,8.453338623046875,0.1327667236328125,-0.06927204132080078,-0.08818044513463974
1761333875332039000,8.472038818359374,0.35840511322021484,-0.09179568290710449,0.03712396323680878
1761333875350739000,8.490739013671876,0.28165531158447266,-0.0008213520050048828,0.06446127593517303
1761333875369439200,8.509439208984375,-0.04290008544921875,0.07398867607116699,-0.005311787128448486
1761333875388139300,8.52813916015625,-0.2214832305908203,0.11563515663146973,-0.029205322265625
1761333875406839600,8.546839599609376,-0.06472015380859375,0.06834197044372559,-0.019163191318511963
1761333875425539600,8.56553955078125,0.0191650390625,0.05376243591308594,0.0061094313859939575
1761333875444240000,8.584239990234375,0.03996753692626953,0.051438331604003906,0.008026361465454102
1761333875462940000,8.60293994140625,0.11832618713378906,-0.034638166427612305,0.05877390503883362
1761333875481640200,8.62164013671875,0.04990577697753906,-0.055065155029296875,0.08926858007907867
1761333875500340200,8.64034033203125,-0.10224723815917969,0.007266521453857422,-0.05322551727294922
1761333875519040500,8.65904052734375,-0.1657695770263672,-0.016550779342651367,-0.016536235809326172
1761333875537740500,8.677740478515625,-0.08579635620117188,-0.061669349670410156,-0.05503802001476288
1761333875556440800,8.69644091796875,0.05446624755859375,-0.03360939025878906,0.019312262535095215
1761333875575140900,8.715140869140624,0.10157585144042969,0.0030286312103271484,0.09625525772571564
1761333875593841200,8.733841064453125,-0.02978229522705078,0.07284927368164062,0.02674737572669983
1761333875612541400,8.75254150390625,-0.06346511840820312,0.07527899742126465,0.013431176543235779
1761333875631241500,8.771241455078124,-0.02909088134765625,0.023006439208984375,0.039289042353630066
1761333875649941800,8.789941650390626,0.06504154205322266,-0.041400909423828125,0.03353135287761688
1761333875668641800,8.808641845703125,0.11185550689697266,-0.0486910343170166,0.011434882879257202
1761333875687342000,8.827342041015624,-0.0057582855224609375,-0.021672964096069336,0.015230551362037659
1761333875706042000,8.8460419921875,0.0046520233154296875,-0.025027036666870117,0.08073177933692932
1761333875724742400,8.864742431640625,0.02820301055908203,-0.0014851093292236328,0.04361766576766968
1761333875743442400,8.8834423828125,-0.08900833129882812,0.021701812744140625,-0.01945832371711731
1761333875762142700,8.902142822265626,-0.10478687286376953,0.009244203567504883,0.00407099723815918
1761333875780842800,8.9208427734375,-0.010663032531738281,0.001226186752319336,-0.02057860791683197
1761333875799543000,8.93954296875,0.07797813415527344,-0.03079700469970703,-0.0084027498960495
1761333875818243000,8.9582431640625,0.03341102600097656,-0.051946401596069336,-0.04224865138530731
1761333875836943400,8.976943359375,-0.039691925048828125,-0.020601749420166016,-0.060759350657463074
1761333875855643600,8.9956435546875,0.012920379638671875,-0.017600297927856445,0.023871004581451416
1761333875874343700,9.01434375,0.06624031066894531,-0.003979921340942383,0.04003728926181793
1761333875893044000,9.0330439453125,-0.0240936279296875,0.009632587432861328,0.044998690485954285
1761333875911744000,9.051743896484375,0.0047130584716796875,-0.008004188537597656,0.0325402170419693
1761333875930444300,9.0704443359375,-0.1311798095703125,0.029193639755249023,0.04555210471153259
1761333875949144300,9.089144287109375,-0.2348012924194336,0.04847240447998047,0.02371332049369812
1761333875967844600,9.1078447265625,-0.11869525909423828,0.04665327072143555,-0.06636291742324829
1761333875986544600,9.126544677734374,0.16739368438720703,-0.05967140197753906,-0.048226580023765564
1761333876005245000,9.145244873046876,0.3752403259277344,-0.08151364326477051,-0.07254216074943542
1761333876023945000,9.163945068359375,0.3824281692504883,-0.07614994049072266,0.03452311456203461
1761333876042645200,9.182645263671875,0.0105438232421875,0.0488286018371582,-0.016452163457870483
1761333876061345300,9.20134521484375,-0.3328742980957031,0.10229802131652832,-0.09788282215595245
1761333876080045600,9.220045654296875,-0.3657855987548828,0.1011357307434082,-0.05653004348278046
1761333876098745600,9.23874560546875,-0.14510822296142578,0.029785633087158203,0.057285696268081665
1761333876117446000,9.25744580078125,0.07734489440917969,0.013553857803344727,0.0380357950925827
1761333876136146200,9.276146240234375,0.10599231719970703,-0.04175877571105957,0.05047611892223358
1761333876154846200,9.29484619140625,0.08803272247314453,-0.00177764892578125,0.03866109251976013
1761333876173546500,9.31354638671875,-0.01561737060546875,-0.03653264045715332,-0.04831208288669586
1761333876192246500,9.33224658203125,0.050263404846191406,-0.07560324668884277,-0.09048031270503998
1761333876210946800,9.35094677734375,0.10889148712158203,-0.08715558052062988,-0.0757187157869339
1761333876229646800,9.369646728515624,-0.00858306884765625,-0.027836322784423828,-0.03402581810951233
1761333876248347100,9.38834716796875,-0.09431266784667969,0.035567522048950195,-0.014928504824638367
1761333876267047200,9.407047119140625,-0.11254405975341797,-0.011899232864379883,-0.015981435775756836
1761333876285747200,9.425747314453124,-0.06545543670654297,-0.0006263256072998047,-0.0069558024406433105
1761333876304447500,9.444447509765626,0.0034551620483398438,0.0043108463287353516,0.06270594894886017
1761333876323147800,9.463147705078125,0.11892890930175781,-0.047830820083618164,0.034866154193878174
1761333876341848000,9.48184814453125,0.12097454071044922,-0.023598432540893555,0.04383203387260437
1761333876360548000,9.500548095703126,0.05150604248046875,-0.018313884735107422,0.011915251612663269
1761333876379248000,9.519248046875,0.047916412353515625,0.012674808502197266,0.045454397797584534
1761333876397948400,9.537948486328125,0.018593788146972656,0.00044083595275878906,0.08210861682891846
1761333876416648400,9.5566484375,-0.040284156799316406,0.020853757858276367,-0.023612484335899353
1761333876435348700,9.5753486328125,-0.07414054870605469,-0.03520917892456055,-0.023494943976402283
1761333876454048800,9.594048828125,-0.030267715454101562,0.026606321334838867,-0.036456912755966187
1761333876472749000,9.6127490234375,-0.07432937622070312,0.0005698204040527344,-0.05880889296531677
1761333876491449300,9.631449462890625,-0.10536575317382812,-0.0011570453643798828,-0.019941061735153198
1761333876510149400,9.6501494140625,0.05385780334472656,0.02812647819519043,0.06844614446163177
1761333876528849700,9.668849609375,0.19812679290771484,0.018491506576538086,0.0965137928724289
1761333876547549700,9.6875498046875,0.19565105438232422,-0.004152536392211914,0.03258794546127319
1761333876566250000,9.70625,0.06623363494873047,0.023501157760620117,-0.02708020806312561
1761333876584950000,9.724949951171874,0.06548595428466797,-0.0037021636962890625,-0.061689943075180054
1761333876603650300,9.743650390625,0.1017141342163086,-0.03626370429992676,0.022437408566474915
1761333876622350300,9.762350341796875,-0.17292118072509766,0.05466485023498535,0.02004130184650421
1761333876641050600,9.781050537109374,-0.35793399810791016,0.04724597930908203,-0.08813320100307465
1761333876659750700,9.799750732421876,-0.050258636474609375,-0.06540083885192871,-0.04067304730415344
1761333876678451000,9.818450927734375,0.3701906204223633,-0.09812116622924805,0.09602059423923492
1761333876697151200,9.837151123046874,0.22127246856689453,-0.010045051574707031,0.10859248042106628
1761333876715851300,9.855851318359376,-0.15957164764404297,0.10460209846496582,0.05619725584983826
1761333876734551600,9.874551513671875,-0.2367868423461914,0.11716055870056152,0.022336483001708984
1761333876753251600,9.89325146484375,-0.13602733612060547,0.028258085250854492,-0.033864960074424744
1761333876771951900,9.911951904296876,-0.07649803161621094,0.02059030532836914,-0.05391043424606323
1761333876790652000,9.93065185546875,0.13746070861816406,-0.010998964309692383,0.0005363374948501587
1761333876809352200,9.949352294921875,0.1345691680908203,-0.05341291427612305,0.025333955883979797
1761333876828052200,9.96805224609375,-0.1475048065185547,-0.05280637741088867,-0.07697798311710358
1761333876846752500,9.98675244140625,-0.11230754852294922,-0.09406638145446777,-0.0897027850151062
1761333876865452500,10.00545263671875,-0.047280311584472656,-0.03892683982849121,-0.10519364476203918
1761333876884152800,10.02415283203125,0.0941171646118164,-0.018012523651123047,0.022596284747123718
1761333876902879500,10.04287939453125,0.1866140365600586,-0.03544211387634277,0.05853009223937988
1761333876921553200,10.06155322265625,0.27884483337402344,0.020994186401367188,0.07283245027065277
