time,seconds_elapsed,z,y,x
1761333866916972800,0.056972900390625,-0.034208428114652634,0.06337722390890121,0.1805105358362198
1761333866935673000,0.075673095703125,0.0256563201546669,0.060933761298656464,0.05100720748305321
1761333866954373000,0.094373046875,0.09101885557174683,0.05238165333867073,-0.041844237595796585
1761333866973073200,0.1130732421875,0.15760311484336853,-0.03802633285522461,-0.08399390429258347
1761333866991773400,0.1317734375,0.18753549456596375,-0.061850059777498245,-0.07360920310020447
1761333867010473500,0.150473388671875,0.20647229254245758,0.0010690133785828948,-0.07360920310020447
1761333867029173800,0.169173828125,0.1948658674955368,-0.011759147047996521,-0.09987638890743256
1761333867047873800,0.187873779296875,0.15149445831775665,0.013897174037992954,-0.09926552325487137
1761333867066574000,0.206573974609375,0.11056652665138245,0.019394956529140472,-0.10170898586511612
1761333867085274000,0.225274169921875,0.06475166976451874,0.03222311660647392,-0.0974329337477684
1761333867103974100,0.24397412109375,0.036651886999607086,0.1207985132932663,-0.04306596517562866
1761333867122674400,0.26267431640625,0.024434590712189674,0.1360701322555542,-0.011911863461136818
1761333867141374500,0.28137451171875,0.03543015569448471,0.04993819445371628,-0.06017018109560013
1761333867160074500,0.300074462890625,0.04276053607463837,0.018173227086663246,-0.1493564397096634
1761333867178774800,0.31877490234375,0.04581485688686371,0.0896444097161293,-0.19089524447917938
1761333867197474800,0.337474853515625,0.04153880476951599,0.09636391699314117,-0.19089524447917938
1761333867216175000,0.356175048828125,0.03481929376721382,0.09575305134057999,-0.1444695144891739
1761333867234875100,0.374875244140625,0.03787361457943916,0.1305723488330841,-0.10537417232990265
1761333867253575400,0.393575439453125,0.04459312930703163,0.11468986421823502,-0.10659590363502502
1761333867272275500,0.412275390625,0.04276053607463837,0.12935061752796173,-0.12370011955499649
1761333867290975500,0.4309755859375,0.03543015569448471,0.14462223649024963,-0.13713914155960083
1761333867309675800,0.44967578125,0.014660755172371864,0.10980294644832611,-0.15118902921676636
1761333867328375800,0.468375732421875,-0.003665188793092966,0.12812888622283936,-0.1591302752494812
1761333867347075800,0.487075927734375,-0.01954767294228077,0.15806126594543457,-0.168904110789299
1761333867365776100,0.505776123046875,-0.033597562462091446,0.1727220118045807,-0.17745621502399445
1761333867384476200,0.52447607421875,-0.05558869615197182,0.18371757864952087,-0.15302163362503052
1761333867403176400,0.543176513671875,-0.056810423731803894,0.21670427918434143,-0.08643736690282822
1761333867421876500,0.56187646484375,-0.03481929376721382,0.2594648003578186,-0.035124726593494415
1761333867440576800,0.58057666015625,-0.0054977829568088055,0.32421648502349854,-0.005192350596189499
1761333867459276800,0.59927685546875,0.023212861269712448,0.39568766951560974,-0.012522728182375431
1761333867477976800,0.617976806640625,0.043982263654470444,0.3400989770889282,-0.061391908675432205
1761333867496677000,0.636677001953125,0.07941242307424545,0.22036947309970856,-0.09315688163042068
1761333867515377200,0.655377197265625,0.11056652665138245,0.11163553595542908,-0.09071341902017593
1761333867534077400,0.674077392578125,0.14477495849132538,0.1000291109085083,-0.07422006875276566
1761333867552777500,0.692777587890625,0.1545487940311432,0.1464548259973526,-0.07055488228797913
1761333867571477500,0.7114775390625,0.14721840620040894,0.20509785413742065,-0.08093958348035812
1761333867590177800,0.730177734375,0.14049890637397766,0.1562286615371704,-0.08826996386051178
1761333867608877800,0.7488779296875,0.1337793916463852,0.12385283410549164,-0.09804379940032959
1761333867627578000,0.767578125,0.12156209349632263,0.14950916171073914,-0.1230892539024353
1761333867646278100,0.786278076171875,0.13072505593299866,0.2124282270669937,-0.13103049993515015
1761333867664978200,0.804978271484375,0.13744457066059113,0.2026543915271759,-0.12125665694475174
1761333867683678500,0.823678466796875,0.16004657745361328,0.1672242283821106,-0.1029307171702385
1761333867702378500,0.84237841796875,0.1795942485332489,0.18005239963531494,-0.05833758786320686
1761333867721078800,0.861078857421875,0.17226386070251465,0.20998476445674896,0.008857538923621178
1761333867739778800,0.87977880859375,0.15149445831775665,0.23258677124977112,0.05589412897825241
1761333867758479000,0.89847900390625,0.13988803327083588,0.23014330863952637,0.04062250629067421
1761333867777179100,0.91717919921875,0.12705987691879272,0.16050471365451813,-0.003970621153712273
1761333867795879200,0.935879150390625,0.13500112295150757,0.12140937149524689,-0.04062250629067421
1761333867814579500,0.954579345703125,0.12278381735086441,0.17394374310970306,-0.022296564653515816
1761333867833279500,0.973279541015625,0.12400554865598679,0.15867212414741516,0.011300998739898205
1761333867851979500,0.9919794921875,0.1178968995809555,0.10797034949064255,0.06994401663541794
1761333867870679800,1.0106796875,0.12156209349632263,0.14889828860759735,0.10965022444725037
1761333867889379800,1.0293798828125,0.12156209349632263,0.20693044364452362,0.1285870373249054
1761333867908080000,1.048080078125,0.14538581669330597,0.15867212414741516,0.1389717310667038
1761333867926780200,1.0667802734375,0.16065743565559387,0.0010690133785828948,0.1328630894422531
1761333867945480400,1.08548046875,0.1441640853881836,-0.11743875592947006,0.07544180005788803
1761333867964180500,1.104180419921875,0.13744457066059113,-0.20112723112106323,-0.048563748598098755
1761333867982880500,1.122880615234375,0.11056652665138245,-0.26282456517219543,-0.16279546916484833
1761333868001580800,1.141580810546875,0.040317077189683914,-0.3043633699417114,-0.21410810947418213
1761333868020280800,1.16028076171875,-0.05253437161445618,-0.2438877671957016,-0.21288637816905975
1761333868038980900,1.17898095703125,-0.1282816082239151,-0.04046979174017906,-0.14630211889743805
1761333868057681200,1.19768115234375,-0.1539379209280014,0.1207985132932663,-0.010079269297420979
1761333868076381200,1.216381103515625,-0.15027274191379547,0.09575305134057999,0.12614357471466064
1761333868095081500,1.23508154296875,-0.11667517572641373,-0.03130681812763214,0.19700388610363007
1761333868113781500,1.253781494140625,-0.0720820426940918,-0.12965604662895203,0.21716243028640747
1761333868132481800,1.272481689453125,-0.05742128938436508,-0.18463388085365295,0.21716243028640747
1761333868151181800,1.291181884765625,-0.09285144507884979,-0.21090106666088104,0.20799945294857025
1761333868169881900,1.3098818359375,-0.1802051067352295,-0.212733656167984,0.18112140893936157
1761333868188582100,1.32858203125,-0.2528980076313019,-0.21517711877822876,0.13652828335762024
1761333868207282200,1.3472822265625,-0.2968802750110626,-0.24144430458545685,0.08643736690282822
1761333868225982200,1.365982177734375,-0.328645259141922,-0.20967933535575867,0.04673115536570549
1761333868244682500,1.3846826171875,-0.3659079968929291,-0.1455385386943817,0.03145953640341759
1761333868263382500,1.403382568359375,-0.39767298102378845,-0.11804962158203125,0.029626941308379173
1761333868282082800,1.422082763671875,-0.4105011224746704,-0.10338886082172394,0.013744457624852657
1761333868300782800,1.440782958984375,-0.3946186602115631,-0.1974620372056961,-0.006414080038666725
1761333868319483100,1.459483154296875,-0.34147340059280396,-0.23044873774051666,0.02718348242342472
1761333868338183200,1.47818310546875,-0.3023780584335327,-0.22556181252002716,0.07971785217523575
1761333868356883200,1.49688330078125,-0.27366742491722107,-0.21456626057624817,0.11392628401517868
1761333868375583500,1.51558349609375,-0.23823726177215576,-0.21212279796600342,0.15241076052188873
1761333868394283500,1.534283447265625,-0.2101374864578247,-0.212733656167984,0.2214384824037552
1761333868412983600,1.552983642578125,-0.22418737411499023,-0.1461493968963623,0.281914085149765
1761333868431683800,1.571683837890625,-0.2510654330253601,-0.05513054504990578,0.28557929396629333
1761333868450384000,1.5903837890625,-0.2620609998703003,-0.049021899700164795,0.20799945294857025
1761333868469084200,1.609084228515625,-0.2663370370864868,-0.09178243577480316,0.10109812021255493
1761333868487784200,1.6277841796875,-0.25473061203956604,-0.1669187992811203,-0.0021380267571657896
1761333868506484500,1.646484375,-0.2809978127479553,-0.2548833191394806,-0.0766635313630104
1761333868525184500,1.6651845703125,-0.2968802750110626,-0.26160284876823425,-0.08399390429258347
1761333868543884800,1.683884765625,-0.27366742491722107,-0.20112723112106323,-0.025350889191031456
1761333868562584800,1.702584716796875,-0.2669478952884674,-0.12660172581672668,0.0821613147854805
1761333868581284900,1.721284912109375,-0.2761108875274658,-0.09361502528190613,0.17195843160152435
1761333868599985000,1.73998486328125,-0.27427828311920166,-0.07406735420227051,0.20250166952610016
1761333868618685200,1.758685302734375,-0.28954991698265076,-0.045967575162649155,0.18112140893936157
1761333868637385200,1.77738525390625,-0.27366742491722107,-0.04780016839504242,0.11881320178508759
1761333868656085500,1.79608544921875,-0.24373504519462585,-0.04046979174017906,0.04734202101826668
1761333868674785500,1.81478564453125,-0.17165300250053406,-0.06551524996757507,-0.03940077871084213
1761333868693485800,1.83348583984375,-0.08307760953903198,-0.15470150113105774,-0.1444695144891739
1761333868712185900,1.852185791015625,0.006108647678047419,-0.22006404399871826,-0.2886336147785187
1761333868730886100,1.87088623046875,0.040317077189683914,-0.2603811025619507,-0.3851502537727356
1761333868749586200,1.889586181640625,0.013439024798572063,-0.2341139316558838,-0.3497200906276703
1761333868768286200,1.9082861328125,-0.023212861269712448,-0.039858926087617874,-0.15179990231990814
1761333868786986500,1.926986572265625,-0.020769402384757996,0.12263110280036926,0.09437860548496246
1761333868805686500,1.9456865234375,0.06780599057674408,0.1562286615371704,0.2935205399990082
1761333868824386800,1.96438671875,0.17531819641590118,0.09269873052835464,0.38759371638298035
1761333868843086800,1.9830869140625,0.23518294095993042,0.018784092739224434,0.3533852696418762
1761333868861787000,2.001786865234375,0.21868959069252014,0.02977965772151947,0.22693626582622528
1761333868880487200,2.020487060546875,0.16676609218120575,0.06643154472112656,0.044898562133312225
1761333868899187200,2.039187255859375,0.14721840620040894,0.08536835014820099,-0.13469567894935608
1761333868917887500,2.057887451171875,0.18142683804035187,0.025503603741526604,-0.2611446976661682
1761333868936587500,2.07658740234375,0.22968515753746033,-0.020922118797898293,-0.29596397280693054
1761333868955287600,2.09528759765625,0.27000224590301514,0.02672533318400383,-0.2257145345211029
1761333868973987800,2.11398779296875,0.3121519088745117,0.16416990756988525,-0.04550942778587341
1761333868992687900,2.13268798828125,0.3707949221134186,0.24236060678958893,0.12186752259731293
1761333869011388200,2.15138818359375,0.45937031507492065,0.2539670467376709,0.20311254262924194
1761333869030088200,2.170088134765625,0.5497782826423645,0.12996147572994232,0.20861032605171204
1761333869048788500,2.18878857421875,0.6065887212753296,0.0334448479115963,0.1847866028547287
1761333869067488500,2.207488525390625,0.5955931544303894,0.027336198836565018,0.15057817101478577
1761333869086188500,2.2261884765625,0.5180133581161499,0.057268574833869934,0.08949168771505356
1761333869104888800,2.244888916015625,0.4098902642726898,0.09880737960338593,-0.011300998739898205
1761333869123588900,2.2635888671875,0.2834412455558777,0.06582067906856537,-0.10965022444725037
1761333869142289200,2.2822890625,0.15088360011577606,0.046883873641490936,-0.16646064817905426
1761333869160989200,2.3009892578125,0.05070177838206291,0.13790272176265717,-0.17195843160152435
1761333869179689200,2.319689208984375,-0.012217295356094837,0.20387612283229828,-0.12431098520755768
1761333869198389500,2.338389404296875,-0.034208428114652634,0.22464552521705627,-0.05345066636800766
1761333869217089500,2.357089599609375,-0.01649334840476513,0.2185368686914444,-0.03329212963581085
1761333869235789800,2.375789794921875,0.023212861269712448,0.17455461621284485,-0.05894844979047775
1761333869254489900,2.39448974609375,0.04764745384454727,0.12385283410549164,-0.08582650125026703
1761333869273190100,2.413190185546875,0.04520399495959282,0.11346813291311264,-0.08338304609060287
1761333869291890200,2.43189013671875,0.02626718580722809,0.1207985132932663,-0.07544180005788803
1761333869310590500,2.450590576171875,0.0054977829568088055,0.1305723488330841,-0.08765909820795059
1761333869329290500,2.46929052734375,-0.006719512399286032,0.11468986421823502,-0.11698060482740402
1761333869347990500,2.487990478515625,0.018325943499803543,0.07009673118591309,-0.10170898586511612
1761333869366690800,2.50669091796875,0.050090912729501724,0.021838415414094925,-0.010079269297420979
1761333869385390800,2.525390869140625,0.0409279391169548,0.034666575491428375,0.11942406743764877
1761333869404091000,2.5440908203125,-0.001832594396546483,0.07498364895582199,0.15668681263923645
1761333869422791200,2.562791259765625,-0.0409279391169548,0.04810560122132301,0.0870482325553894
1761333869441491200,2.5814912109375,-0.05192350596189499,-0.028863361105322838,0.008246674202382565
1761333869460191500,2.60019140625,-0.0256563201546669,-0.006872228812426329,0.005803215317428112
1761333869478891500,2.6188916015625,-0.01649334840476513,0.02306014485657215,0.05833758786320686
1761333869497591800,2.637591796875,-0.04276053607463837,0.02000582218170166,0.1127045527100563
1761333869516291800,2.656291748046875,-0.07574722915887833,-0.020922118797898293,0.13775001466274261
1761333869534992100,2.6749921875,-0.10201441496610641,-0.11316270381212234,0.11331541836261749
1761333869553692200,2.693692138671875,-0.12095122784376144,-0.11194097250699997,0.060781046748161316
1761333869572392200,2.71239208984375,-0.15515965223312378,-0.09300415962934494,-0.0009162971982732415
1761333869591092500,2.731092529296875,-0.19914191961288452,-0.1253799945116043,-0.05406153202056885
1761333869609792500,2.74979248046875,-0.25045454502105713,-0.11499529331922531,-0.07788526266813278
1761333869628492500,2.768492431640625,-0.268169641494751,-0.02519817277789116,-0.10598503798246384
1761333869647192800,2.78719287109375,-0.2406807243824005,-0.016035201027989388,-0.1328630894422531
1761333869665892900,2.805892822265625,-0.24312418699264526,-0.061850059777498245,-0.1285870373249054
1761333869684593200,2.82459326171875,-0.23335035145282745,-0.0691804364323616,-0.08093958348035812
1761333869703293200,2.843293212890625,-0.22235478460788727,-0.03191768378019333,-0.011911863461136818
1761333869721993500,2.861993408203125,-0.20402882993221283,-0.04413498193025589,0.016798781231045723
1761333869740693500,2.880693603515625,-0.16187916696071625,-0.10094540566205978,0.016187917441129684
1761333869759393800,2.899393798828125,-0.1288924664258957,-0.12171480804681778,0.0461202897131443
1761333869778093800,2.91809375,-0.12156209349632263,-0.06673697382211685,0.10903936624526978
1761333869796793900,2.9367939453125,-0.1233946830034256,-0.030695954337716103,0.14752385020256042
1761333869815494100,2.955494140625,-0.12950333952903748,-0.01359174121171236,0.168904110789299
1761333869834194200,2.974194091796875,-0.12400554865598679,-0.0019853105768561363,0.1487455666065216
1761333869852894200,2.992894287109375,-0.10873392969369888,0.02611446939408779,0.12492185086011887
1761333869871594500,3.011594482421875,-0.09346231073141098,-0.0001527161948615685,0.10170898586511612
1761333869890294500,3.03029443359375,-0.0769689604640007,-0.055741410702466965,0.06017018109560013
1761333869908994800,3.048994873046875,-0.07086031138896942,0.019394956529140472,0.02718348242342472
1761333869927694800,3.06769482421875,-0.04825831577181816,0.044440411031246185,-0.015577051788568497
1761333869946395100,3.08639501953125,-0.001221729558892548,-0.014202605932950974,-0.03940077871084213
1761333869965095200,3.10509521484375,0.04886918142437935,-0.04841103404760361,-0.016187917441129684
1761333869983795500,3.12379541015625,0.06536252796649933,-0.039248060435056686,0.015577051788568497
1761333870002495500,3.14249560546875,0.08857539296150208,-0.029474224895238876,0.021685699000954628
1761333870021195500,3.161195556640625,0.09957095980644226,-0.006872228812426329,0.03634645417332649
1761333870039895800,3.179895751953125,0.10323614627122879,-0.0386371985077858,0.04367683082818985
1761333870058595800,3.198595947265625,0.11056652665138245,-0.049021899700164795,0.03756818547844887
1761333870077296000,3.217296142578125,0.09529490768909454,-0.01359174121171236,0.03756818547844887
1761333870095996200,3.23599609375,0.07574722915887833,0.002901607658714056,0.05528326332569122
1761333870114696200,3.2546962890625,0.06108647957444191,0.010842849500477314,0.07299833744764328
1761333870133396500,3.273396484375,0.06963858753442764,-0.0013744457392022014,0.06566796451807022
1761333870152096500,3.292096435546875,0.0720820426940918,-0.0154243353754282,0.044898562133312225
1761333870170796800,3.310796875,0.06230820715427399,0.009010255336761475,0.035124726593494415
1761333870189496800,3.329496826171875,0.05497783049941063,0.04993819445371628,0.02718348242342472
1761333870208197000,3.348197021484375,0.0720820426940918,0.05177079141139984,0.018631376326084137
1761333870226897200,3.366897216796875,0.09407317638397217,0.02000582218170166,-0.000305432389723137
1761333870245597400,3.385597412109375,0.09529490768909454,-0.009926552884280682,-0.03695731982588768
1761333870264297500,3.40429736328125,0.10629047453403473,-0.017867794260382652,-0.06994401663541794
1761333870282997500,3.42299755859375,0.12950333952903748,0.0383317656815052,-0.06872228533029556
1761333870301697500,3.441697509765625,0.1490510106086731,0.06337722390890121,-0.03451386094093323
1761333870320397800,3.460397705078125,0.1588248461484909,0.011453714221715927,-0.015577051788568497
1761333870339097900,3.479097900390625,0.15638138353824615,-0.0154243353754282,0.0027488914784044027
1761333870357798100,3.497798095703125,0.12400554865598679,-0.005039634648710489,0.013133592903614044
1761333870376498200,3.516498291015625,0.11972949653863907,0.019394956529140472,0.000305432389723137
1761333870395198500,3.535198486328125,0.11911863088607788,0.016340631991624832,-0.035124726593494415
1761333870413898500,3.5538984375,0.1178968995809555,0.001679878099821508,-0.06017018109560013
1761333870432598800,3.572598876953125,0.12278381735086441,-0.03558287397027016,-0.054672397673130035
1761333870451298800,3.591298828125,0.11667517572641373,-0.03130681812763214,-0.019853105768561363
1761333870469999000,3.6099990234375,0.08491020649671555,-0.020311253145337105,0.023518294095993042
1761333870488699100,3.62869921875,0.056199558079242706,-0.011759147047996521,0.03695731982588768
1761333870507399200,3.647399169921875,0.03176496922969818,-0.0007635809597559273,0.022907428443431854
1761333870526099500,3.666099365234375,0.02260199747979641,0.006566796451807022,0.016187917441129684
1761333870544799500,3.684799560546875,0.009162971749901772,0.01511890348047018,0.02107483521103859
1761333870563499800,3.703499755859375,0.014049889519810677,-0.017867794260382652,0.013744457624852657
1761333870582199800,3.72219970703125,0.025045456364750862,-0.030085090547800064,0.0021380267571657896
1761333870600899800,3.74089990234375,0.026878049597144127,-0.029474224895238876,-0.000305432389723137
1761333870619600100,3.75960009765625,0.01954767294228077,-0.023976443335413933,0.0204639695584774
1761333870638300200,3.778300048828125,0.004886918235570192,-0.03375028073787689,0.03451386094093323
1761333870657000400,3.79700048828125,-0.015271619893610477,-0.06795870512723923,0.014966187067329884
1761333870675701000,3.815700927734375,-0.033597562462091446,-0.03802633285522461,0.0027488914784044027
1761333870694400800,3.83440087890625,-0.0665842592716217,0.00045814859913662076,0.028405211865901947
1761333870713100800,3.853100830078125,-0.0818558782339096,-0.011148282326757908,0.05283980444073677
1761333870731801000,3.871801025390625,-0.08613193035125732,-0.039248060435056686,0.04428769648075104
1761333870750501000,3.890501220703125,-0.08918625861406326,-0.05513054504990578,0.011300998739898205
1761333870769201200,3.909201171875,-0.10201441496610641,-0.03252854943275452,0.011911863461136818
1761333870787901400,3.9279013671875,-0.11911863088607788,0.005955931730568409,0.04978547990322113
1761333870806601500,3.9466015625,-0.12950333952903748,0.007788525894284248,0.06383536756038666
1761333870825301800,3.9653017578125,-0.12950333952903748,-0.019700389355421066,0.03695731982588768
1761333870844001800,3.984001708984375,-0.11667517572641373,-0.06062832847237587,-0.011911863461136818
1761333870862702000,4.0027021484375,-0.10934479534626007,-0.058795735239982605,-0.06994401663541794
1761333870881402000,4.021402099609375,-0.09896009415388107,0.011453714221715927,-0.0772743970155716
1761333870900102100,4.04010205078125,-0.08918625861406326,0.041386090219020844,-0.03329212963581085
1761333870918802400,4.058802490234375,-0.0665842592716217,-0.022754713892936707,0.01740964688360691
1761333870937502500,4.07750244140625,-0.04520399495959282,-0.1107192412018776,0.015577051788568497
1761333870956202800,4.09620263671875,-0.037262752652168274,-0.10277800261974335,-0.028405211865901947
1761333870974902800,4.11490283203125,-0.04276053607463837,-0.03191768378019333,-0.026572618633508682
1761333870993602800,4.133602783203125,-0.056810423731803894,-0.016035201027989388,0.022296564653515816
1761333871012303000,4.15230322265625,-0.06902772188186646,-0.04108065739274025,0.05100720748305321
1761333871031003100,4.171003173828125,-0.07757982611656189,-0.029474224895238876,0.03145953640341759
1761333871049703400,4.189703369140625,-0.07819069176912308,-0.009926552884280682,-0.024740023538470268
1761333871068403500,4.208403564453125,-0.06902772188186646,-0.01847865991294384,-0.05894844979047775
1761333871087103700,4.227103759765625,-0.06352993845939636,-0.04169152304530144,-0.04550942778587341
1761333871105803800,4.2458037109375,-0.059864748269319534,-0.04535670951008797,-0.013744457624852657
1761333871124504000,4.264504150390625,-0.05742128938436508,-0.03497200831770897,0.005803215317428112
1761333871143204000,4.2832041015625,-0.06963858753442764,-0.016035201027989388,0.029626941308379173
1761333871161904400,4.301904296875,-0.0824667438864708,-0.02153298258781433,0.048563748598098755
1761333871180604400,4.3206044921875,-0.09957095980644226,-0.026419902220368385,0.06383536756038666
1761333871199304700,4.3393046875,-0.10751219838857651,-0.011759147047996521,0.09560033679008484
1761333871218004700,4.358004638671875,-0.08368847519159317,-0.0013744457392022014,0.11209368705749512
1761333871236704800,4.376704833984375,-0.056810423731803894,-0.0062613640911877155,0.09376774728298187
1761333871255405000,4.395405029296875,-0.04581485688686371,-0.011148282326757908,0.05955931544303894
1761333871274105000,4.41410498046875,-0.0409279391169548,-0.0032070400193333626,0.021685699000954628
1761333871292805400,4.432805419921875,-0.0256563201546669,-0.0025961752980947495,-0.010690134018659592
1761333871311505400,4.45150537109375,-0.009162971749901772,0.004123337101191282,-0.032070402055978775
1761333871330205400,4.470205322265625,0.007330377586185932,0.0010690133785828948,-0.02779434807598591
1761333871348905700,4.48890576171875,0.0054977829568088055,-0.017867794260382652,-0.01435532234609127
1761333871367605800,4.507605712890625,-0.003665188793092966,-0.012980876490473747,-0.01802051067352295
1761333871386306000,4.52630615234375,-0.0054977829568088055,0.012675444595515728,-0.0009162971982732415
1761333871405006000,4.545006103515625,-0.006719512399286032,0.025503603741526604,0.04062250629067421
1761333871423706400,4.563706298828125,-0.017104214057326317,0.011453714221715927,0.054672397673130035
1761333871442406400,4.582406494140625,-0.023212861269712448,0.014508038759231567,0.0308486707508564
1761333871461106700,4.601106689453125,-0.025045456364750862,0.021227551624178886,0.012522728182375431
1761333871479806700,4.619806640625,-0.02626718580722809,0.025503603741526604,0.019242240116000175
1761333871498507000,4.638507080078125,-0.021380268037319183,0.03588830679655075,0.016187917441129684
1761333871517207000,4.65720703125,-0.015271619893610477,0.030390523374080658,0.0027488914784044027
1761333871535907300,4.6759072265625,-0.0054977829568088055,-0.009926552884280682,-0.007024944759905338
1761333871554607400,4.694607421875,0.01282816007733345,-0.01359174121171236,-0.006414080038666725
1761333871573307600,4.7133076171875,0.01649334840476513,-0.010537417605519295,0.011911863461136818
1761333871592007700,4.732007568359375,0.000610864779446274,0.009621120058000088,0.044898562133312225
1761333871610707700,4.750707763671875,-0.018325943499803543,0.03894263133406639,0.07910698652267456
1761333871629408000,4.769407958984375,-0.020158538594841957,0.0334448479115963,0.07116574794054031
1761333871648108000,4.78810791015625,-0.017715077847242355,-0.03130681812763214,0.021685699000954628
1761333871666808300,4.806808349609375,-0.01282816007733345,-0.07101303339004517,-0.021685699000954628
1761333871685508400,4.82550830078125,-0.01893680728971958,-0.022754713892936707,-0.013133592903614044
1761333871704208400,4.84420849609375,-0.031154103577136993,0.012675444595515728,0.044898562133312225
1761333871722908700,4.86290869140625,-0.036651886999607086,0.016340631991624832,0.09498947113752365
1761333871741608700,4.881608642578125,-0.03543015569448471,0.001679878099821508,0.0772743970155716
1761333871760309000,4.90030908203125,-0.0409279391169548,0.00045814859913662076,0.032070402055978775
1761333871779009000,4.919009033203125,-0.040317077189683914,-0.022754713892936707,0.0027488914784044027
1761333871797709300,4.937709228515625,-0.03909534588456154,-0.005039634648710489,0.003970621153712273
1761333871816409300,4.956409423828125,-0.03909534588456154,0.022449281066656113,0.018631376326084137
1761333871835109400,4.975109375,-0.03481929376721382,0.012675444595515728,0.02107483521103859
1761333871853809700,4.9938095703125,-0.020769402384757996,-0.0007635809597559273,0.015577051788568497
1761333871872509700,5.012509765625,-0.013439024798572063,-0.006872228812426329,0.015577051788568497
1761333871891210000,5.0312099609375,-0.021991131827235222,0.007788525894284248,0.010690134018659592
1761333871909910000,5.049909912109375,-0.031154103577136993,0.018173227086663246,-0.006414080038666725
1761333871928610300,5.0686103515625,-0.034208428114652634,-0.008704823441803455,-0.02107483521103859
1761333871947310300,5.087310302734375,-0.0360410213470459,-0.023365577682852745,-0.01802051067352295
1761333871966010600,5.1060107421875,-0.040317077189683914,-0.009315688163042068,-0.022296564653515816
1761333871984710700,5.124710693359375,-0.047036588191986084,-0.005650499369949102,-0.02718348242342472
1761333872003411000,5.143410888671875,-0.04520399495959282,-0.014813470654189587,-0.02779434807598591
1761333872022111000,5.162111083984375,-0.03298669680953026,-0.027030766010284424,-0.03940077871084213
1761333872040811300,5.180811279296875,-0.020158538594841957,-0.03252854943275452,-0.04734202101826668
1761333872059511300,5.19951123046875,-0.01954767294228077,-0.03558287397027016,-0.03695731982588768
1761333872078211600,5.218211669921875,-0.007941242307424545,-0.028863361105322838,-0.022296564653515816
1761333872096911600,5.23691162109375,-0.003665188793092966,-0.016646064817905426,-0.0027488914784044027
1761333872115611600,5.255611572265625,-0.001832594396546483,-0.01847865991294384,0.016798781231045723
1761333872134312000,5.27431201171875,-0.0054977829568088055,-0.01908952370285988,0.02412915788590908
1761333872153012200,5.29301220703125,-0.009162971749901772,-0.03130681812763214,0.003359756199643016
1761333872171712300,5.311712158203125,-0.014660755172371864,-0.03802633285522461,-0.03329212963581085
1761333872190412300,5.330412353515625,-0.01588248461484909,-0.009315688163042068,-0.04306596517562866
1761333872209112600,5.349112548828125,-0.01588248461484909,0.004734201822429895,-0.023518294095993042
1761333872227812600,5.3678125,-0.014660755172371864,0.02000582218170166,-0.0009162971982732415
1761333872246513000,5.386512939453125,-0.010384701192378998,0.009010255336761475,-0.012522728182375431
1761333872265213000,5.405212890625,0.006108647678047419,-0.009315688163042068,-0.04245510324835777
1761333872283913000,5.423912841796875,0.017104214057326317,-0.012370011769235134,-0.047952886670827866
1761333872302613200,5.44261328125,0.012217295356094837,-0.012370011769235134,-0.032070402055978775
1761333872321313300,5.461313232421875,0.011606430634856224,-0.0013744457392022014,-0.010079269297420979
1761333872340013600,5.480013671875,0.006108647678047419,0.008399390615522861,-0.007635809946805239
1761333872358713600,5.498713623046875,0.006719512399286032,-0.0007635809597559273,-0.012522728182375431
1761333872377414000,5.517413818359375,0.012217295356094837,-0.0032070400193333626,-0.011911863461136818
1761333872396114000,5.536114013671875,0.017715077847242355,0.014508038759231567,-0.008246674202382565
1761333872414814200,5.554814208984375,0.014049889519810677,0.02000582218170166,-0.016798781231045723
1761333872433514200,5.57351416015625,0.007330377586185932,-0.02764163166284561,-0.035124726593494415
1761333872452214300,5.59221435546875,0.018325943499803543,-0.0539088174700737,-0.06383536756038666
1761333872470914600,5.61091455078125,0.02871064469218254,-0.02153298258781433,-0.05283980444073677
1761333872489614600,5.629614501953125,0.024434590712189674,0.009621120058000088,0.0009162971982732415
1761333872508315000,5.64831494140625,0.025045456364750862,0.017562363296747208,0.029016077518463135
1761333872527015000,5.667014892578125,0.02932151034474373,0.005345067009329796,0.011300998739898205
1761333872545715200,5.685715087890625,0.037262752652168274,0.01206457894295454,-0.011911863461136818
1761333872564415200,5.704415283203125,0.03848448023200035,0.004123337101191282,-0.01740964688360691
1761333872583115500,5.723115478515625,0.033597562462091446,-0.017867794260382652,-0.011911863461136818
1761333872601815600,5.741815673828125,0.03237583488225937,0.00045814859913662076,-0.010690134018659592
1761333872620515800,5.760515869140625,0.0256563201546669,0.03527744114398956,0.0015271619195118546
1761333872639215900,5.7792158203125,0.01954767294228077,0.027947064489126205,0.022296564653515816
1761333872657916200,5.797916259765625,0.024434590712189674,0.004123337101191282,0.021685699000954628
1761333872676616200,5.8166162109375,0.02932151034474373,0.005345067009329796,-0.006414080038666725
1761333872695316500,5.83531640625,0.02260199747979641,0.010842849500477314,-0.018631376326084137
1761333872714016500,5.8540166015625,0.011606430634856224,0.025503603741526604,-0.000305432389723137
1761333872732716800,5.872716796875,0.010995565913617611,0.02916879393160343,0.023518294095993042
1761333872751416800,5.891416748046875,0.006719512399286032,0.002901607658714056,0.01740964688360691
1761333872770117000,5.9101171875,-0.004886918235570192,-0.0007635809597559273,-0.013133592903614044
1761333872788817200,5.928817138671875,-0.007330377586185932,0.008399390615522861,-0.0204639695584774
1761333872807517400,5.947517333984375,-0.011606430634856224,0.012675444595515728,-0.0015271619195118546
1761333872826217500,5.966217529296875,-0.01588248461484909,-0.0025961752980947495,0.013744457624852657
1761333872844917500,5.98491748046875,-0.014660755172371864,0.005955931730568409,0.016187917441129684
1761333872863617800,6.00361767578125,-0.007330377586185932,-0.0001527161948615685,0.007635809946805239
1761333872882317800,6.02231787109375,-0.0030543238390237093,0.013286309316754341,-0.0015271619195118546
1761333872901018000,6.04101806640625,-0.012217295356094837,0.0010690133785828948,-0.00946840364485979
1761333872919718100,6.05971826171875,-0.012217295356094837,-0.011759147047996521,-0.01740964688360691
1761333872938418400,6.07841845703125,-0.0054977829568088055,-0.014202605932950974,-0.025350889191031456
1761333872957118500,6.097118408203125,-0.007330377586185932,-0.012980876490473747,-0.026572618633508682
1761333872975818800,6.11581884765625,-0.007941242307424545,-0.011759147047996521,-0.013133592903614044
1761333872994518800,6.134518798828125,-0.01588248461484909,-0.007483093533664942,-0.005803215317428112
1761333873013219000,6.153218994140625,-0.017715077847242355,-0.007483093533664942,-0.02107483521103859
1761333873031919000,6.171919189453125,-0.021991131827235222,-0.008704823441803455,-0.03451386094093323
1761333873050619400,6.190619384765625,-0.0256563201546669,-0.0038179049734026194,-0.048563748598098755
1761333873069319400,6.2093193359375,-0.021991131827235222,-0.0013744457392022014,-0.05345066636800766
1761333873088019700,6.228019775390625,-0.006719512399286032,0.011453714221715927,-0.029016077518463135
1761333873106719700,6.2467197265625,-0.004886918235570192,0.010842849500477314,0.010690134018659592
1761333873125420000,6.265419921875,0.003665188793092966,0.021227551624178886,0.03756818547844887
1761333873144120000,6.2841201171875,-0.015271619893610477,0.0010690133785828948,0.048563748598098755
1761333873162820400,6.3028203125,-0.010995565913617611,0.027336198836565018,0.051618073135614395
1761333873181520400,6.321520263671875,-0.020158538594841957,0.016340631991624832,0.03817904740571976
1761333873200220700,6.340220703125,-0.03176496922969818,-0.014202605932950974,0.007635809946805239
1761333873218920700,6.358920654296875,-0.020158538594841957,-0.04046979174017906,-0.016187917441129684
1761333873237620700,6.377620849609375,-0.01588248461484909,-0.02153298258781433,-0.0021380267571657896
1761333873256321000,6.396321044921875,-0.017104214057326317,0.0206166859716177,0.035124726593494415
1761333873275021000,6.41502099609375,-0.013439024798572063,0.013897174037992954,0.04306596517562866
1761333873293721300,6.433721435546875,-0.006108647678047419,-0.009315688163042068,0.00946840364485979
1761333873312421400,6.45242138671875,-0.01282816007733345,-0.011759147047996521,-0.032070402055978775
1761333873331121700,6.47112158203125,-0.014660755172371864,-0.005650499369949102,-0.05283980444073677
1761333873349821700,6.48982177734375,-0.01649334840476513,-0.016646064817905426,-0.04734202101826668
1761333873368522000,6.50852197265625,-0.01954767294228077,-0.0032070400193333626,-0.03023780696094036
1761333873387222000,6.527221923828125,-0.015271619893610477,0.013897174037992954,-0.0009162971982732415
1761333873405922300,6.54592236328125,-0.004886918235570192,0.0010690133785828948,0.016798781231045723
1761333873424622300,6.564622314453125,0.007330377586185932,-0.009315688163042068,0.012522728182375431
1761333873443322600,6.583322509765625,0.015271619893610477,-0.0062613640911877155,0.0021380267571657896
1761333873462022700,6.602022705078125,0.023212861269712448,-0.0038179049734026194,-0.003359756199643016
1761333873480723000,6.620722900390625,0.0256563201546669,0.004123337101191282,-0.008246674202382565
1761333873499423000,6.639423095703125,0.024434590712189674,0.002901607658714056,-0.015577051788568497
1761333873518123300,6.658123291015625,0.02260199747979641,-0.0001527161948615685,-0.02412915788590908
1761333873536823300,6.6768232421875,0.017104214057326317,0.006566796451807022,-0.018631376326084137
1761333873555523600,6.695523681640625,0.017715077847242355,0.002901607658714056,-0.003970621153712273
1761333873574223600,6.7142236328125,0.017715077847242355,-0.0025961752980947495,0.005192350596189499
1761333873592923600,6.732923583984375,0.01954767294228077,0.013897174037992954,0.007024944759905338
1761333873611624000,6.7516240234375,0.023823726922273636,0.013286309316754341,0.016187917441129684
1761333873630324000,6.770323974609375,0.034208428114652634,0.004734201822429895,0.016798781231045723
1761333873649024300,6.789024169921875,0.03237583488225937,-0.005039634648710489,0.011300998739898205
1761333873667724300,6.807724365234375,0.028099779039621353,0.009621120058000088,0.010690134018659592
1761333873686424600,6.826424560546875,0.024434590712189674,0.004123337101191282,-0.0021380267571657896
1761333873705124600,6.84512451171875,0.0256563201546669,0.00045814859913662076,-0.012522728182375431
1761333873723825000,6.863824951171875,0.01893680728971958,0.011453714221715927,-0.005803215317428112
1761333873742525000,6.88252490234375,0.011606430634856224,0.01206457894295454,0.008246674202382565
1761333873761225200,6.90122509765625,0.004886918235570192,0.0010690133785828948,0.012522728182375431
1761333873779925500,6.919925537109375,0.002443459117785096,0.017562363296747208,0.012522728182375431
1761333873798625500,6.93862548828125,0.001221729558892548,0.012675444595515728,0.013133592903614044
1761333873817325800,6.957325927734375,0.0054977829568088055,0.004734201822429895,0.014966187067329884
1761333873836025900,6.97602587890625,0.001221729558892548,-0.01359174121171236,0.003970621153712273
1761333873854726100,6.99472607421875,-0.009162971749901772,-0.008093958720564842,-0.013744457624852657
1761333873873426200,7.01342626953125,-0.004886918235570192,0.011453714221715927,-0.00946840364485979
1761333873892126500,7.03212646484375,-0.01893680728971958,0.019394956529140472,0.007635809946805239
1761333873910826500,7.050826416015625,-0.030543239787220955,-0.0019853105768561363,0.000305432389723137
1761333873929526800,7.06952685546875,-0.018325943499803543,-0.042913250625133514,-0.035124726593494415
1761333873948226800,7.088226806640625,0.001221729558892548,-0.03741546720266342,-0.035735588520765305
1761333873966927000,7.106927001953125,0.003665188793092966,0.0010690133785828948,0.01435532234609127
1761333873985627100,7.125627197265625,-0.004886918235570192,0.018173227086663246,0.051618073135614395
1761333874004327400,7.144327392578125,0.001832594396546483,0.018784092739224434,0.04550942778587341
1761333874023027500,7.16302734375,0.004886918235570192,-0.004428769461810589,0.006414080038666725
1761333874041727700,7.181727783203125,-0.002443459117785096,-0.012370011769235134,-0.02779434807598591
1761333874060427800,7.200427734375,-0.006719512399286032,-0.01359174121171236,-0.032681263983249664
1761333874079128000,7.219128173828125,-0.007330377586185932,-0.0001527161948615685,-0.005192350596189499
1761333874097828000,7.237828125,-0.007941242307424545,0.005345067009329796,0.01740964688360691
1761333874116528000,7.256528076171875,-0.009773836471140385,0.002901607658714056,0.024740023538470268
1761333874135228400,7.275228515625,-0.0054977829568088055,-0.026419902220368385,0.007635809946805239
1761333874153928400,7.293928466796875,0.003665188793092966,-0.009315688163042068,0.0015271619195118546
1761333874172628700,7.312628662109375,0.006719512399286032,-0.016035201027989388,0.005192350596189499
1761333874191328800,7.331328857421875,0.006719512399286032,0.006566796451807022,0.018631376326084137
1761333874210029000,7.350029052734375,0.009162971749901772,0.0010690133785828948,0.021685699000954628
1761333874228729000,7.36872900390625,0.006719512399286032,0.004123337101191282,0.01802051067352295
1761333874247429400,7.387429443359375,0.0030543238390237093,-0.009315688163042068,-0.003970621153712273
1761333874266129400,7.40612939453125,-0.000610864779446274,-0.016035201027989388,-0.022907428443431854
1761333874284829700,7.42482958984375,-0.002443459117785096,-0.004428769461810589,-0.005192350596189499
1761333874303529700,7.44352978515625,-0.008552107028663158,0.008399390615522861,0.03023780696094036
1761333874322230000,7.46222998046875,-0.006108647678047419,0.01206457894295454,0.041844237595796585
1761333874340930300,7.480930419921875,0.000610864779446274,-0.0038179049734026194,0.032070402055978775
1761333874359630300,7.49963037109375,0.0054977829568088055,-0.011759147047996521,0.023518294095993042
1761333874378330600,7.51833056640625,0.008552107028663158,0.008399390615522861,0.02779434807598591
1761333874397030700,7.53703076171875,0.008552107028663158,0.0010690133785828948,0.02718348242342472
1761333874415731000,7.55573095703125,0.007941242307424545,-0.0019853105768561363,0.014966187067329884
1761333874434431000,7.574430908203125,0.003665188793092966,0.004123337101191282,-0.0009162971982732415
1761333874453131300,7.59313134765625,0.0030543238390237093,0.005345067009329796,-0.004581485874950886
1761333874471831300,7.611831298828125,0.001832594396546483,-0.0025961752980947495,0.0015271619195118546
1761333874490531600,7.630531494140625,-0.000610864779446274,0.00045814859913662076,0.00946840364485979
1761333874509231600,7.649231689453125,0,0.019394956529140472,0.014966187067329884
1761333874527932000,7.667931884765625,-0.003665188793092966,0.007177661173045635,0.02107483521103859
1761333874546632000,7.6866318359375,0.006108647678047419,-0.0062613640911877155,0.01802051067352295
1761333874565332200,7.705332275390625,0.013439024798572063,0.007788525894284248,0.016187917441129684
1761333874584032300,7.7240322265625,0.003665188793092966,0.014508038759231567,0.011911863461136818
1761333874602732500,7.742732666015625,-0.008552107028663158,-0.012980876490473747,-0.005803215317428112
1761333874621432600,7.7614326171875,-0.001221729558892548,-0.04657844081521034,-0.028405211865901947
1761333874640132600,7.780132568359375,0.014049889519810677,-0.03375028073787689,-0.02107483521103859
1761333874658833000,7.7988330078125,0.010384701192378998,-0.0001527161948615685,0.028405211865901947
1761333874677533000,7.817532958984375,0.003665188793092966,-0.004428769461810589,0.08399390429258347
1761333874696233200,7.836233154296875,-0.010384701192378998,0.034666575491428375,0.11881320178508759
1761333874714933500,7.85493359375,-0.017104214057326317,0.025503603741526604,0.09498947113752365
1761333874733633500,7.873633544921875,-0.015271619893610477,-0.004428769461810589,0.06017018109560013
1761333874752333800,7.892333740234375,-0.003665188793092966,-0.020311253145337105,0.032681263983249664
1761333874771033900,7.911033935546875,0.009162971749901772,-0.017256930470466614,0.003359756199643016
1761333874789734100,7.929734130859375,0.01588248461484909,-0.0025961752980947495,-0.0021380267571657896
1761333874808434200,7.94843408203125,0.017715077847242355,-0.0032070400193333626,0.005803215317428112
1761333874827134500,7.967134521484375,0.025045456364750862,-0.014813470654189587,-0.0015271619195118546
1761333874845834500,7.98583447265625,0.024434590712189674,-0.009315688163042068,-0.0015271619195118546
1761333874864534800,8.00453466796875,0.017104214057326317,-0.009926552884280682,0.013133592903614044
1761333874883234800,8.02323486328125,0.017104214057326317,0.00045814859913662076,0.025961752980947495
1761333874901935000,8.04193505859375,0.01282816007733345,-0.008704823441803455,0.0204639695584774
1761333874920635100,8.06063525390625,0.003665188793092966,-0.004428769461810589,0.01435532234609127
1761333874939335400,8.07933544921875,0.006108647678047419,-0.004428769461810589,0.012522728182375431
1761333874958035500,8.098035400390625,0.007941242307424545,-0.01847865991294384,0.007635809946805239
1761333874976735700,8.11673583984375,0.003665188793092966,-0.01359174121171236,0.0009162971982732415
1761333874995435800,8.135435791015626,0.0030543238390237093,-0.008704823441803455,0.0009162971982732415
1761333875014136000,8.154135986328125,0.001221729558892548,-0.0001527161948615685,0.006414080038666725
1761333875032836000,8.172836181640625,0.000610864779446274,-0.0019853105768561363,0.01435532234609127
1761333875051536400,8.191536376953126,-0.0030543238390237093,-0.006872228812426329,0.016187917441129684
1761333875070236400,8.210236328125,0.002443459117785096,0.00045814859913662076,0.00946840364485979
1761333875088936700,8.228936767578125,0.004276053514331579,-0.0019853105768561363,0.0009162971982732415
1761333875107637000,8.247636962890626,0.001221729558892548,-0.011759147047996521,-0.008246674202382565
1761333875126337000,8.2663369140625,0.004276053514331579,-0.005650499369949102,-0.01740964688360691
1761333875145037300,8.285037353515625,0.003665188793092966,0.011453714221715927,-0.004581485874950886
1761333875163737300,8.3037373046875,0.003665188793092966,-0.007483093533664942,0.0027488914784044027
1761333875182437600,8.322437744140625,0.009162971749901772,-0.02458730712532997,-0.01740964688360691
1761333875201137700,8.3411376953125,0.013439024798572063,-0.005039634648710489,-0.016798781231045723
1761333875219838000,8.359837890625,0.004276053514331579,0.010842849500477314,0.015577051788568497
1761333875238538000,8.3785380859375,0.008552107028663158,0.0102319847792387,0.029626941308379173
1761333875257238300,8.39723828125,0,0.02367101050913334,0.011911863461136818
1761333875275938300,8.415938232421874,-0.010995565913617611,-0.0001527161948615685,-0.02107483521103859
1761333875294638300,8.434638427734376,-0.010384701192378998,-0.04841103404760361,-0.05100720748305321
1761333875313338600,8.453338623046875,0.007330377586185932,-0.039248060435056686,-0.057726722210645676
1761333875332039000,8.472038818359374,0.017104214057326317,0.006566796451807022,-0.013744457624852657
1761333875350739000,8.490739013671876,0.009773836471140385,0.02000582218170166,0.04367683082818985
1761333875369439200,8.509439208984375,0.008552107028663158,0.013286309316754341,0.051618073135614395
1761333875388139300,8.52813916015625,0.01282816007733345,0.009010255336761475,0.021685699000954628
1761333875406839600,8.546839599609376,0.007330377586185932,0.016340631991624832,0.005803215317428112
1761333875425539600,8.56553955078125,0.0030543238390237093,0.007177661173045635,0.003970621153712273
1761333875444240000,8.584239990234375,0.004886918235570192,-0.005650499369949102,0.003359756199643016
1761333875462940000,8.60293994140625,0.009773836471140385,0.02611446939408779,0.022907428443431854
1761333875481640200,8.62164013671875,-0.001221729558892548,0.0206166859716177,0.029626941308379173
1761333875500340200,8.64034033203125,0.012217295356094837,-0.007483093533664942,0.022296564653515816
1761333875519040500,8.65904052734375,0.014660755172371864,-0.02458730712532997,-0.004581485874950886
1761333875537740500,8.677740478515625,0.025045456364750862,-0.012980876490473747,-0.02107483521103859
1761333875556440800,8.69644091796875,0.023212861269712448,-0.005650499369949102,-0.011300998739898205
1761333875575140900,8.715140869140624,0.010995565913617611,0.011453714221715927,0.01435532234609127
1761333875593841200,8.733841064453125,0.004886918235570192,0.009621120058000088,0.010690134018659592
1761333875612541400,8.75254150390625,0.007941242307424545,-0.010537417605519295,-0.0027488914784044027
1761333875631241500,8.771241455078124,0.002443459117785096,-0.026419902220368385,-0.00946840364485979
1761333875649941800,8.789941650390626,0,-0.0062613640911877155,-0.006414080038666725
1761333875668641800,8.808641845703125,0.001221729558892548,-0.0007635809597559273,0.011911863461136818
1761333875687342000,8.827342041015624,0.002443459117785096,-0.0032070400193333626,0.013133592903614044
1761333875706042000,8.8460419921875,-0.006108647678047419,0.005345067009329796,0.010690134018659592
1761333875724742400,8.864742431640625,-0.010384701192378998,0.01511890348047018,0.018631376326084137
1761333875743442400,8.8834423828125,-0.008552107028663158,0.002290742937475443,0.011300998739898205
1761333875762142700,8.902142822265626,-0.006108647678047419,-0.006872228812426329,-0.005192350596189499
1761333875780842800,8.9208427734375,-0.006108647678047419,-0.009926552884280682,-0.010079269297420979
1761333875799543000,8.93954296875,-0.006719512399286032,0.002901607658714056,0.000305432389723137
1761333875818243000,8.9582431640625,-0.001832594396546483,-0.0007635809597559273,0.00946840364485979
1761333875836943400,8.976943359375,0.007330377586185932,-0.011148282326757908,0.0015271619195118546
1761333875855643600,8.9956435546875,0.003665188793092966,-0.004428769461810589,-0.0009162971982732415
1761333875874343700,9.01434375,0.0030543238390237093,0.003512472379952669,0.006414080038666725
1761333875893044000,9.0330439453125,-0.001832594396546483,-0.005650499369949102,0.003359756199643016
1761333875911744000,9.051743896484375,0.001221729558892548,0.007177661173045635,0.008246674202382565
1761333875930444300,9.0704443359375,-0.003665188793092966,0.013286309316754341,0.0015271619195118546
1761333875949144300,9.089144287109375,-0.015271619893610477,-0.005650499369949102,-0.028405211865901947
1761333875967844600,9.1078447265625,-0.013439024798572063,-0.04230238497257233,-0.060781046748161316
1761333875986544600,9.126544677734374,-0.006719512399286032,-0.04230238497257233,-0.05283980444073677
1761333876005245000,9.145244873046876,0.009162971749901772,-0.02214384824037552,-0.008857538923621178
1761333876023945000,9.163945068359375,0.012217295356094837,0.02367101050913334,0.054672397673130035
1761333876042645200,9.182645263671875,0.007941242307424545,0.02306014485657215,0.0717766135931015
1761333876061345300,9.20134521484375,0.007330377586185932,-0.008704823441803455,0.03023780696094036
1761333876080045600,9.220045654296875,0.014049889519810677,-0.02153298258781433,-0.02412915788590908
1761333876098745600,9.23874560546875,0.006719512399286032,-0.025809036567807198,-0.04001164436340332
1761333876117446000,9.25744580078125,-0.001832594396546483,-0.016646064817905426,-0.0308486707508564
1761333876136146200,9.276146240234375,-0.001832594396546483,0.018173227086663246,-0.014966187067329884
1761333876154846200,9.29484619140625,-0.001221729558892548,-0.0007635809597559273,-0.003359756199643016
1761333876173546500,9.31354638671875,-0.001832594396546483,-0.01359174121171236,-0.004581485874950886
1761333876192246500,9.33224658203125,0.011606430634856224,-0.004428769461810589,-0.010690134018659592
1761333876210946800,9.35094677734375,0.017715077847242355,0.0102319847792387,0.005803215317428112
1761333876229646800,9.369646728515624,0.0256563201546669,0.013286309316754341,0.010690134018659592
1761333876248347100,9.38834716796875,0.01954767294228077,0.003512472379952669,0.000305432389723137
1761333876267047200,9.407047119140625,0.01954767294228077,0.009010255336761475,-0.014966187067329884
1761333876285747200,9.425747314453124,0.021991131827235222,-0.004428769461810589,-0.024740023538470268
1761333876304447500,9.444447509765626,0.014660755172371864,-0.0154243353754282,-0.028405211865901947
1761333876323147800,9.463147705078125,0.010995565913617611,0.01206457894295454,-0.01740964688360691
1761333876341848000,9.48184814453125,0.017715077847242355,0.021227551624178886,-0.003970621153712273
1761333876360548000,9.500548095703126,0.01649334840476513,-0.0025961752980947495,0.0021380267571657896
1761333876379248000,9.519248046875,0.009162971749901772,0.002290742937475443,0.000305432389723137
1761333876397948400,9.537948486328125,0.0030543238390237093,0.02306014485657215,-0.000305432389723137
1761333876416648400,9.5566484375,-0.000610864779446274,0.004123337101191282,0.0009162971982732415
1761333876435348700,9.5753486328125,0.000610864779446274,0.015729768201708794,-0.007635809946805239
1761333876454048800,9.594048828125,0.004276053514331579,0.012675444595515728,-0.01435532234609127
1761333876472749000,9.6127490234375,0.009162971749901772,-0.0032070400193333626,-0.01802051067352295
1761333876491449300,9.631449462890625,0.015271619893610477,-0.012370011769235134,-0.03329212963581085
1761333876510149400,9.6501494140625,0.008552107028663158,-0.017867794260382652,-0.03145953640341759
1761333876528849700,9.668849609375,-0.001221729558892548,0.010842849500477314,-0.011300998739898205
1761333876547549700,9.6875498046875,0,0.02306014485657215,0.010690134018659592
1761333876566250000,9.70625,0.001221729558892548,0.005955931730568409,0.015577051788568497
1761333876584950000,9.724949951171874,0.010384701192378998,0.0010690133785828948,0.01802051067352295
1761333876603650300,9.743650390625,0.014660755172371864,0.037720900028944016,0.047952886670827866
1761333876622350300,9.762350341796875,0.004886918235570192,0.013286309316754341,0.04245510324835777
1761333876641050600,9.781050537109374,0.002443459117785096,-0.03741546720266342,-0.01435532234609127
1761333876659750700,9.799750732421876,0.018325943499803543,-0.03375028073787689,-0.04917461425065994
1761333876678451000,9.818450927734375,0.01649334840476513,-0.0007635809597559273,0.006414080038666725
1761333876697151200,9.837151123046874,0.006719512399286032,0.0206166859716177,0.06017018109560013
1761333876715851300,9.855851318359376,-0.002443459117785096,0.02611446939408779,0.04550942778587341
1761333876734551600,9.874551513671875,-0.006719512399286032,0.012675444595515728,0.005803215317428112
1761333876753251600,9.89325146484375,-0.012217295356094837,0.00045814859913662076,-0.012522728182375431
1761333876771951900,9.911951904296876,-0.007330377586185932,-0.006872228812426329,-0.03023780696094036
1761333876790652000,9.93065185546875,-0.003665188793092966,-0.006872228812426329,-0.0204639695584774
1761333876809352200,9.949352294921875,-0.001832594396546483,0.015729768201708794,0.012522728182375431
1761333876828052200,9.96805224609375,-0.001832594396546483,-0.0154243353754282,0.0015271619195118546
1761333876846752500,9.98675244140625,0.0030543238390237093,-0.012980876490473747,-0.016798781231045723
1761333876865452500,10.00545263671875,0.03298669680953026,0.007788525894284248,-0.04550942778587341
1761333876884152800,10.02415283203125,0.02871064469218254,0.001679878099821508,-0.038789913058280945
1761333876902879500,10.04287939453125,0.02260199747979641,0.0010690133785828948,-0.010079269297420979
1761333876921553200,10.06155322265625,0.012217295356094837,0.022449281066656113,0.04550942778587341
