time,seconds_elapsed,z,y,x
1761333866926323000,0.066322998046875,0.006719512399286032,0.04276053607463837,0.11423171311616898
1761333866945023000,0.08502294921875,0.06597339361906052,0.050090912729501724,0.002443459117785096
1761333866963723300,0.10372314453125,0.1380554437637329,-0.001221729558892548,-0.06841685622930527
1761333866982423300,0.12242333984375,0.1844811588525772,-0.08674279600381851,-0.08002328872680664
1761333867001123600,0.14112353515625,0.20830489695072174,-0.04520399495959282,-0.06780599057674408
1761333867019823600,0.15982373046875,0.2156352698802948,-0.010384701192378998,-0.08368847519159317
1761333867038523600,0.178523681640625,0.1844811588525772,-0.020769402384757996,-0.09957095980644226
1761333867057224000,0.197223876953125,0.14049890637397766,-0.000610864779446274,-0.09896009415388107
1761333867075924000,0.215924072265625,0.09712749719619751,0.0054977829568088055,-0.10079269111156464
1761333867094624300,0.234624267578125,0.056199558079242706,0.05925388261675835,-0.07086031138896942
1761333867113324300,0.25332421875,0.03848448023200035,0.12705987691879272,-0.017715077847242355
1761333867132024300,0.2720244140625,0.03848448023200035,0.0824667438864708,-0.024434590712189674
1761333867150724600,0.290724609375,0.04764745384454727,-0.006108647678047419,-0.10629047453403473
1761333867169424600,0.309424560546875,0.05925388261675835,0.04276053607463837,-0.17226386070251465
1761333867188125000,0.328125,0.0513126403093338,0.08491020649671555,-0.19425499439239502
1761333867206825000,0.346824951171875,0.050090912729501724,0.07330377399921417,-0.1692095398902893
1761333867225525200,0.365525146484375,0.04276053607463837,0.10079269111156464,-0.11667517572641373
1761333867244225000,0.38422509765625,0.05253437161445618,0.10934479534626007,-0.10018182545900345
1761333867262925300,0.40292529296875,0.05253437161445618,0.0977383628487587,-0.11239911615848541
1761333867281625600,0.42162548828125,0.05436696484684944,0.1337793916463852,-0.1282816082239151
1761333867300325600,0.44032568359375,0.034208428114652634,0.1081230640411377,-0.14233149588108063
1761333867319025700,0.459025634765625,0.014660755172371864,0.0922405794262886,-0.1539379209280014
1761333867337726000,0.477725830078125,-0.000610864779446274,0.1337793916463852,-0.16065743565559387
1761333867356426000,0.496426025390625,-0.020769402384757996,0.13988803327083588,-0.17226386070251465
1761333867375126300,0.515126220703125,-0.023823726922273636,0.18264856934547424,-0.17043127119541168
1761333867393826300,0.533826416015625,-0.06108647957444191,0.15699224174022675,-0.12095122784376144
1761333867412526600,0.552526611328125,-0.04214967042207718,0.21868959069252014,-0.053145237267017365
1761333867431226600,0.5712265625,-0.009162971749901772,0.2822195291519165,-0.01282816007733345
1761333867449926700,0.5899267578125,0.01893680728971958,0.34208428859710693,-0.001832594396546483
1761333867468627000,0.608626953125,0.043982263654470444,0.36835145950317383,-0.036651886999607086
1761333867487327000,0.627326904296875,0.07024945318698883,0.27488914132118225,-0.07513637095689774
1761333867506027000,0.646027099609375,0.10445787757635117,0.1337793916463852,-0.09468404203653336
1761333867524727300,0.664727294921875,0.13988803327083588,0.08063415437936783,-0.07757982611656189
1761333867543427300,0.68342724609375,0.1637117564678192,0.10018182545900345,-0.06902772188186646
1761333867562127600,0.702127685546875,0.16310089826583862,0.16615521907806396,-0.07330377399921417
1761333867580827600,0.72082763671875,0.1496618688106537,0.17653992772102356,-0.0824667438864708
1761333867599528000,0.73952783203125,0.14782927930355072,0.11484257876873016,-0.0873536616563797
1761333867618228000,0.75822802734375,0.13622283935546875,0.11423171311616898,-0.10873392969369888
1761333867636928000,0.776927978515625,0.1331685185432434,0.17043127119541168,-0.12767073512077332
1761333867655628300,0.795628173828125,0.143553227186203,0.2003636509180069,-0.12461641430854797
1761333867674328300,0.814328369140625,0.15699224174022675,0.17104214429855347,-0.11056652665138245
1761333867693028400,0.8330283203125,0.18264856934547424,0.15027274191379547,-0.0824667438864708
1761333867711728600,0.851728759765625,0.18692462146282196,0.17898337543010712,-0.024434590712189674
1761333867730428700,0.8704287109375,0.17226386070251465,0.21258094906806946,0.04153880476951599
1761333867749129000,0.88912890625,0.15027274191379547,0.22235478460788727,0.05803215503692627
1761333867767829000,0.9078291015625,0.1386663019657135,0.17898337543010712,0.020769402384757996
1761333867786529300,0.926529296875,0.143553227186203,0.11362084746360779,-0.0256563201546669
1761333867805229300,0.945229248046875,0.14110976457595825,0.13133592903614044,-0.03481929376721382
1761333867823929300,0.963929443359375,0.12767073512077332,0.1594357043504715,-0.004886918235570192
1761333867842629400,0.98262939453125,0.13072505593299866,0.1130099818110466,0.04153880476951599
1761333867861329700,1.00132958984375,0.12644900381565094,0.10323614627122879,0.09834922850131989
1761333867880029700,1.02002978515625,0.12950333952903748,0.17104214429855347,0.12156209349632263
1761333867898730000,1.03872998046875,0.14172062277793884,0.1905898153781891,0.13744457066059113
1761333867917430000,1.057429931640625,0.16737695038318634,0.06902772188186646,0.14110976457595825
1761333867936130300,1.07613037109375,0.16187916696071625,-0.08491020649671555,0.11484257876873016
1761333867954830300,1.094830322265625,0.15027274191379547,-0.1747073233127594,0.020769402384757996
1761333867973530600,1.113530517578125,0.13744457066059113,-0.24984370172023773,-0.10995566099882126
1761333867992230700,1.132230712890625,0.09162971377372742,-0.30482152104377747,-0.1954767256975174
1761333868010930700,1.1509306640625,0.001221729558892548,-0.3127627670764923,-0.21807873249053955
1761333868029631000,1.169630859375,-0.08491020649671555,-0.1637117564678192,-0.18631376326084137
1761333868048331000,1.1883310546875,-0.13500112295150757,0.043982263654470444,-0.08124501258134842
1761333868067031300,1.20703125,-0.1484401375055313,0.11362084746360779,0.06536252796649933
1761333868085731300,1.2257314453125,-0.12522727251052856,0.020158538594841957,0.17348559200763702
1761333868104431400,1.244431396484375,-0.08429934084415436,-0.10323614627122879,0.21258094906806946
1761333868123131600,1.263131591796875,-0.04886918142437935,-0.17898337543010712,0.21991132199764252
1761333868141831700,1.281831787109375,-0.059864748269319534,-0.21319180727005005,0.21685700118541718
1761333868160532000,1.300531982421875,-0.12461641430854797,-0.23884813487529755,0.19792018830776215
1761333868179232000,1.31923193359375,-0.21135921776294708,-0.2211330533027649,0.16310089826583862
1761333868197932000,1.33793212890625,-0.2663370370864868,-0.24434591829776764,0.11239911615848541
1761333868216632300,1.35663232421875,-0.30543237924575806,-0.2614501118659973,0.0665842592716217
1761333868235332400,1.375332275390625,-0.3384190797805786,-0.185092031955719,0.0360410213470459
1761333868254032600,1.39403271484375,-0.3756818473339081,-0.14294235408306122,0.0360410213470459
1761333868272732700,1.412732666015625,-0.39217519760131836,-0.1178968995809555,0.024434590712189674
1761333868291433000,1.431432861328125,-0.4062250852584839,-0.17043127119541168,0.003665188793092966
1761333868310133000,1.450133056640625,-0.35613417625427246,-0.23457208275794983,0.006108647678047419
1761333868328833000,1.4688330078125,-0.30604326725006104,-0.24923282861709595,0.05436696484684944
1761333868347533300,1.487533203125,-0.28038692474365234,-0.23457208275794983,0.10140355676412582
1761333868366233300,1.5062333984375,-0.24923282861709595,-0.23029601573944092,0.13194678723812103
1761333868384933400,1.524933349609375,-0.21197007596492767,-0.22968515753746033,0.18692462146282196
1761333868403633700,1.543633544921875,-0.20219624042510986,-0.20402882993221283,0.2577849328517914
1761333868422333700,1.562333740234375,-0.23273947834968567,-0.11056652665138245,0.2968802750110626
1761333868441034000,1.581033935546875,-0.24312418699264526,-0.050090912729501724,0.2571740746498108
1761333868459734000,1.599734130859375,-0.2559523284435272,-0.08796452730894089,0.1588248461484909
1761333868478434300,1.618434326171875,-0.25350889563560486,-0.13988803327083588,0.050090912729501724
1761333868497134300,1.63713427734375,-0.2516762912273407,-0.23335035145282745,-0.04459312930703163
1761333868515834400,1.65583447265625,-0.2889390289783478,-0.2864955961704254,-0.08552107214927673
1761333868534534700,1.67453466796875,-0.27855435013771057,-0.24984370172023773,-0.059864748269319534
1761333868553234700,1.693234619140625,-0.25473061203956604,-0.17776164412498474,0.026878049597144127
1761333868571935000,1.71193505859375,-0.26389357447624207,-0.12156209349632263,0.13744457066059113
1761333868590635000,1.730635009765625,-0.268169641494751,-0.1081230640411377,0.19425499439239502
1761333868609335000,1.7493349609375,-0.27366742491722107,-0.06780599057674408,0.20219624042510986
1761333868628035300,1.768035400390625,-0.27366742491722107,-0.06841685622930527,0.15210533142089844
1761333868646735400,1.7867353515625,-0.24984370172023773,-0.053145237267017365,0.08857539296150208
1761333868665435600,1.805435546875,-0.20158538222312927,-0.05925388261675835,0.006108647678047419
1761333868684135700,1.8241357421875,-0.12034036219120026,-0.1282816082239151,-0.08613193035125732
1761333868702836000,1.8428359375,-0.025045456364750862,-0.20219624042510986,-0.21197007596492767
1761333868721536000,1.861535888671875,0.0409279391169548,-0.2620609998703003,-0.347582072019577
1761333868740236000,1.880236083984375,0.0409279391169548,-0.2834412455558777,-0.38728827238082886
1761333868758936300,1.898936279296875,0.006719512399286032,-0.16187916696071625,-0.26389357447624207
1761333868777636400,1.91763623046875,-0.025045456364750862,0.036651886999607086,-0.026878049597144127
1761333868796336400,1.93633642578125,0.0256563201546669,0.14294235408306122,0.20647229254245758
1761333868815036700,1.95503662109375,0.1331685185432434,0.1178968995809555,0.3585776388645172
1761333868833736700,1.97373681640625,0.22479823231697083,0.03298669680953026,0.38667741417884827
1761333868852437000,1.99243701171875,0.2467893660068512,-0.001832594396546483,0.30054548382759094
1761333868871137000,2.011136962890625,0.20280711352825165,0.0360410213470459,0.14172062277793884
1761333868889837300,2.02983740234375,0.16004657745361328,0.06719512492418289,-0.04581485688686371
1761333868908537300,2.048537353515625,0.16798780858516693,0.04886918142437935,-0.20647229254245758
1761333868927237400,2.0672373046875,0.2156352698802948,-0.018325943499803543,-0.2864955961704254
1761333868945937700,2.085937744140625,0.2614501118659973,-0.03298669680953026,-0.27488914132118225
1761333868964637700,2.1046376953125,0.2993237376213074,0.07880155742168427,-0.14110976457595825
1761333868983337700,2.123337646484375,0.3481929302215576,0.19364413619041443,0.050090912729501724
1761333869002038000,2.1420380859375,0.4214966893196106,0.24862197041511536,0.17592905461788177
1761333869020738000,2.160738037109375,0.5180133581161499,0.1899789422750473,0.2156352698802948
1761333869039438300,2.179438232421875,0.5937605500221252,0.04886918142437935,0.2003636509180069
1761333869058138400,2.198138427734375,0.6200277805328369,0.010995565913617611,0.17226386070251465
1761333869076838700,2.216838623046875,0.5723803043365479,0.020158538594841957,0.12644900381565094
1761333869095538700,2.23553857421875,0.4764745235443115,0.0665842592716217,0.04581485688686371
1761333869114239000,2.254239013671875,0.3585776388645172,0.07330377399921417,-0.06352993845939636
1761333869132939000,2.27293896484375,0.22479823231697083,0.030543239787220955,-0.13988803327083588
1761333869151639000,2.29163916015625,0.10567960888147354,0.0665842592716217,-0.17348559200763702
1761333869170339300,2.31033935546875,0.023212861269712448,0.16737695038318634,-0.15149445831775665
1761333869189039400,2.329039306640625,-0.017715077847242355,0.19608759880065918,-0.08552107214927673
1761333869207739400,2.347739501953125,-0.021991131827235222,0.21197007596492767,-0.03298669680953026
1761333869226439700,2.366439697265625,0.013439024798572063,0.18142683804035187,-0.0409279391169548
1761333869245139700,2.3851396484375,0.04825831577181816,0.13439024984836578,-0.0720820426940918
1761333869263840000,2.403840087890625,0.05925388261675835,0.09651663154363632,-0.08552107214927673
1761333869282540000,2.4225400390625,0.047036588191986084,0.10079269111156464,-0.07574722915887833
1761333869301240000,2.441239990234375,0.024434590712189674,0.10873392969369888,-0.07635809481143951
1761333869319940400,2.4599404296875,0.007330377586185932,0.11362084746360779,-0.10140355676412582
1761333869338640600,2.478640625,0.007941242307424545,0.07147117704153061,-0.11728604137897491
1761333869357340700,2.497340576171875,0.04520399495959282,0.021991131827235222,-0.06414080411195755
1761333869376040700,2.516040771484375,0.05864302068948746,0.008552107028663158,0.0616973415017128
1761333869394741000,2.534740966796875,0.03481929376721382,0.046425722539424896,0.15821397304534912
1761333869413441000,2.55344091796875,-0.01649334840476513,0.050090912729501724,0.1288924664258957
1761333869432141000,2.57214111328125,-0.043982263654470444,-0.011606430634856224,0.046425722539424896
1761333869450841300,2.59084130859375,-0.02871064469218254,-0.03787361457943916,-0.000610864779446274
1761333869469541400,2.609541259765625,-0.007330377586185932,-0.000610864779446274,0.034208428114652634
1761333869488241700,2.62824169921875,-0.011606430634856224,0.007941242307424545,0.0873536616563797
1761333869506941700,2.646941650390625,-0.05070177838206291,-0.007330377586185932,0.1337793916463852
1761333869525642000,2.66564208984375,-0.07757982611656189,-0.08674279600381851,0.13194678723812103
1761333869544342000,2.684342041015625,-0.09896009415388107,-0.13988803327083588,0.09040798991918564
1761333869563042300,2.703042236328125,-0.12461641430854797,-0.10934479534626007,0.03237583488225937
1761333869581742300,2.721742431640625,-0.16554436087608337,-0.11972949653863907,-0.02932151034474373
1761333869600442400,2.7404423828125,-0.21258094906806946,-0.15577052533626556,-0.06780599057674408
1761333869619142700,2.759142578125,-0.2565632164478302,-0.08124501258134842,-0.0873536616563797
1761333869637842700,2.7778427734375,-0.2461785078048706,-0.027488915249705315,-0.1185077652335167
1761333869656542700,2.796542724609375,-0.23396120965480804,-0.056810423731803894,-0.1337793916463852
1761333869675243000,2.815242919921875,-0.23335035145282745,-0.09040798991918564,-0.10751219838857651
1761333869693943000,2.833943115234375,-0.21258094906806946,-0.059864748269319534,-0.04214967042207718
1761333869712643300,2.852643310546875,-0.205861434340477,-0.04214967042207718,0.010384701192378998
1761333869731343400,2.87134326171875,-0.17837251722812653,-0.08979712426662445,0.018325943499803543
1761333869750043600,2.890043701171875,-0.1331685185432434,-0.13927717506885529,0.027488915249705315
1761333869768743700,2.90874365234375,-0.11239911615848541,-0.11178825795650482,0.08063415437936783
1761333869787444000,2.92744384765625,-0.11362084746360779,-0.06414080411195755,0.13194678723812103
1761333869806144000,2.94614404296875,-0.11606431007385254,-0.03298669680953026,0.16554436087608337
1761333869824844000,2.964843994140625,-0.11972949653863907,-0.026878049597144127,0.164322629570961
1761333869843544300,2.98354443359375,-0.10690133273601532,0.001221729558892548,0.1386663019657135
1761333869862244400,3.002244384765625,-0.09101885557174683,0.001221729558892548,0.11667517572641373
1761333869880944400,3.0209443359375,-0.07513637095689774,-0.043371398001909256,0.08429934084415436
1761333869899644700,3.039644775390625,-0.06414080411195755,-0.04581485688686371,0.04459312930703163
1761333869918344700,3.0583447265625,-0.05253437161445618,0.03298669680953026,0.007941242307424545
1761333869937045000,3.077044921875,-0.017104214057326317,0,-0.030543239787220955
1761333869955745000,3.0957451171875,0.03787361457943916,-0.050090912729501724,-0.02932151034474373
1761333869974445300,3.1144453125,0.06719512492418289,-0.06475166976451874,0.004276053514331579
1761333869993145300,3.133145263671875,0.0873536616563797,-0.0513126403093338,0.02260199747979641
1761333870011845600,3.151845703125,0.10751219838857651,-0.02871064469218254,0.029932374134659767
1761333870030545700,3.170545654296875,0.11117739230394363,-0.0360410213470459,0.04520399495959282
1761333870049245700,3.18924560546875,0.1178968995809555,-0.06902772188186646,0.04276053607463837
1761333870067946000,3.207946044921875,0.11484257876873016,-0.04825831577181816,0.03909534588456154
1761333870086646000,3.22664599609375,0.09712749719619751,-0.017715077847242355,0.046425722539424896
1761333870105346000,3.245345947265625,0.07391463965177536,-0.011606430634856224,0.06780599057674408
1761333870124046300,3.26404638671875,0.07635809481143951,-0.004886918235570192,0.07452550530433655
1761333870142746400,3.282746337890625,0.0818558782339096,-0.029932374134659767,0.05742128938436508
1761333870161446700,3.30144677734375,0.08002328872680664,-0.023212861269712448,0.04153880476951599
1761333870180146700,3.320146728515625,0.06597339361906052,0.01282816007733345,0.033597562462091446
1761333870198847000,3.338846923828125,0.07086031138896942,0.04520399495959282,0.0256563201546669
1761333870217547000,3.357547119140625,0.09590577334165573,0.020769402384757996,0.013439024798572063
1761333870236247300,3.376247314453125,0.10384701192378998,-0.013439024798572063,-0.014660755172371864
1761333870254947300,3.394947265625,0.10995566099882126,-0.03787361457943916,-0.056199558079242706
1761333870273647600,3.413647705078125,0.1282816082239151,-0.010384701192378998,-0.07147117704153061
1761333870292347600,3.43234765625,0.1490510106086731,0.043982263654470444,-0.05253437161445618
1761333870311047700,3.451047607421875,0.164322629570961,0.02871064469218254,-0.020158538594841957
1761333870329748000,3.469748046875,0.17104214429855347,-0.02260199747979641,-0.006719512399286032
1761333870348448000,3.488447998046875,0.1496618688106537,-0.034208428114652634,0.010995565913617611
1761333870367148000,3.50714794921875,0.12950333952903748,-0.002443459117785096,0.013439024798572063
1761333870385848300,3.525848388671875,0.12705987691879272,0.0030543238390237093,-0.015271619893610477
1761333870404548400,3.54454833984375,0.1288924664258957,-0.004886918235570192,-0.049480047076940536
1761333870423248600,3.56324853515625,0.13133592903614044,-0.02932151034474373,-0.05803215503692627
1761333870441948700,3.58194873046875,0.13133592903614044,-0.05864302068948746,-0.039706211537122726
1761333870460649000,3.60064892578125,0.11423171311616898,-0.039706211537122726,0.006719512399286032
1761333870479349000,3.619348876953125,0.07880155742168427,-0.02932151034474373,0.0360410213470459
1761333870498049300,3.63804931640625,0.0513126403093338,-0.02260199747979641,0.03237583488225937
1761333870516749300,3.656749267578125,0.03909534588456154,-0.010384701192378998,0.01893680728971958
1761333870535449600,3.67544970703125,0.023212861269712448,-0.0030543238390237093,0.021380268037319183
1761333870554149600,3.694149658203125,0.021380268037319183,-0.014049889519810677,0.021991131827235222
1761333870572849700,3.712849609375,0.02871064469218254,-0.046425722539424896,0.009162971749901772
1761333870591549700,3.7315498046875,0.0360410213470459,-0.04459312930703163,0.000610864779446274
1761333870610250000,3.75025,0.034208428114652634,-0.04214967042207718,0.010384701192378998
1761333870628950300,3.7689501953125,0.023823726922273636,-0.039706211537122726,0.03237583488225937
1761333870647650300,3.787650390625,0.003665188793092966,-0.07024945318698883,0.031154103577136993
1761333870666350300,3.806350341796875,-0.011606430634856224,-0.07635809481143951,0.0054977829568088055
1761333870685050600,3.825050537109375,-0.04214967042207718,-0.029932374134659767,0.014660755172371864
1761333870703750700,3.843750732421875,-0.06597339361906052,-0.015271619893610477,0.04581485688686371
1761333870722451000,3.862450927734375,-0.07635809481143951,-0.040317077189683914,0.05497783049941063
1761333870741151000,3.88115087890625,-0.07880155742168427,-0.07024945318698883,0.02932151034474373
1761333870759851300,3.899851318359375,-0.0824667438864708,-0.0616973415017128,0.008552107028663158
1761333870778551300,3.91855126953125,-0.10201441496610641,-0.02871064469218254,0.03176496922969818
1761333870797251600,3.93725146484375,-0.11667517572641373,-0.002443459117785096,0.06475166976451874
1761333870815951600,3.95595166015625,-0.12095122784376144,-0.020769402384757996,0.056199558079242706
1761333870834652000,3.97465185546875,-0.11484257876873016,-0.053145237267017365,0.017104214057326317
1761333870853352000,3.99335205078125,-0.1026252806186676,-0.08918625861406326,-0.039706211537122726
1761333870872052000,4.012052001953125,-0.09285144507884979,-0.03848448023200035,-0.08063415437936783
1761333870890752300,4.030752197265625,-0.08613193035125732,0.01954767294228077,-0.056199558079242706
1761333870909452300,4.049452392578125,-0.06902772188186646,0.0030543238390237093,-0.004276053514331579
1761333870928152600,4.068152587890625,-0.046425722539424896,-0.09040798991918564,0.028099779039621353
1761333870946852600,4.0868525390625,-0.027488915249705315,-0.1331685185432434,-0.003665188793092966
1761333870965552600,4.105552734375,-0.02932151034474373,-0.08124501258134842,-0.034208428114652634
1761333870984253000,4.1242529296875,-0.040317077189683914,-0.03176496922969818,-0.002443459117785096
1761333871002953000,4.142952880859375,-0.05436696484684944,-0.043371398001909256,0.04459312930703163
1761333871021653200,4.1616533203125,-0.06475166976451874,-0.05558869615197182,0.04886918142437935
1761333871040353300,4.180353271484375,-0.07086031138896942,-0.03481929376721382,0.007330377586185932
1761333871059053600,4.199053466796875,-0.06352993845939636,-0.020158538594841957,-0.043982263654470444
1761333871077753600,4.217753662109375,-0.056199558079242706,-0.0513126403093338,-0.056810423731803894
1761333871096454000,4.236453857421875,-0.0513126403093338,-0.05803215503692627,-0.027488915249705315
1761333871115154000,4.25515380859375,-0.04825831577181816,-0.05742128938436508,-0.001221729558892548
1761333871133854200,4.273854248046875,-0.05192350596189499,-0.04153880476951599,0.020158538594841957
1761333871152554200,4.29255419921875,-0.06719512492418289,-0.031154103577136993,0.04276053607463837
1761333871171254300,4.311254150390625,-0.08063415437936783,-0.04214967042207718,0.056810423731803894
1761333871189954600,4.32995458984375,-0.09651663154363632,-0.03481929376721382,0.08063415437936783
1761333871208654600,4.348654541015625,-0.08857539296150208,-0.020769402384757996,0.10995566099882126
1761333871227355000,4.36735498046875,-0.056810423731803894,-0.020769402384757996,0.1081230640411377
1761333871246055000,4.386054931640625,-0.03909534588456154,-0.02260199747979641,0.08124501258134842
1761333871264755000,4.4047548828125,-0.0360410213470459,-0.02626718580722809,0.04153880476951599
1761333871283455200,4.423455322265625,-0.021380268037319183,-0.014660755172371864,0.006719512399286032
1761333871302155300,4.4421552734375,-0.010384701192378998,-0.01649334840476513,-0.021380268037319183
1761333871320855600,4.46085546875,0.010995565913617611,-0.009162971749901772,-0.031154103577136993
1761333871339555600,4.4795556640625,0.01954767294228077,-0.021991131827235222,-0.017104214057326317
1761333871358255900,4.498255859375,0.007941242307424545,-0.04153880476951599,-0.014049889519810677
1761333871376956000,4.516955810546875,0.006719512399286032,-0.013439024798572063,-0.011606430634856224
1761333871395656200,4.53565625,0.004276053514331579,0.004276053514331579,0.021380268037319183
1761333871414356200,4.554356201171875,-0.002443459117785096,0.004276053514331579,0.056810423731803894
1761333871433056300,4.57305615234375,-0.009162971749901772,-0.004276053514331579,0.047036588191986084
1761333871451756500,4.591756591796875,-0.01588248461484909,0.000610864779446274,0.01954767294228077
1761333871470456600,4.61045654296875,-0.014660755172371864,0.010384701192378998,0.017715077847242355
1761333871489156900,4.629156982421875,-0.01649334840476513,0.009162971749901772,0.020769402384757996
1761333871507857000,4.64785693359375,-0.009162971749901772,0.025045456364750862,0.012217295356094837
1761333871526557200,4.66655712890625,-0.001221729558892548,-0.004886918235570192,-0.000610864779446274
1761333871545257200,4.68525732421875,0.013439024798572063,-0.03176496922969818,-0.007330377586185932
1761333871563957500,4.70395751953125,0.026878049597144127,-0.026878049597144127,0.004886918235570192
1761333871582657500,4.722657470703125,0.021380268037319183,-0.021991131827235222,0.027488915249705315
1761333871601357800,4.74135791015625,-0.000610864779446274,0.012217295356094837,0.06719512492418289
1761333871620057900,4.760057861328125,-0.011606430634856224,0.028099779039621353,0.08368847519159317
1761333871638758000,4.7787578125,-0.008552107028663158,-0.008552107028663158,0.05253437161445618
1761333871657458200,4.797458251953125,-0.003665188793092966,-0.07880155742168427,-0.002443459117785096
1761333871676158200,4.816158203125,-0.004886918235570192,-0.07086031138896942,-0.023212861269712448
1761333871694858500,4.8348583984375,-0.013439024798572063,-0.011606430634856224,0.014660755172371864
1761333871713558500,4.85355859375,-0.026878049597144127,0.001221729558892548,0.07880155742168427
1761333871732258600,4.872258544921875,-0.0256563201546669,-0.009162971749901772,0.09590577334165573
1761333871750958800,4.890958740234375,-0.028099779039621353,-0.011606430634856224,0.056199558079242706
1761333871769659000,4.909658935546875,-0.03298669680953026,-0.02932151034474373,0.01649334840476513
1761333871788359200,4.928359130859375,-0.02932151034474373,-0.03481929376721382,0.002443459117785096
1761333871807059200,4.94705908203125,-0.028099779039621353,-0.0030543238390237093,0.014049889519810677
1761333871825759500,4.965759521484375,-0.02932151034474373,0.001832594396546483,0.024434590712189674
1761333871844459500,4.98445947265625,-0.01649334840476513,-0.007330377586185932,0.020769402384757996
1761333871863159800,5.003159912109375,-0.0054977829568088055,-0.023823726922273636,0.017104214057326317
1761333871881859800,5.02185986328125,-0.006719512399286032,-0.015271619893610477,0.017715077847242355
1761333871900560100,5.04056005859375,-0.01649334840476513,0,0.004886918235570192
1761333871919260200,5.05926025390625,-0.025045456364750862,-0.0054977829568088055,-0.013439024798572063
1761333871937960400,5.07796044921875,-0.023823726922273636,-0.037262752652168274,-0.018325943499803543
1761333871956660500,5.096660400390625,-0.02932151034474373,-0.0360410213470459,-0.017715077847242355
1761333871975360800,5.11536083984375,-0.03237583488225937,-0.020158538594841957,-0.023823726922273636
1761333871994060800,5.134060791015625,-0.03909534588456154,-0.025045456364750862,-0.025045456364750862
1761333872012761000,5.152760986328125,-0.02871064469218254,-0.03298669680953026,-0.029932374134659767
1761333872031461000,5.171461181640625,-0.017104214057326317,-0.05192350596189499,-0.04459312930703163
1761333872050161200,5.1901611328125,-0.009773836471140385,-0.04764745384454727,-0.039706211537122726
1761333872068861400,5.208861328125,-0.003665188793092966,-0.04825831577181816,-0.027488915249705315
1761333872087561500,5.2275615234375,0.003665188793092966,-0.03848448023200035,-0.010995565913617611
1761333872106261800,5.24626171875,0.008552107028663158,-0.03237583488225937,0.009773836471140385
1761333872124961800,5.2649619140625,0.004886918235570192,-0.03481929376721382,0.0256563201546669
1761333872143662000,5.283662109375,0.0030543238390237093,-0.03848448023200035,0.020158538594841957
1761333872162362000,5.302362060546875,-0.001832594396546483,-0.05192350596189499,-0.014049889519810677
1761333872181062400,5.3210625,-0.007330377586185932,-0.04581485688686371,-0.04153880476951599
1761333872199762400,5.339762451171875,-0.004886918235570192,-0.01649334840476513,-0.03298669680953026
1761333872218462500,5.35846240234375,-0.006108647678047419,0.000610864779446274,-0.006719512399286032
1761333872237162800,5.377162841796875,-0.0054977829568088055,-0.003665188793092966,-0.001221729558892548
1761333872255862800,5.39586279296875,0.007330377586185932,-0.011606430634856224,-0.025045456364750862
1761333872274563000,5.41456298828125,0.023823726922273636,-0.033597562462091446,-0.04764745384454727
1761333872293263000,5.43326318359375,0.024434590712189674,-0.02626718580722809,-0.040317077189683914
1761333872311963400,5.45196337890625,0.023212861269712448,-0.02260199747979641,-0.017715077847242355
1761333872330663400,5.470663330078125,0.01588248461484909,-0.014049889519810677,-0.003665188793092966
1761333872349363500,5.489363525390625,0.018325943499803543,-0.006108647678047419,-0.007941242307424545
1761333872368063700,5.508063720703125,0.018325943499803543,-0.02260199747979641,-0.010995565913617611
1761333872386763800,5.526763671875,0.025045456364750862,-0.013439024798572063,-0.006719512399286032
1761333872405464000,5.545464111328125,0.027488915249705315,0.008552107028663158,-0.009773836471140385
1761333872424164000,5.5641640625,0.01954767294228077,-0.013439024798572063,-0.021991131827235222
1761333872442864400,5.582864501953125,0.020158538594841957,-0.06475166976451874,-0.050090912729501724
1761333872461564400,5.601564453125,0.03543015569448471,-0.056199558079242706,-0.06352993845939636
1761333872480264700,5.6202646484375,0.03787361457943916,-0.01954767294228077,-0.024434590712189674
1761333872498964700,5.63896484375,0.03298669680953026,0.000610864779446274,0.023823726922273636
1761333872517665000,5.6576650390625,0.0360410213470459,-0.006108647678047419,0.0256563201546669
1761333872536365000,5.676364990234375,0.043371398001909256,-0.004886918235570192,0.000610864779446274
1761333872555065300,5.6950654296875,0.04825831577181816,-0.006108647678047419,-0.01649334840476513
1761333872573765400,5.713765380859375,0.04581485688686371,-0.023212861269712448,-0.012217295356094837
1761333872592465700,5.732465576171875,0.043371398001909256,-0.03298669680953026,-0.010384701192378998
1761333872611165700,5.751165771484375,0.03909534588456154,0.006108647678047419,-0.003665188793092966
1761333872629866000,5.769865966796875,0.03176496922969818,0.01893680728971958,0.014049889519810677
1761333872648566000,5.78856591796875,0.031154103577136993,0.002443459117785096,0.02932151034474373
1761333872667266000,5.80726611328125,0.0360410213470459,-0.017104214057326317,0.010995565913617611
1761333872685966300,5.82596630859375,0.0360410213470459,-0.004276053514331579,-0.014049889519810677
1761333872704666400,5.844666259765625,0.0256563201546669,0.001221729558892548,-0.009773836471140385
1761333872723366700,5.86336669921875,0.021380268037319183,0.017715077847242355,0.015271619893610477
1761333872742066700,5.882066650390625,0.01954767294228077,0.000610864779446274,0.027488915249705315
1761333872760767000,5.90076708984375,0.011606430634856224,-0.017715077847242355,0.0054977829568088055
1761333872779467000,5.919467041015625,0.001832594396546483,-0.01588248461484909,-0.020158538594841957
1761333872798167300,5.938167236328125,0.000610864779446274,-0.000610864779446274,-0.010384701192378998
1761333872816867300,5.956867431640625,-0.0030543238390237093,-0.011606430634856224,0.010995565913617611
1761333872835567600,5.975567626953125,-0.0054977829568088055,-0.01282816007733345,0.01893680728971958
1761333872854267600,5.994267578125,-0.003665188793092966,-0.014660755172371864,0.015271619893610477
1761333872872968000,6.012968017578125,0.006719512399286032,-0.009162971749901772,0.0054977829568088055
1761333872891668000,6.03166796875,0.001832594396546483,-0.008552107028663158,-0.004886918235570192
1761333872910368300,6.0503681640625,-0.002443459117785096,-0.01954767294228077,-0.009162971749901772
1761333872929068300,6.069068359375,0.000610864779446274,-0.03176496922969818,-0.020158538594841957
1761333872947768600,6.0877685546875,0.004276053514331579,-0.028099779039621353,-0.024434590712189674
1761333872966468600,6.106468505859375,0.003665188793092966,-0.026878049597144127,-0.01893680728971958
1761333872985169000,6.1251689453125,-0.003665188793092966,-0.025045456364750862,-0.003665188793092966
1761333873003869000,6.143868896484375,-0.006108647678047419,-0.021380268037319183,-0.010384701192378998
1761333873022569000,6.16256884765625,-0.009162971749901772,-0.02626718580722809,-0.0256563201546669
1761333873041269200,6.181269287109375,-0.01649334840476513,-0.023212861269712448,-0.040317077189683914
1761333873059969300,6.19996923828125,-0.014660755172371864,-0.017104214057326317,-0.0513126403093338
1761333873078669600,6.218669677734375,-0.0054977829568088055,-0.013439024798572063,-0.04214967042207718
1761333873097369600,6.23736962890625,0.0030543238390237093,-0.010384701192378998,-0.008552107028663158
1761333873116070000,6.25606982421875,0.023823726922273636,0.015271619893610477,0.025045456364750862
1761333873134770000,6.27477001953125,-0.007330377586185932,-0.01282816007733345,0.04520399495959282
1761333873153470200,6.29347021484375,-0.001221729558892548,-0.002443459117785096,0.053756099194288254
1761333873172170200,6.312170166015625,-0.0030543238390237093,0.01282816007733345,0.050090912729501724
1761333873190870500,6.33087060546875,-0.01954767294228077,-0.01282816007733345,0.0256563201546669
1761333873209570600,6.349570556640625,-0.01649334840476513,-0.04764745384454727,-0.006108647678047419
1761333873228270800,6.368270751953125,-0.0054977829568088055,-0.053145237267017365,-0.011606430634856224
1761333873246971000,6.386970947265625,-0.006719512399286032,-0.013439024798572063,0.01893680728971958
1761333873265671200,6.405671142578125,-0.0054977829568088055,0.009162971749901772,0.04764745384454727
1761333873284371200,6.42437109375,0.001221729558892548,-0.017715077847242355,0.03176496922969818
1761333873303071500,6.443071533203125,0.001221729558892548,-0.027488915249705315,-0.010384701192378998
1761333873321771500,6.461771484375,-0.003665188793092966,-0.023823726922273636,-0.043982263654470444
1761333873340471800,6.480471923828125,-0.004886918235570192,-0.02260199747979641,-0.049480047076940536
1761333873359171800,6.499171875,-0.008552107028663158,-0.029932374134659767,-0.03848448023200035
1761333873377872100,6.5178720703125,-0.008552107028663158,-0.007330377586185932,-0.013439024798572063
1761333873396572200,6.536572265625,0,-0.006719512399286032,0.013439024798572063
1761333873415272200,6.555272216796875,0.010995565913617611,-0.01893680728971958,0.020158538594841957
1761333873433972500,6.573972412109375,0.021991131827235222,-0.026878049597144127,0.007941242307424545
1761333873452672500,6.592672607421875,0.02932151034474373,-0.01954767294228077,0.001832594396546483
1761333873471372800,6.611372802734375,0.034208428114652634,-0.017104214057326317,-0.004886918235570192
1761333873490072800,6.63007275390625,0.0360410213470459,-0.010384701192378998,-0.008552107028663158
1761333873508773000,6.648773193359375,0.034208428114652634,-0.01649334840476513,-0.018325943499803543
1761333873527473200,6.66747314453125,0.02932151034474373,-0.010995565913617611,-0.020158538594841957
1761333873546173400,6.68617333984375,0.025045456364750862,-0.011606430634856224,-0.009162971749901772
1761333873564873500,6.70487353515625,0.02871064469218254,-0.014049889519810677,0.004886918235570192
1761333873583573800,6.72357373046875,0.02871064469218254,-0.014660755172371864,0.006719512399286032
1761333873602273800,6.742273681640625,0.03176496922969818,0.006108647678047419,0.014660755172371864
1761333873620974000,6.76097412109375,0.037262752652168274,-0.010995565913617611,0.01954767294228077
1761333873639674000,6.779674072265625,0.04459312930703163,-0.01893680728971958,0.015271619893610477
1761333873658374400,6.79837451171875,0.04214967042207718,-0.010384701192378998,0.014660755172371864
1761333873677074400,6.817074462890625,0.03298669680953026,-0.011606430634856224,0.007330377586185932
1761333873695774700,6.835774658203125,0.036651886999607086,-0.014660755172371864,-0.006719512399286032
1761333873714474800,6.854474853515625,0.031154103577136993,-0.007941242307424545,-0.009773836471140385
1761333873733175000,6.873175048828125,0.025045456364750862,-0.004886918235570192,0.0030543238390237093
1761333873751875000,6.891875,0.017715077847242355,-0.008552107028663158,0.014049889519810677
1761333873770575400,6.910575439453125,0.013439024798572063,-0.008552107028663158,0.014660755172371864
1761333873789275400,6.929275390625,0.01282816007733345,0.002443459117785096,0.014660755172371864
1761333873807975700,6.9479755859375,0.013439024798572063,-0.004276053514331579,0.017715077847242355
1761333873826675700,6.96667578125,0.01649334840476513,-0.01893680728971958,0.013439024798572063
1761333873845376000,6.9853759765625,0.001832594396546483,-0.031154103577136993,-0.0030543238390237093
1761333873864076000,7.004075927734375,0.004276053514331579,-0.013439024798572063,-0.014049889519810677
1761333873882776300,7.0227763671875,-0.000610864779446274,0.0030543238390237093,0.002443459117785096
1761333873901476400,7.041476318359375,-0.017104214057326317,-0.0030543238390237093,0.01282816007733345
1761333873920176600,7.0601767578125,-0.017104214057326317,-0.039706211537122726,-0.014660755172371864
1761333873938876700,7.078876708984375,0.001221729558892548,-0.06536252796649933,-0.04153880476951599
1761333873957577000,7.097576904296875,0.01588248461484909,-0.030543239787220955,-0.011606430634856224
1761333873976277000,7.116277099609375,0.007330377586185932,-0.006719512399286032,0.039706211537122726
1761333873994977300,7.134977294921875,0.008552107028663158,0.007941242307424545,0.05742128938436508
1761333874013677300,7.15367724609375,0.014049889519810677,-0.010995565913617611,0.02932151034474373
1761333874032377600,7.172377685546875,0.012217295356094837,-0.023212861269712448,-0.010384701192378998
1761333874051077600,7.19107763671875,0.0030543238390237093,-0.036651886999607086,-0.034208428114652634
1761333874069778000,7.20977783203125,0.004276053514331579,-0.01649334840476513,-0.017715077847242355
1761333874088478000,7.22847802734375,0,-0.01954767294228077,0.008552107028663158
1761333874107178200,7.24717822265625,0.001221729558892548,-0.003665188793092966,0.026878049597144127
1761333874125878300,7.265878173828125,0,-0.03237583488225937,0.01893680728971958
1761333874144578600,7.28457861328125,0.010384701192378998,-0.03298669680953026,0.004886918235570192
1761333874163278600,7.303278564453125,0.014049889519810677,-0.03237583488225937,0.003665188793092966
1761333874181979000,7.321978759765625,0.018325943499803543,-0.018325943499803543,0.014049889519810677
1761333874200679000,7.340678955078125,0.017104214057326317,-0.014049889519810677,0.02260199747979641
1761333874219379200,7.359379150390625,0.01954767294228077,-0.008552107028663158,0.024434590712189674
1761333874238079200,7.378079345703125,0.014049889519810677,-0.02260199747979641,0.010384701192378998
1761333874256779500,7.396779541015625,0.011606430634856224,-0.023823726922273636,-0.013439024798572063
1761333874275479600,7.4154794921875,0.006719512399286032,-0.033597562462091446,-0.018325943499803543
1761333874294179800,7.434179931640625,0.004886918235570192,-0.010384701192378998,0.017104214057326317
1761333874312879900,7.4528798828125,0.0030543238390237093,-0.004886918235570192,0.04276053607463837
1761333874331580200,7.471580078125,0.004276053514331579,-0.01282816007733345,0.040317077189683914
1761333874350280200,7.4902802734375,0.014660755172371864,-0.02626718580722809,0.02871064469218254
1761333874368980500,7.50898046875,0.015271619893610477,-0.01649334840476513,0.02626718580722809
1761333874387680500,7.527680419921875,0.018325943499803543,-0.010384701192378998,0.02932151034474373
1761333874406380800,7.546380859375,0.018325943499803543,-0.015271619893610477,0.025045456364750862
1761333874425080800,7.565080810546875,0.014660755172371864,-0.018325943499803543,0.006719512399286032
1761333874443781000,7.583781005859375,0.015271619893610477,-0.006719512399286032,-0.001832594396546483
1761333874462481200,7.602481201171875,0.010384701192378998,-0.018325943499803543,-0.001221729558892548
1761333874481181400,7.621181396484375,0.01282816007733345,-0.01893680728971958,0.008552107028663158
1761333874499881500,7.639881591796875,0.007941242307424545,-0.004276053514331579,0.014049889519810677
1761333874518581800,7.658581787109375,0.008552107028663158,-0.000610864779446274,0.021991131827235222
1761333874537281800,7.67728173828125,0.008552107028663158,-0.018325943499803543,0.021991131827235222
1761333874555982000,7.695982177734375,0.021991131827235222,-0.017104214057326317,0.018325943499803543
1761333874574682000,7.71468212890625,0.021380268037319183,-0.001221729558892548,0.01649334840476513
1761333874593382400,7.73338232421875,0.004886918235570192,-0.009773836471140385,0.007330377586185932
1761333874612082400,7.75208251953125,0.004276053514331579,-0.049480047076940536,-0.017104214057326317
1761333874630782700,7.77078271484375,0.01649334840476513,-0.06291907280683517,-0.02871064469218254
1761333874649482800,7.789482666015625,0.024434590712189674,-0.030543239787220955,0.002443459117785096
1761333874668183000,7.80818310546875,0.013439024798572063,-0.0054977829568088055,0.05864302068948746
1761333874686883000,7.826883056640625,0.008552107028663158,0.004276053514331579,0.11178825795650482
1761333874705583400,7.845583251953125,-0.008552107028663158,0.015271619893610477,0.1130099818110466
1761333874724283400,7.864283447265625,-0.0054977829568088055,-0.0030543238390237093,0.07880155742168427
1761333874742983700,7.882983642578125,0.000610864779446274,-0.02932151034474373,0.049480047076940536
1761333874761683700,7.90168359375,0.011606430634856224,-0.0360410213470459,0.01954767294228077
1761333874780384000,7.920384033203125,0.023823726922273636,-0.026878049597144127,-0.001221729558892548
1761333874799084300,7.939084228515625,0.02626718580722809,-0.01588248461484909,0.003665188793092966
1761333874817784300,7.957784423828125,0.031154103577136993,-0.0256563201546669,0.006108647678047419
1761333874836484600,7.976484619140625,0.0360410213470459,-0.02932151034474373,-0.002443459117785096
1761333874855184600,7.9951845703125,0.029932374134659767,-0.025045456364750862,0.007941242307424545
1761333874873885000,8.013885009765625,0.02626718580722809,-0.01954767294228077,0.023823726922273636
1761333874892585000,8.0325849609375,0.0256563201546669,-0.017715077847242355,0.02626718580722809
1761333874911285200,8.05128515625,0.017715077847242355,-0.02260199747979641,0.01893680728971958
1761333874929985300,8.0699853515625,0.013439024798572063,-0.021991131827235222,0.015271619893610477
1761333874948685300,8.088685302734374,0.018325943499803543,-0.0256563201546669,0.013439024798572063
1761333874967385600,8.107385498046876,0.015271619893610477,-0.03481929376721382,0.006719512399286032
1761333874986085600,8.126085693359375,0.013439024798572063,-0.025045456364750862,0.0030543238390237093
1761333875004786000,8.144785888671874,0.011606430634856224,-0.020769402384757996,0.0054977829568088055
1761333875023486200,8.163486328125,0.010995565913617611,-0.012217295356094837,0.01282816007733345
1761333875042186200,8.182186279296875,0.007330377586185932,-0.023823726922273636,0.018325943499803543
1761333875060886500,8.200886474609375,0.011606430634856224,-0.017715077847242355,0.01588248461484909
1761333875079586600,8.219586669921876,0.014049889519810677,-0.013439024798572063,0.007330377586185932
1761333875098286800,8.238286865234375,0.011606430634856224,-0.025045456364750862,-0.002443459117785096
1761333875116987000,8.25698681640625,0.01282816007733345,-0.025045456364750862,-0.010384701192378998
1761333875135687200,8.275687255859374,0.015271619893610477,-0.010384701192378998,-0.012217295356094837
1761333875154387200,8.29438720703125,0.010384701192378998,-0.009773836471140385,0.0054977829568088055
1761333875173087500,8.31308740234375,0.01588248461484909,-0.03481929376721382,-0.004276053514331579
1761333875191787500,8.33178759765625,0.021991131827235222,-0.031154103577136993,-0.01893680728971958
1761333875210487800,8.35048779296875,0.01893680728971958,-0.010384701192378998,0
1761333875229187800,8.369187744140625,0.01588248461484909,-0.006719512399286032,0.02871064469218254
1761333875247888100,8.38788818359375,0.01649334840476513,0.001221729558892548,0.026878049597144127
1761333875266588200,8.406588134765625,0.0030543238390237093,0.0030543238390237093,-0.002443459117785096
1761333875285288400,8.425288330078125,-0.004886918235570192,-0.04214967042207718,-0.03481929376721382
1761333875303988500,8.443988525390624,0.007941242307424545,-0.06780599057674408,-0.05742128938436508
1761333875322688800,8.462688720703126,0.024434590712189674,-0.03176496922969818,-0.039706211537122726
1761333875341388800,8.481388916015625,0.023823726922273636,0.004276053514331579,0.021380268037319183
1761333875360089000,8.500089111328125,0.017104214057326317,-0.001832594396546483,0.056199558079242706
1761333875378789400,8.518789306640626,0.020769402384757996,-0.004886918235570192,0.039706211537122726
1761333875397489400,8.537489501953125,0.02260199747979641,-0.003665188793092966,0.01282816007733345
1761333875416189700,8.556189697265625,0.01282816007733345,-0.004276053514331579,0.006108647678047419
1761333875434889700,8.5748896484375,0.014049889519810677,-0.01588248461484909,0.004886918235570192
1761333875453590000,8.593590087890625,0.015271619893610477,-0.01282816007733345,0.013439024798572063
1761333875472290000,8.6122900390625,0.023212861269712448,0.026878049597144127,0.031154103577136993
1761333875490990300,8.630990234375,0.010995565913617611,-0.008552107028663158,0.033597562462091446
1761333875509690400,8.6496904296875,0.026878049597144127,-0.036651886999607086,0.010384701192378998
1761333875528390700,8.668390625,0.02871064469218254,-0.03787361457943916,-0.014049889519810677
1761333875547090700,8.687090576171874,0.0360410213470459,-0.02260199747979641,-0.017104214057326317
1761333875565791000,8.705791015625,0.028099779039621353,-0.012217295356094837,0.0054977829568088055
1761333875584491000,8.724490966796875,0.01649334840476513,-0.004276053514331579,0.018325943499803543
1761333875603191300,8.74319140625,0.01649334840476513,-0.014049889519810677,0.006108647678047419
1761333875621891300,8.761891357421876,0.01588248461484909,-0.03848448023200035,-0.004886918235570192
1761333875640591600,8.780591552734375,0.010384701192378998,-0.033597562462091446,-0.007941242307424545
1761333875659292000,8.7992919921875,0.011606430634856224,-0.015271619893610477,0.0054977829568088055
1761333875677992000,8.817991943359376,0.013439024798572063,-0.020769402384757996,0.017104214057326317
1761333875696692200,8.836692138671875,0.008552107028663158,-0.014049889519810677,0.01282816007733345
1761333875715392300,8.855392333984375,0,-0.0030543238390237093,0.017104214057326317
1761333875734092500,8.874092529296876,-0.001221729558892548,-0.006719512399286032,0.020158538594841957
1761333875752792600,8.89279248046875,0.004886918235570192,-0.017715077847242355,0.006108647678047419
1761333875771492600,8.91149267578125,0.004276053514331579,-0.025045456364750862,-0.009162971749901772
1761333875790193000,8.93019287109375,0.0030543238390237093,-0.02260199747979641,-0.004886918235570192
1761333875808893000,8.948892822265625,0.004276053514331579,-0.007941242307424545,0.009773836471140385
1761333875827593200,8.96759326171875,0.012217295356094837,-0.024434590712189674,0.007941242307424545
1761333875846293500,8.98629345703125,0.015271619893610477,-0.024434590712189674,0.000610864779446274
1761333875864993500,9.00499365234375,0.014049889519810677,-0.014660755172371864,0.004276053514331579
1761333875883693800,9.02369384765625,0.009162971749901772,-0.014660755172371864,0.007941242307424545
1761333875902393900,9.042393798828124,0.010384701192378998,-0.01893680728971958,0.0054977829568088055
1761333875921094100,9.06109423828125,0.010384701192378998,-0.002443459117785096,0.009773836471140385
1761333875939794200,9.079794189453125,0.000610864779446274,-0.009773836471140385,-0.009773836471140385
1761333875958494500,9.098494384765624,-0.007941242307424545,-0.0409279391169548,-0.04459312930703163
1761333875977194500,9.117194580078126,-0.000610864779446274,-0.06291907280683517,-0.059864748269319534
1761333875995894800,9.135894775390625,0.010995565913617611,-0.05070177838206291,-0.033597562462091446
1761333876014594800,9.1545947265625,0.02260199747979641,-0.010995565913617611,0.028099779039621353
1761333876033295000,9.173295166015626,0.01893680728971958,0.013439024798572063,0.07330377399921417
1761333876051995100,9.1919951171875,0.01588248461484909,-0.007330377586185932,0.06047561392188072
1761333876070695400,9.2106953125,0.021991131827235222,-0.0360410213470459,0.001832594396546483
1761333876089395700,9.229395751953126,0.020769402384757996,-0.037262752652168274,-0.03481929376721382
1761333876108095700,9.248095703125,0.010995565913617611,-0.04459312930703163,-0.03481929376721382
1761333876126796000,9.266796142578125,0.007330377586185932,-0.010384701192378998,-0.020158538594841957
1761333876145496000,9.28549609375,0.009162971749901772,-0.001832594396546483,-0.006719512399286032
1761333876164196400,9.3041962890625,0.006108647678047419,-0.0256563201546669,0.0030543238390237093
1761333876182896400,9.322896484375,0.015271619893610477,-0.026878049597144127,-0.008552107028663158
1761333876201596700,9.3415966796875,0.023212861269712448,-0.014660755172371864,-0.001832594396546483
1761333876220296700,9.360296630859375,0.03298669680953026,0.0030543238390237093,0.01282816007733345
1761333876238997000,9.3789970703125,0.033597562462091446,-0.01282816007733345,0.009162971749901772
1761333876257697000,9.397697021484374,0.029932374134659767,-0.006108647678047419,-0.004886918235570192
1761333876276397300,9.416397216796875,0.030543239787220955,-0.01649334840476513,-0.018325943499803543
1761333876295097600,9.43509765625,0.028099779039621353,-0.026878049597144127,-0.0256563201546669
1761333876313797600,9.453797607421874,0.021380268037319183,-0.021991131827235222,-0.021991131827235222
1761333876332498000,9.472497802734376,0.024434590712189674,0.007330377586185932,-0.008552107028663158
1761333876351198000,9.491197998046875,0.02626718580722809,-0.004886918235570192,0.003665188793092966
1761333876369898200,9.509898193359374,0.023212861269712448,-0.023212861269712448,0.0030543238390237093
1761333876388598300,9.528598388671876,0.014660755172371864,0.002443459117785096,0.002443459117785096
1761333876407298600,9.547298583984375,0.011606430634856224,-0.000610864779446274,0.003665188793092966
1761333876425998600,9.56599853515625,0.010384701192378998,-0.011606430634856224,-0.001221729558892548
1761333876444699000,9.584698974609376,0.012217295356094837,0.004886918235570192,-0.008552107028663158
1761333876463399000,9.60339892578125,0.017715077847242355,-0.012217295356094837,-0.012217295356094837
1761333876482099200,9.62209912109375,0.02260199747979641,-0.024434590712189674,-0.02260199747979641
1761333876500799200,9.64079931640625,0.025045456364750862,-0.03237583488225937,-0.034208428114652634
1761333876519499500,9.65949951171875,0.010384701192378998,-0.023212861269712448,-0.020158538594841957
1761333876538199800,9.67819970703125,0.009773836471140385,0.007330377586185932,0.0030543238390237093
1761333876556899800,9.69689990234375,0.009162971749901772,0.0030543238390237093,0.017715077847242355
1761333876575600000,9.71560009765625,0.01588248461484909,-0.021991131827235222,0.014049889519810677
1761333876594300200,9.734300048828125,0.025045456364750862,0.009773836471140385,0.0360410213470459
1761333876613000400,9.75300048828125,0.017715077847242355,0.015271619893610477,0.053145237267017365
1761333876631700500,9.771700439453125,0.011606430634856224,-0.02932151034474373,0.020158538594841957
1761333876650400800,9.79040087890625,0.018325943499803543,-0.05925388261675835,-0.040317077189683914
1761333876669100800,9.809100830078124,0.03298669680953026,-0.031154103577136993,-0.027488915249705315
1761333876687801000,9.827801025390626,0.01954767294228077,-0.006719512399286032,0.043371398001909256
1761333876706501000,9.846501220703125,0.013439024798572063,0.014049889519810677,0.06291907280683517
1761333876725201400,9.865201416015625,0.003665188793092966,0.003665188793092966,0.0256563201546669
1761333876743901700,9.883901611328126,-0.000610864779446274,-0.012217295356094837,-0.0030543238390237093
1761333876762601700,9.902601806640625,-0.001832594396546483,-0.017104214057326317,-0.01954767294228077
1761333876781302000,9.921302001953125,0.006108647678047419,-0.023823726922273636,-0.028099779039621353
1761333876800002000,9.940001953125,0.004886918235570192,-0.01282816007733345,-0.001221729558892548
1761333876818702300,9.958702392578125,0.006719512399286032,-0.009773836471140385,0.017104214057326317
1761333876837402400,9.97740234375,0.010384701192378998,-0.02626718580722809,-0.000610864779446274
1761333876856102700,9.9961025390625,0.034208428114652634,-0.01954767294228077,-0.03543015569448471
1761333876874802700,10.014802734375,0.03909534588456154,-0.013439024798572063,-0.040317077189683914
1761333876893503000,10.0335029296875,0.03909534588456154,-0.014660755172371864,-0.02932151034474373
1761333876912203000,10.052203125,0.0256563201546669,-0.001832594396546483,0.0256563201546669
