time,seconds_elapsed,z,y,x
1761333866918063900,0.05806396484375,8.678768157958984,1.698904037475586,-0.14117653667926788
1761333866936764200,0.07676416015625,8.70508861541748,1.6055840253829956,-0.08614161610603333
1761333866955464200,0.095464111328125,8.812766075134277,1.6103696823120117,-0.05503492057323456
1761333866974164200,0.114164306640625,9.20279598236084,1.6079767942428589,0.17228323221206665
1761333866992864500,0.132864501953125,9.468399047851562,1.6582261323928833,0.48095735907554626
1761333867011564500,0.151564453125,9.437292098999023,1.9142581224441528,0.727418065071106
1761333867030264600,0.1702646484375,9.609575271606445,2.179861545562744,0.9667003750801086
1761333867048964900,0.18896484375,9.743574142456055,2.2707886695861816,1.098305583000183
1761333867067665000,0.207664794921875,9.743574142456055,2.335394859313965,1.093519926071167
1761333867086365200,0.226365234375,9.987641334533691,2.256431818008423,1.0121639966964722
1761333867105065200,0.245065185546875,9.8871431350708,2.155933141708374,0.849452018737793
1761333867123765500,0.263765625,9.34157943725586,2.1607189178466797,0.5982056856155396
1761333867142465500,0.282465576171875,9.044869422912598,2.1774685382843018,0.4450650215148926
1761333867161165600,0.30116552734375,9.329615592956543,2.076970100402832,0.5335994362831116
1761333867179865900,0.319865966796875,9.509077072143555,2.0338993072509766,0.6173482537269592
1761333867198566000,0.33856591796875,9.702896118164062,2.00518536567688,0.5455635786056519
1761333867217266000,0.357265869140625,9.832108497619629,1.9669002294540405,0.5623133182525635
1761333867235966200,0.37596630859375,9.633503913879395,2.0338993072509766,0.4785645306110382
1761333867254666200,0.394666259765625,9.494720458984375,2.0673987865448,0.4737788736820221
1761333867273366500,0.413366455078125,9.542576789855957,2.062613010406494,0.5048855543136597
1761333867292066600,0.432066650390625,9.54496955871582,2.1128623485565186,0.5383850932121277
1761333867310766800,0.450766845703125,9.604789733886719,2.0315065383911133,0.5790630578994751
1761333867329467000,0.469466796875,9.712467193603516,1.9716858863830566,0.5670989751815796
1761333867348167000,0.4881669921875,9.714859962463379,1.9405791759490967,0.5096712112426758
1761333867366867000,0.506866943359375,9.839286804199219,1.8400806188583374,0.4091726839542389
1761333867385567200,0.525567138671875,10.234102249145508,1.8616160154342651,0.5048855543136597
1761333867404267300,0.544267333984375,10.336994171142578,1.7252250909805298,0.3326023519039154
1761333867422967600,0.562967529296875,10.164710998535156,1.7730815410614014,0.04307080805301666
1761333867441667600,0.58166748046875,9.915857315063477,1.7826528549194336,0.009571290574967861
1761333867460368000,0.600367919921875,9.53779125213623,1.765903115272522,-0.0526420995593071
1761333867479068000,0.61906787109375,9.32722282409668,1.8735800981521606,-0.23688943684101105
1761333867497768200,0.637768310546875,9.396614074707031,1.765903115272522,-0.37806597352027893
1761333867516468200,0.65646826171875,9.664610862731934,1.6773686408996582,-0.39481574296951294
1761333867535168300,0.675168212890625,9.757930755615234,1.612762451171875,-0.27756741642951965
1761333867553868300,0.693868408203125,9.784252166748047,1.5912270545959473,-0.11246266216039658
1761333867572568600,0.712568603515625,9.767501831054688,1.5672988891601562,-0.1746760457754135
1761333867591268600,0.7312685546875,9.827322959899902,1.6031911373138428,-0.30149564146995544
1761333867609969000,0.749968994140625,9.772287368774414,1.495514154434204,-0.32303106784820557
1761333867628669000,0.7686689453125,9.942177772521973,1.459621787071228,-0.397208571434021
1761333867647369200,0.787369140625,10.076175689697266,1.4069796800613403,-0.4666004180908203
1761333867666069200,0.8060693359375,10.061819076538086,1.4476577043533325,-0.5599204897880554
1761333867684769300,0.824769287109375,10.1814603805542,1.3830515146255493,-0.5670989751815796
1761333867703469600,0.843469482421875,10.313065528869629,1.3902299404144287,-0.4163511395454407
1761333867722169600,0.862169677734375,10.272387504577637,1.4979069232940674,-0.349352091550827
1761333867740870000,0.880869873046875,9.915857315063477,1.5744773149490356,-0.3732803463935852
1761333867759570000,0.89956982421875,9.561718940734863,1.6510475873947144,-0.5335994362831116
1761333867778270000,0.91827001953125,9.43489933013916,1.648654818534851,-0.727418065071106
1761333867796970200,0.93697021484375,9.645467758178711,1.5433706045150757,-0.5886343717575073
1761333867815670300,0.955670166015625,9.724431037902832,1.5026925802230835,-0.5862415432929993
1761333867834370600,0.97437060546875,9.702896118164062,1.5074782371520996,-0.7034898400306702
1761333867853070600,0.993070556640625,9.707681655883789,1.4500504732131958,-0.6699903607368469
1761333867871770600,1.0117705078125,9.489934921264648,1.3591232299804688,-0.6364908218383789
1761333867890471000,1.030470947265625,9.291330337524414,1.4476577043533325,-0.7130611538887024
1761333867909171000,1.0491708984375,9.104690551757812,1.5409778356552124,-0.8279166221618652
1761333867927871200,1.067871337890625,9.032905578613281,1.6103696823120117,-0.7154539823532104
1761333867946571300,1.0865712890625,8.95394229888916,1.6390835046768188,-0.6915257573127747
1761333867965271600,1.105271484375,9.229117393493652,1.6654045581817627,-0.5814558863639832
1761333867983971600,1.1239716796875,9.8871431350708,1.7467604875564575,-0.30149564146995544
1761333868002671600,1.142671630859375,10.588240623474121,1.7324036359786987,-0.08614161610603333
1761333868021372000,1.161371826171875,11.169695854187012,1.6007983684539795,-0.014356935396790504
1761333868040072000,1.180072021484375,11.483156204223633,1.4811571836471558,-0.18424734473228455
1761333868058772200,1.198772216796875,11.21515941619873,1.5002998113632202,-0.44745782017707825
1761333868077472300,1.21747216796875,10.49970531463623,1.5936198234558105,-0.760917603969574
1761333868096172300,1.23617236328125,9.889535903930664,1.6366907358169556,-0.8398807644844055
1761333868114872600,1.25487255859375,9.58325481414795,1.667797327041626,-0.7561319470405579
1761333868133572600,1.273572509765625,9.44447135925293,1.7826528549194336,-0.48095735907554626
1761333868152273000,1.29227294921875,9.317651748657227,1.8807586431503296,-0.17706887423992157
1761333868170973000,1.310972900390625,9.269794464111328,1.919043779373169,-0.05503492057323456
1761333868189673200,1.329673095703125,9.281759262084961,1.9812572002410889,-0.22013968229293823
1761333868208373200,1.348373291015625,9.473184585571289,2.029113531112671,-0.3278166949748993
1761333868227073300,1.3670732421875,9.664610862731934,1.9716858863830566,-0.24167509377002716
1761333868245773600,1.385773681640625,9.779465675354004,2.0554347038269043,-0.24885354936122894
1761333868264473600,1.4044736328125,9.647860527038574,2.0554347038269043,-0.27756741642951965
1761333868283173600,1.423173583984375,9.640682220458984,2.029113531112671,-0.3732803463935852
1761333868301874000,1.4418740234375,9.877572059631348,2.00518536567688,-0.6652047038078308
1761333868320574000,1.460573974609375,10.188638687133789,1.9214365482330322,-0.5479564070701599
1761333868339274200,1.479274169921875,10.250852584838867,1.9692929983139038,-0.34695929288864136
1761333868357974300,1.497974365234375,10.179067611694336,2.043470621109009,-0.27038896083831787
1761333868376674600,1.516674560546875,10.169496536254883,2.007578134536743,-0.17228323221206665
1761333868395374600,1.53537451171875,10.126425743103027,1.978864312171936,0.14835500717163086
1761333868414074600,1.55407470703125,9.812965393066406,1.9142581224441528,0.5455635786056519
1761333868432775000,1.57277490234375,9.329615592956543,1.8305093050003052,0.5335994362831116
1761333868451475000,1.591474853515625,9.066405296325684,1.7228323221206665,0.4737788736820221
1761333868470175000,1.610175048828125,9.006584167480469,1.6103696823120117,0.5288137793540955
1761333868488875300,1.628875244140625,9.22433090209961,1.6247265338897705,0.5838487148284912
1761333868507575300,1.6475751953125,9.80100154876709,1.588834285736084,0.7345965504646301
1761333868526275600,1.666275634765625,10.293923377990723,1.5840486288070679,0.6149554252624512
1761333868544975600,1.6849755859375,10.459028244018555,1.7252250909805298,0.550349235534668
1761333868563676000,1.703676025390625,10.243673324584961,1.8759729862213135,0.5359922647476196
1761333868582376000,1.7223759765625,9.66221809387207,1.9573289155960083,0.3086741268634796
1761333868601076000,1.741075927734375,9.166903495788574,1.8640087842941284,0.24885354936122894
1761333868619776300,1.7597763671875,8.74337387084961,1.825723648071289,0.09810572862625122
1761333868638476300,1.778476318359375,8.599804878234863,1.7443677186965942,-0.04307080805301666
1761333868657176300,1.79717626953125,8.50169849395752,1.6821542978286743,-0.10289137065410614
1761333868675876600,1.815876708984375,8.638090133666992,1.6773686408996582,-0.15314064919948578
1761333868694576600,1.83457666015625,8.82233715057373,1.672582983970642,0.04546362906694412
1761333868713277000,1.85327685546875,9.396614074707031,1.7826528549194336,0.4043870270252228
1761333868731977000,1.87197705078125,10.375279426574707,2.062613010406494,0.7657032608985901
1761333868750677200,1.89067724609375,11.406585693359375,2.3090739250183105,0.8662018179893494
1761333868769377300,1.909377197265625,11.775080680847168,2.4526431560516357,0.7106683254241943
1761333868788077600,1.92807763671875,11.167303085327148,2.7349963188171387,0.1459621787071228
1761333868806777600,1.946777587890625,10.119247436523438,2.967100143432617,-0.21296121180057526
1761333868825477600,1.9654775390625,9.08554744720459,3.105883836746216,-0.20338992774486542
1761333868844178000,1.984177978515625,8.449056625366211,3.115455150604248,0.1052841991186142
1761333868862878000,2.0028779296875,8.23130989074707,2.8283164501190186,0.34217363595962524
1761333868881578000,2.021577880859375,8.403593063354492,2.526820659637451,0.2679961323738098
1761333868900278300,2.0402783203125,8.851051330566406,2.0745773315429688,0.08374879509210587
1761333868918978300,2.058978271484375,9.671789169311523,1.730010747909546,-0.12203395366668701
1761333868937678600,2.0776787109375,10.526026725769043,1.4572290182113647,-0.14356936514377594
1761333868956378600,2.096378662109375,11.294122695922852,1.2083754539489746,-0.05024927482008934
1761333868975079000,2.115078857421875,11.341979026794434,1.1102696657180786,-0.1579262912273407
1761333868993779000,2.133779052734375,10.590633392333984,1.1676974296569824,-0.363709032535553
1761333869012479000,2.15247900390625,9.645467758178711,1.2658032178878784,-0.4426721930503845
1761333869031179300,2.17117919921875,9.164510726928711,1.435693621635437,-0.2967100143432617
1761333869049879300,2.18987939453125,9.052047729492188,1.5553346872329712,0.17706887423992157
1761333869068579300,2.208579345703125,8.96112060546875,1.7395820617675781,0.6652047038078308
1761333869087279600,2.227279541015625,8.827122688293457,1.919043779373169,0.973878800868988
1761333869105979600,2.245979736328125,8.776873588562012,2.1535403728485107,1.098305583000183
1761333869124680000,2.264679931640625,9.073583602905273,2.3569302558898926,1.0791629552841187
1761333869143380000,2.2833798828125,9.511469841003418,2.313859462738037,0.9332008361816406
1761333869162080300,2.302080322265625,9.789037704467773,2.210968017578125,0.7250252366065979
1761333869180780300,2.3207802734375,9.908679008483887,2.1918256282806396,0.38285163044929504
1761333869199480600,2.33948046875,9.736394882202148,2.1583259105682373,0.06699903309345245
1761333869218180600,2.3581806640625,9.430113792419434,2.196611166000366,-0.2392822653055191
1761333869236880600,2.376880615234375,9.329615592956543,2.155933141708374,-0.2727817893028259
1761333869255581000,2.395580810546875,9.482755661010742,2.1296122074127197,-0.20099709928035736
1761333869274281000,2.414281005859375,9.686145782470703,2.076970100402832,-0.07657032459974289
1761333869292981000,2.43298095703125,9.712467193603516,2.0985054969787598,-0.08135596662759781
1761333869311681300,2.451681396484375,9.707681655883789,2.201396942138672,-0.20338992774486542
1761333869330381300,2.47038134765625,9.844072341918945,2.2157537937164307,-0.380458801984787
1761333869349081600,2.48908154296875,10.198209762573242,2.062613010406494,-0.397208571434021
1761333869367781600,2.50778173828125,10.459028244018555,1.9262222051620483,-0.1866401731967926
1761333869386482000,2.52648193359375,10.112068176269531,1.8496519327163696,0.009571290574967861
1761333869405182000,2.545181884765625,9.504291534423828,2.0267207622528076,0.06699903309345245
1761333869423882200,2.56388232421875,9.42772102355957,2.069791555404663,-0.1986042857170105
1761333869442582300,2.582582275390625,9.714859962463379,1.978864312171936,-0.30149564146995544
1761333869461282300,2.6012822265625,10.001998901367188,1.7060825824737549,-0.09092725813388824
1761333869479982600,2.619982666015625,9.963713645935059,1.7180466651916504,0.0933200865983963
1761333869498682600,2.6386826171875,9.8871431350708,1.832902193069458,0.24167509377002716
1761333869517382700,2.657382568359375,9.664610862731934,1.8640087842941284,0.15074782073497772
1761333869536083000,2.6760830078125,9.475577354431152,1.8831514120101929,0.17946170270442963
1761333869554783000,2.694782958984375,9.360722541809082,1.9022940397262573,0.28953152894973755
1761333869573483300,2.713483154296875,9.355937004089355,2.0793628692626953,0.31106695532798767
1761333869592183300,2.732183349609375,9.540184020996094,2.148754835128784,0.3326023519039154
1761333869610883600,2.750883544921875,9.597611427307129,2.0315065383911133,0.4426721930503845
1761333869629583600,2.76958349609375,9.602396965026855,2.1056840419769287,0.13878370821475983
1761333869648284000,2.788283935546875,9.765109062194824,2.1822543144226074,-0.08135596662759781
1761333869666984000,2.80698388671875,10.030712127685547,2.1990039348602295,-0.18903298676013947
1761333869685684000,2.82568408203125,10.188638687133789,2.0506489276885986,-0.1986042857170105
1761333869704384300,2.84438427734375,10.03549861907959,1.9812572002410889,-0.24167509377002716
1761333869723084300,2.863084228515625,9.832108497619629,2.007578134536743,-0.4259224236011505
1761333869741784600,2.88178466796875,9.956535339355469,2.0195422172546387,-0.5312066078186035
1761333869760484600,2.900484619140625,10.147960662841797,1.97407865524292,-0.38763725757598877
1761333869779184600,2.9191845703125,10.03549861907959,1.9692929983139038,-0.2967100143432617
1761333869797885000,2.937885009765625,9.820143699645996,2.007578134536743,-0.2991028428077698
1761333869816585000,2.9565849609375,9.597611427307129,2.0578274726867676,-0.31106695532798767
1761333869835285200,2.97528515625,9.497113227844238,2.0673987865448,-0.349352091550827
1761333869853985300,2.9939853515625,9.430113792419434,2.043470621109009,-0.4019941985607147
1761333869872685600,3.012685546875,9.308079719543457,2.0673987865448,-0.39481574296951294
1761333869891385600,3.031385498046875,9.391828536987305,2.029113531112671,-0.26560330390930176
1761333869910085600,3.050085693359375,9.377471923828125,1.9142581224441528,-0.2871387302875519
1761333869928786000,3.068785888671875,9.394221305847168,1.9214365482330322,-0.46899324655532837
1761333869947486000,3.08748583984375,9.578469276428223,1.8113667964935303,-0.45942193269729614
1761333869966186200,3.106186279296875,9.796216011047363,1.8185452222824097,-0.31106695532798767
1761333869984886300,3.12488623046875,9.805787086486816,1.9357935190200806,-0.22013968229293823
1761333870003586300,3.14358642578125,9.762716293334961,2.0865414142608643,-0.09810572862625122
1761333870022286600,3.16228662109375,9.750752449035645,2.218146562576294,-0.08614161610603333
1761333870040986600,3.180986572265625,9.717252731323242,2.3617160320281982,-0.12203395366668701
1761333870059687000,3.19968701171875,9.784252166748047,2.4023938179016113,0.04307080805301666
1761333870078387000,3.218386962890625,9.822537422180176,2.4646072387695312,0.07178468257188797
1761333870097087200,3.237087158203125,9.817750930786133,2.407179594039917,0.08853443711996078
1761333870115787300,3.255787353515625,9.667003631591797,2.328216314315796,-0.035892341285943985
1761333870134487600,3.274487548828125,9.518648147583008,2.328216314315796,-0.04785645380616188
1761333870153187600,3.2931875,9.564111709594727,2.251646041870117,0.031106693670153618
1761333870171887600,3.3118876953125,9.604789733886719,2.163111686706543,0.062213387340307236
1761333870190588000,3.330587890625,9.54496955871582,2.1056840419769287,-0.01196411345154047
1761333870209288000,3.349287841796875,9.425328254699707,2.242074728012085,-0.1459621787071228
1761333870227988000,3.367988037109375,9.372686386108398,2.280359983444214,-0.05024927482008934
1761333870246688300,3.386688232421875,9.42054271697998,2.2372891902923584,-0.07657032459974289
1761333870265388300,3.40538818359375,9.645467758178711,2.062613010406494,-0.11724831163883209
1761333870284088600,3.424088623046875,9.798608779907227,2.0195422172546387,-0.02632104977965355
1761333870302788600,3.44278857421875,9.781859397888184,2.2229323387145996,-0.01196411345154047
1761333870321489000,3.461489013671875,9.722038269042969,2.366501569747925,0.0526420995593071
1761333870340189000,3.48018896484375,9.745966911315918,2.3162522315979004,0.19381862878799438
1761333870358889200,3.49888916015625,9.671789169311523,2.1894326210021973,0.1459621787071228
1761333870377589200,3.51758935546875,9.521040916442871,2.091326951980591,0.12681959569454193
1761333870396289300,3.536289306640625,9.499505996704102,2.069791555404663,0.16271193325519562
1761333870414989600,3.554989501953125,9.667003631591797,2.093719720840454,0.20099709928035736
1761333870433689600,3.573689697265625,9.870393753051758,2.2085752487182617,0.24167509377002716
1761333870452390000,3.592389892578125,9.961320877075195,2.258824586868286,0.4019941985607147
1761333870471090000,3.61108984375,9.836894035339355,2.3545374870300293,0.4139583110809326
1761333870489790000,3.6297900390625,9.66221809387207,2.337787628173828,0.37088751792907715
1761333870508490200,3.648490234375,9.600004196166992,2.2612173557281494,0.27756741642951965
1761333870527190300,3.667190185546875,9.647860527038574,2.146361827850342,0.275174617767334
1761333870545890600,3.685890625,9.585647583007812,2.053041934967041,0.23449662327766418
1761333870564590600,3.704590576171875,9.55214786529541,2.076970100402832,0.15314064919948578
1761333870583291000,3.723290771484375,9.588040351867676,2.0817556381225586,0.16510476171970367
1761333870601991000,3.741990966796875,9.717252731323242,2.117648124694824,0.20817556977272034
1761333870620691200,3.760691162109375,9.745966911315918,2.1750757694244385,0.32542386651039124
1761333870639391200,3.77939111328125,9.604789733886719,2.251646041870117,0.31824541091918945
1761333870658091500,3.798091552734375,9.554540634155273,2.3162522315979004,0.31106695532798767
1761333870676792000,3.8167919921875,9.784252166748047,2.311466693878174,0.4259224236011505
1761333870695491600,3.83549169921875,9.81535816192627,2.311466693878174,0.34217363595962524
1761333870714192000,3.85419189453125,9.614361763000488,2.337787628173828,0.28953152894973755
1761333870732892000,3.872891845703125,9.437292098999023,2.3401806354522705,0.22971096634864807
1761333870751592000,3.891592041015625,9.571290969848633,2.304288148880005,0.26560330390930176
1761333870770292200,3.910292236328125,9.798608779907227,2.227717876434326,0.3445664644241333
1761333870788992300,3.9289921875,9.748359680175781,2.1894326210021973,0.30628129839897156
1761333870807692500,3.947692626953125,9.485149383544922,2.1822543144226074,0.2153540402650833
1761333870826392600,3.966392578125,9.33440113067627,2.1535403728485107,0.1746760457754135
1761333870845092900,3.9850927734375,9.396614074707031,2.115255117416382,0.09092725813388824
1761333870863793000,4.00379296875,9.626325607299805,2.03629207611084,0.13639089465141296
1761333870882493200,4.0224931640625,9.915857315063477,2.00518536567688,0.10289137065410614
1761333870901193200,4.041193115234375,9.872786521911621,2.076970100402832,0.014356935396790504
1761333870919893500,4.0598935546875,9.686145782470703,2.2157537937164307,-0.09571290761232376
1761333870938593500,4.078593505859375,9.442078590393066,2.2923240661621094,-0.0526420995593071
1761333870957293800,4.0972939453125,9.623932838439941,2.2947168350219727,0.12442677468061447
1761333870975993900,4.115993896484375,9.834501266479492,2.3162522315979004,0.20578274130821228
1761333870994694000,4.13469384765625,9.762716293334961,2.337787628173828,0.1746760457754135
1761333871013394200,4.153394287109375,9.521040916442871,2.3234307765960693,0.13878370821475983
1761333871032094200,4.17209423828125,9.346364974975586,2.256431818008423,0.11724831163883209
1761333871050794200,4.190794189453125,9.34875774383545,2.1846470832824707,0.064606212079525
1761333871069494500,4.20949462890625,9.602396965026855,2.124826431274414,0.09571290761232376
1761333871088194600,4.228194580078125,9.8871431350708,2.0506489276885986,0.15074782073497772
1761333871106894800,4.246894775390625,9.958928108215332,2.069791555404663,0.1818545162677765
1761333871125595000,4.265594970703125,9.973284721374512,2.1607189178466797,0.2727817893028259
1761333871144295200,4.284295166015625,9.9469633102417,2.2540390491485596,0.27756741642951965
1761333871162995200,4.3029951171875,9.868000984191895,2.359323024749756,0.22013968229293823
1761333871181695500,4.321695556640625,9.863214492797852,2.2947168350219727,0.20578274130821228
1761333871200395500,4.3403955078125,9.789037704467773,2.1918256282806396,0.03349951654672623
1761333871219095800,4.359095703125,9.54496955871582,2.132004976272583,-0.11246266216039658
1761333871237795800,4.3777958984375,9.351150512695312,2.069791555404663,-0.0526420995593071
1761333871256496000,4.39649609375,9.291330337524414,2.0578274726867676,0.0023928226437419653
1761333871275196200,4.415196044921875,9.33440113067627,2.0410776138305664,-0.02632104977965355
1761333871293896400,4.433896484375,9.410971641540527,2.060220241546631,-0.009571290574967861
1761333871312596500,4.452596435546875,9.564111709594727,2.1056840419769287,0.02392822690308094
1761333871331296500,4.471296630859375,9.717252731323242,2.256431818008423,0.11724831163883209
1761333871349996800,4.489996826171875,9.741181373596191,2.335394859313965,0.1698904037475586
1761333871368696800,4.50869677734375,9.824930191040039,2.3641088008880615,0.16031911969184875
1761333871387396900,4.52739697265625,9.944570541381836,2.3497519493103027,0.18424734473228455
1761333871406097200,4.54609716796875,9.836894035339355,2.328216314315796,0.19142581522464752
1761333871424797200,4.564797119140625,9.564111709594727,2.359323024749756,0.17228323221206665
1761333871443497500,4.58349755859375,9.480362892150879,2.2947168350219727,0.15553347766399384
1761333871462197500,4.602197509765625,9.590433120727539,2.2396819591522217,0.13878370821475983
1761333871480897800,4.620897705078125,9.580862045288086,2.225325107574463,0.12203395366668701
1761333871499597800,4.639597900390625,9.525827407836914,2.2325034141540527,0.12203395366668701
1761333871518298000,4.658298095703125,9.53061294555664,2.2779672145843506,0.07417750358581543
1761333871536998100,4.676998046875,9.626325607299805,2.289931297302246,0.035892341285943985
1761333871555698200,4.6956982421875,9.760323524475098,2.2923240661621094,0.08614161610603333
1761333871574398500,4.7143984375,9.839286804199219,2.266003131866455,0.22971096634864807
1761333871593098500,4.733098388671875,9.908679008483887,2.328216314315796,0.3445664644241333
1761333871611798800,4.751798828125,9.664610862731934,2.3569302558898926,0.2512463629245758
1761333871630498800,4.770498779296875,9.353543281555176,2.4335005283355713,0.1459621787071228
1761333871649199000,4.78919921875,9.286544799804688,2.445464849472046,0.07896314561367035
1761333871667899100,4.807899169921875,9.585647583007812,2.3473589420318604,0.1698904037475586
1761333871686599400,4.826599365234375,9.937392234802246,2.2707886695861816,0.2799602448940277
1761333871705299500,4.845299560546875,9.999606132507324,2.321038007736206,0.2799602448940277
1761333871723999700,4.863999755859375,9.65503978729248,2.368894338607788,0.2153540402650833
1761333871742699800,4.88269970703125,9.365508079528809,2.421536445617676,0.16510476171970367
1761333871761400000,4.901400146484375,9.372686386108398,2.383251428604126,0.13639089465141296
1761333871780100000,4.92010009765625,9.55214786529541,2.3473589420318604,0.09571290761232376
1761333871798800100,4.938800048828125,9.681360244750977,2.2947168350219727,0.15314064919948578
1761333871817500400,4.95750048828125,9.657432556152344,2.2755744457244873,0.11724831163883209
1761333871836200400,4.976200439453125,9.559326171875,2.297109842300415,0.062213387340307236
1761333871854900700,4.994900634765625,9.528220176696777,2.3306093215942383,0.10289137065410614
1761333871873600800,5.013600830078125,9.540184020996094,2.313859462738037,0.19381862878799438
1761333871892300800,5.03230078125,9.482755661010742,2.344966173171997,0.2225325107574463
1761333871911001000,5.0510009765625,9.454042434692383,2.4119651317596436,0.24406790733337402
1761333871929701000,5.069701171875,9.521040916442871,2.447857618331909,0.21774685382843018
1761333871948401400,5.0884013671875,9.585647583007812,2.4023938179016113,0.24167509377002716
1761333871967101400,5.107101318359375,9.571290969848633,2.3976082801818848,0.21774685382843018
1761333871985801700,5.1258017578125,9.56889820098877,2.414358139038086,0.15074782073497772
1761333872004501800,5.144501708984375,9.55214786529541,2.3880369663238525,0.05742774158716202
1761333872023202000,5.1632021484375,9.564111709594727,2.3712873458862305,0.02392822690308094
1761333872041902000,5.181902099609375,9.667003631591797,2.3234307765960693,0.08374879509210587
1761333872060602400,5.200602294921875,9.753145217895508,2.321038007736206,0.04546362906694412
1761333872079302400,5.219302490234375,9.789037704467773,2.342573404312134,0.0933200865983963
1761333872098002700,5.238002685546875,9.78664493560791,2.390429735183716,0.08614161610603333
1761333872116702700,5.25670263671875,9.7005033493042,2.4095723628997803,0.1459621787071228
1761333872135403000,5.275403076171875,9.53061294555664,2.421536445617676,0.13160525262355804
1761333872154103000,5.29410302734375,9.363115310668945,2.4335005283355713,0.15314064919948578
1761333872172803000,5.312802978515625,9.45164966583252,2.3497519493103027,0.16510476171970367
1761333872191503400,5.33150341796875,9.667003631591797,2.2540390491485596,0.14356936514377594
1761333872210203400,5.350203369140625,9.722038269042969,2.2683959007263184,0.16749759018421173
1761333872228903700,5.368903564453125,9.585647583007812,2.3258235454559326,0.1339980661869049
1761333872247603700,5.387603759765625,9.432506561279297,2.335394859313965,0.02153540402650833
1761333872266304000,5.406303955078125,9.487542152404785,2.3641088008880615,0.009571290574967861
1761333872285004000,5.425004150390625,9.652647018432617,2.3330020904541016,0.1339980661869049
1761333872303704300,5.443704345703125,9.745966911315918,2.407179594039917,0.12203395366668701
1761333872322404400,5.462404296875,9.717252731323242,2.3976082801818848,0.1698904037475586
1761333872341104600,5.481104736328125,9.647860527038574,2.3856441974639893,0.12203395366668701
1761333872359804700,5.4998046875,9.619147300720215,2.2923240661621094,0.14117653667926788
1761333872378505000,5.5185048828125,9.616754531860352,2.2396819591522217,0.1459621787071228
1761333872397205000,5.537205078125,9.556933403015137,2.234896421432495,0.19621145725250244
1761333872415905300,5.5559052734375,9.454042434692383,2.311466693878174,0.21774685382843018
1761333872434605300,5.574605224609375,9.442078590393066,2.3401806354522705,0.11964113265275955
1761333872453305300,5.593305419921875,9.650253295898438,2.2851455211639404,0.13878370821475983
1761333872472005400,5.61200537109375,9.961320877075195,2.242074728012085,0.20817556977272034
1761333872490705700,5.63070556640625,9.90149974822998,2.287538528442383,0.20099709928035736
1761333872509406000,5.649406005859375,9.611968994140625,2.359323024749756,0.10767702013254166
1761333872528106000,5.66810595703125,9.506684303283691,2.3856441974639893,0.07417750358581543
1761333872546806300,5.68680615234375,9.528220176696777,2.3784656524658203,0.09092725813388824
1761333872565506300,5.70550634765625,9.588040351867676,2.3258235454559326,0.16271193325519562
1761333872584206600,5.72420654296875,9.638289451599121,2.3401806354522705,0.1746760457754135
1761333872602906600,5.74290673828125,9.722038269042969,2.311466693878174,0.24885354936122894
1761333872621607000,5.76160693359375,9.731609344482422,2.306680917739868,0.2512463629245758
1761333872640307000,5.780306884765625,9.66221809387207,2.3234307765960693,0.19621145725250244
1761333872659007000,5.799007080078125,9.53779125213623,2.3234307765960693,0.1698904037475586
1761333872677707300,5.817707275390625,9.499505996704102,2.297109842300415,0.22971096634864807
1761333872696407300,5.8364072265625,9.659825325012207,2.3090739250183105,0.26081767678260803
1761333872715107600,5.855107666015625,9.76989459991455,2.2851455211639404,0.24406790733337402
1761333872733807600,5.8738076171875,9.650253295898438,2.3234307765960693,0.19381862878799438
1761333872752508000,5.8925078125,9.482755661010742,2.3497519493103027,0.24406790733337402
1761333872771208000,5.9112080078125,9.53061294555664,2.304288148880005,0.2512463629245758
1761333872789908200,5.929908203125,9.714859962463379,2.2085752487182617,0.25363919138908386
1761333872808608300,5.948608154296875,9.767501831054688,2.2468605041503906,0.2225325107574463
1761333872827308500,5.96730859375,9.698110580444336,2.2085752487182617,0.23449662327766418
1761333872846008600,5.986008544921875,9.623932838439941,2.201396942138672,0.19142581522464752
1761333872864708900,6.004708984375,9.547362327575684,2.179861545562744,0.1579262912273407
1761333872883409000,6.023408935546875,9.549755096435547,2.210968017578125,0.22971096634864807
1761333872902109000,6.04210888671875,9.528220176696777,2.273181438446045,0.19621145725250244
1761333872920809200,6.060809326171875,9.56650447845459,2.2612173557281494,0.15074782073497772
1761333872939509200,6.07950927734375,9.631111145019531,2.2612173557281494,0.17228323221206665
1761333872958209500,6.09820947265625,9.667003631591797,2.297109842300415,0.16749759018421173
1761333872976909600,6.11690966796875,9.7005033493042,2.280359983444214,0.2225325107574463
1761333872995609900,6.13560986328125,9.580862045288086,2.2540390491485596,0.22013968229293823
1761333873014310000,6.154309814453125,9.523433685302734,2.273181438446045,0.2273181527853012
1761333873033010200,6.17301025390625,9.509077072143555,2.2396819591522217,0.24167509377002716
1761333873051710200,6.191710205078125,9.561718940734863,2.256431818008423,0.17946170270442963
1761333873070410500,6.210410400390625,9.748359680175781,2.2707886695861816,0.11724831163883209
1761333873089110500,6.229110595703125,9.930213928222656,2.249253273010254,0.12442677468061447
1761333873107810800,6.247810791015625,9.877572059631348,2.234896421432495,0.11964113265275955
1761333873126510800,6.2665107421875,9.781859397888184,2.258824586868286,0.24885354936122894
1761333873145211100,6.285211181640625,9.68375301361084,2.2468605041503906,0.12681959569454193
1761333873163911200,6.3039111328125,9.533005714416504,2.2612173557281494,0.19142581522464752
1761333873182611500,6.322611572265625,9.446864128112793,2.328216314315796,0.2225325107574463
1761333873201311500,6.3413115234375,9.485149383544922,2.289931297302246,0.11964113265275955
1761333873220011800,6.36001171875,9.67657470703125,2.2085752487182617,0.12921242415905
1761333873238711800,6.3787119140625,9.824930191040039,2.1535403728485107,0.2392822653055191
1761333873257412000,6.397412109375,9.69093132019043,2.194218397140503,0.16271193325519562
1761333873276112100,6.416112060546875,9.403793334960938,2.2851455211639404,0.07657032459974289
1761333873294812200,6.434812255859375,9.305686950683594,2.344966173171997,0.11006984114646912
1761333873313512400,6.453512451171875,9.4061861038208,2.3234307765960693,0.11724831163883209
1761333873332212500,6.47221240234375,9.623932838439941,2.2923240661621094,0.12442677468061447
1761333873350912800,6.490912841796875,9.762716293334961,2.3186452388763428,0.16031911969184875
1761333873369612800,6.50961279296875,9.879964828491211,2.256431818008423,0.15553347766399384
1761333873388313000,6.52831298828125,9.860821723937988,2.227717876434326,0.059820566326379776
1761333873407013000,6.54701318359375,9.69093132019043,2.1990039348602295,0.03349951654672623
1761333873425713400,6.56571337890625,9.590433120727539,2.179861545562744,0.04546362906694412
1761333873444413400,6.584413330078125,9.56650447845459,2.1655044555664062,0.07657032459974289
1761333873463113700,6.60311376953125,9.56650447845459,2.194218397140503,0.11724831163883209
1761333873481813800,6.621813720703125,9.564111709594727,2.234896421432495,0.13160525262355804
1761333873500514000,6.64051416015625,9.56889820098877,2.287538528442383,0.13878370821475983
1761333873519214000,6.659214111328125,9.667003631591797,2.282752752304077,0.15553347766399384
1761333873537914400,6.677914306640625,9.731609344482422,2.280359983444214,0.17228323221206665
1761333873556614400,6.696614501953125,9.745966911315918,2.227717876434326,0.13639089465141296
1761333873575314700,6.715314697265625,9.698110580444336,2.2061824798583984,0.11724831163883209
1761333873594014700,6.7340146484375,9.729216575622559,2.1535403728485107,0.12921242415905
1761333873612715000,6.752715087890625,9.664610862731934,2.1918256282806396,0.10049854964017868
1761333873631415000,6.7714150390625,9.604789733886719,2.1822543144226074,0.16271193325519562
1761333873650115300,6.790115234375,9.623932838439941,2.2061824798583984,0.16749759018421173
1761333873668815400,6.8088154296875,9.56889820098877,2.2133610248565674,0.22492532432079315
1761333873687515600,6.827515625,9.559326171875,2.2229323387145996,0.13878370821475983
1761333873706215700,6.846215576171875,9.66939640045166,2.2325034141540527,0.20099709928035736
1761333873724916000,6.864916015625,9.731609344482422,2.2157537937164307,0.2153540402650833
1761333873743616000,6.883615966796875,9.695717811584473,2.210968017578125,0.24646073579788208
1761333873762316300,6.90231640625,9.686145782470703,2.2301106452941895,0.2105683982372284
1761333873781016300,6.921016357421875,9.659825325012207,2.2157537937164307,0.20817556977272034
1761333873799716600,6.939716552734375,9.664610862731934,2.2540390491485596,0.15553347766399384
1761333873818416600,6.958416748046875,9.554540634155273,2.2396819591522217,0.16749759018421173
1761333873837117000,6.977116943359375,9.535398483276367,2.2636101245880127,0.20338992774486542
1761333873855817000,6.99581689453125,9.588040351867676,2.2157537937164307,0.19381862878799438
1761333873874517200,7.014517333984375,9.68375301361084,2.227717876434326,0.22013968229293823
1761333873893217300,7.03321728515625,9.650253295898438,2.2683959007263184,0.22492532432079315
1761333873911917600,7.05191748046875,9.487542152404785,2.3018953800201416,0.07178468257188797
1761333873930617600,7.07061767578125,9.614361763000488,2.2301106452941895,0.02632104977965355
1761333873949318000,7.08931787109375,9.920642852783203,2.1056840419769287,0.13639089465141296
1761333873968018000,7.108017822265625,9.91825008392334,2.1583259105682373,0.1746760457754135
1761333873986718200,7.12671826171875,9.712467193603516,2.251646041870117,0.12203395366668701
1761333874005418200,7.145418212890625,9.415757179260254,2.337787628173828,0.08614161610603333
1761333874024118500,7.164118408203125,9.370293617248535,2.3569302558898926,0.1339980661869049
1761333874042818600,7.182818603515625,9.518648147583008,2.311466693878174,0.1698904037475586
1761333874061518800,7.201518798828125,9.78664493560791,2.2468605041503906,0.17946170270442963
1761333874080219000,7.220218994140625,9.848857879638672,2.2396819591522217,0.20099709928035736
1761333874098919000,7.2389189453125,9.753145217895508,2.2325034141540527,0.20338992774486542
1761333874117619200,7.257619140625,9.580862045288086,2.2851455211639404,0.16031911969184875
1761333874136319500,7.276319580078125,9.559326171875,2.234896421432495,0.10767702013254166
1761333874155019500,7.29501953125,9.628718376159668,2.2133610248565674,0.10289137065410614
1761333874173719800,7.3137197265625,9.69093132019043,2.234896421432495,0.12921242415905
1761333874192419800,7.332419921875,9.652647018432617,2.2636101245880127,0.11246266216039658
1761333874211120000,7.3511201171875,9.609575271606445,2.280359983444214,0.13160525262355804
1761333874229820200,7.369820068359375,9.509077072143555,2.3162522315979004,0.14356936514377594
1761333874248520400,7.3885205078125,9.470791816711426,2.306680917739868,0.19142581522464752
1761333874267220500,7.407220458984375,9.66939640045166,2.2923240661621094,0.20338992774486542
1761333874285920800,7.425920654296875,9.8871431350708,2.2372891902923584,0.24406790733337402
1761333874304620800,7.444620849609375,9.829715728759766,2.282752752304077,0.1818545162677765
1761333874323321000,7.463321044921875,9.66939640045166,2.273181438446045,0.16510476171970367
1761333874342021000,7.482021240234375,9.564111709594727,2.2851455211639404,0.09092725813388824
1761333874360721400,7.500721435546875,9.623932838439941,2.258824586868286,0.13639089465141296
1761333874379421400,7.51942138671875,9.600004196166992,2.2995026111602783,0.12921242415905
1761333874398121700,7.538121826171875,9.542576789855957,2.3162522315979004,0.14835500717163086
1761333874416821800,7.55682177734375,9.523433685302734,2.2947168350219727,0.1866401731967926
1761333874435522000,7.57552197265625,9.580862045288086,2.3018953800201416,0.18424734473228455
1761333874454222000,7.59422216796875,9.628718376159668,2.297109842300415,0.19381862878799438
1761333874472922400,7.61292236328125,9.657432556152344,2.2707886695861816,0.17706887423992157
1761333874491622400,7.631622314453125,9.681360244750977,2.289931297302246,0.19381862878799438
1761333874510322700,7.65032275390625,9.698110580444336,2.280359983444214,0.18903298676013947
1761333874529022700,7.669022705078125,9.633503913879395,2.313859462738037,0.12681959569454193
1761333874547723000,7.687722900390625,9.609575271606445,2.282752752304077,0.09571290761232376
1761333874566423000,7.706423095703125,9.561718940734863,2.2995026111602783,0.17228323221206665
1761333874585123300,7.725123291015625,9.475577354431152,2.3258235454559326,0.2273181527853012
1761333874603823400,7.7438232421875,9.473184585571289,2.3306093215942383,0.1339980661869049
1761333874622523600,7.762523681640625,9.66939640045166,2.2636101245880127,0.12442677468061447
1761333874641223700,7.7812236328125,9.915857315063477,2.203789710998535,0.2153540402650833
1761333874659924000,7.799924072265625,9.990034103393555,2.2755744457244873,0.3038884699344635
1761333874678624000,7.8186240234375,9.906285285949707,2.3497519493103027,0.24885354936122894
1761333874697324300,7.83732421875,9.614361763000488,2.4358935356140137,0.2679961323738098
1761333874716024600,7.856024658203125,9.41336441040039,2.5052852630615234,0.12921242415905
1761333874734724600,7.874724609375,9.42054271697998,2.4023938179016113,0.035892341285943985
1761333874753424600,7.893424560546875,9.403793334960938,2.352144718170166,0.07657032459974289
1761333874772125000,7.912125,9.477970123291016,2.304288148880005,0.08374879509210587
1761333874790825000,7.930824951171875,9.597611427307129,2.287538528442383,0.17228323221206665
1761333874809525200,7.949525146484375,9.590433120727539,2.344966173171997,0.12203395366668701
1761333874828225300,7.968225341796875,9.592825889587402,2.3712873458862305,0.17228323221206665
1761333874846925600,7.986925537109375,9.67657470703125,2.400001049041748,0.27038896083831787
1761333874865625600,8.00562548828125,9.710074424743652,2.4335005283355713,0.22492532432079315
1761333874884326000,8.024325927734376,9.585647583007812,2.4287149906158447,0.18903298676013947
1761333874903026000,8.04302587890625,9.55214786529541,2.4263222217559814,0.2273181527853012
1761333874921726200,8.061726318359375,9.549755096435547,2.4119651317596436,0.1986042857170105
1761333874940426200,8.08042626953125,9.561718940734863,2.421536445617676,0.1579262912273407
1761333874959126500,8.09912646484375,9.571290969848633,2.421536445617676,0.19381862878799438
1761333874977826600,8.11782666015625,9.580862045288086,2.392822742462158,0.2153540402650833
1761333874996526800,8.13652685546875,9.638289451599121,2.3712873458862305,0.2105683982372284
1761333875015227000,8.155226806640625,9.66221809387207,2.3712873458862305,0.20578274130821228
1761333875033927200,8.17392724609375,9.635896682739258,2.4047868251800537,0.2153540402650833
1761333875052627500,8.19262744140625,9.58325481414795,2.3976082801818848,0.1698904037475586
1761333875071327500,8.211327392578125,9.542576789855957,2.4287149906158447,0.1818545162677765
1761333875090027800,8.23002783203125,9.497113227844238,2.3952155113220215,0.18424734473228455
1761333875108727800,8.248727783203124,9.521040916442871,2.3952155113220215,0.16031911969184875
1761333875127428000,8.267427978515625,9.616754531860352,2.3545374870300293,0.17946170270442963
1761333875146128100,8.286128173828125,9.659825325012207,2.3880369663238525,0.22013968229293823
1761333875164828400,8.304828369140624,9.53779125213623,2.431107759475708,0.15553347766399384
1761333875183528400,8.323528564453126,9.585647583007812,2.4095723628997803,0.16271193325519562
1761333875202228700,8.342228759765625,9.745966911315918,2.416750907897949,0.2512463629245758
1761333875220928800,8.3609287109375,9.717252731323242,2.4119651317596436,0.19142581522464752
1761333875239629000,8.379629150390626,9.523433685302734,2.414358139038086,0.23210379481315613
1761333875258329000,8.3983291015625,9.343972206115723,2.4406790733337402,0.26081767678260803
1761333875277029400,8.417029296875,9.367900848388672,2.495713949203491,0.16271193325519562
1761333875295729400,8.4357294921875,9.549755096435547,2.3712873458862305,0.11724831163883209
1761333875314429700,8.4544296875,9.827322959899902,2.266003131866455,0.1698904037475586
1761333875333130000,8.4731298828125,9.978070259094238,2.3306093215942383,0.26560330390930176
1761333875351830000,8.491830078125,9.738788604736328,2.4263222217559814,0.21774685382843018
1761333875370530300,8.5105302734375,9.42772102355957,2.4813570976257324,0.16510476171970367
1761333875389230300,8.529230224609375,9.468399047851562,2.50289249420166,0.17706887423992157
1761333875407930400,8.547930419921874,9.578469276428223,2.469393014907837,0.20578274130821228
1761333875426630700,8.566630615234375,9.609575271606445,2.4670002460479736,0.17706887423992157
1761333875445330700,8.58533056640625,9.7005033493042,2.407179594039917,0.24646073579788208
1761333875464031000,8.604031005859374,9.707681655883789,2.3808584213256836,0.17946170270442963
1761333875482731000,8.62273095703125,9.57607650756836,2.407179594039917,0.16510476171970367
1761333875501431300,8.641431396484375,9.425328254699707,2.4191436767578125,0.16510476171970367
1761333875520131600,8.660131591796874,9.430113792419434,2.383251428604126,0.16510476171970367
1761333875538831600,8.67883154296875,9.549755096435547,2.3736801147460938,0.1818545162677765
1761333875557532000,8.697531982421875,9.698110580444336,2.4191436767578125,0.2679961323738098
1761333875576232000,8.71623193359375,9.643074989318848,2.462214469909668,0.28235307335853577
1761333875594932200,8.73493212890625,9.528220176696777,2.4813570976257324,0.20578274130821228
1761333875613632300,8.75363232421875,9.55214786529541,2.4670002460479736,0.20817556977272034
1761333875632332500,8.77233251953125,9.600004196166992,2.3976082801818848,0.2512463629245758
1761333875651032600,8.791032470703126,9.705288887023926,2.3952155113220215,0.23210379481315613
1761333875669732900,8.80973291015625,9.66221809387207,2.3952155113220215,0.20817556977272034
1761333875688433000,8.828432861328125,9.56889820098877,2.390429735183716,0.2727817893028259
1761333875707133200,8.84713330078125,9.631111145019531,2.4095723628997803,0.2799602448940277
1761333875725833200,8.865833251953125,9.578469276428223,2.4335005283355713,0.23210379481315613
1761333875744533500,8.884533447265625,9.497113227844238,2.455035924911499,0.20338992774486542
1761333875763233500,8.903233642578124,9.525827407836914,2.447857618331909,0.19381862878799438
1761333875781933800,8.921933837890625,9.638289451599121,2.4047868251800537,0.2105683982372284
1761333875800634000,8.940634033203125,9.66939640045166,2.3641088008880615,0.18424734473228455
1761333875819334100,8.959334228515624,9.580862045288086,2.3952155113220215,0.11964113265275955
1761333875838034400,8.978034423828126,9.578469276428223,2.421536445617676,0.1986042857170105
1761333875856734500,8.996734375,9.638289451599121,2.4287149906158447,0.22492532432079315
1761333875875434800,9.015434814453124,9.595218658447266,2.4119651317596436,0.28235307335853577
1761333875894134800,9.034134765625,9.597611427307129,2.4263222217559814,0.23449662327766418
1761333875912835000,9.0528349609375,9.561718940734863,2.414358139038086,0.2560320198535919
1761333875931535000,9.07153515625,9.387042999267578,2.4406790733337402,0.24646073579788208
1761333875950235400,9.0902353515625,9.34875774383545,2.4837498664855957,0.20338992774486542
1761333875968935400,9.108935302734375,9.616754531860352,2.4335005283355713,0.16510476171970367
1761333875987635700,9.1276357421875,9.889535903930664,2.3162522315979004,0.15074782073497772
1761333876006335700,9.146335693359376,10.030712127685547,2.3018953800201416,0.20817556977272034
1761333876025036000,9.1650361328125,9.844072341918945,2.421536445617676,0.2584248483181
1761333876043736300,9.183736328125,9.425328254699707,2.5124638080596924,0.16510476171970367
1761333876062436400,9.202436279296874,9.190832138061523,2.531606435775757,0.12442677468061447
1761333876081136600,9.22113671875,9.317651748657227,2.500499725341797,0.2392822653055191
1761333876099836700,9.239836669921875,9.56650447845459,2.455035924911499,0.24406790733337402
1761333876118537000,9.258536865234374,9.714859962463379,2.390429735183716,0.2871387302875519
1761333876137237000,9.277237060546875,9.698110580444336,2.3808584213256836,0.2584248483181
1761333876155937300,9.295937255859375,9.652647018432617,2.4023938179016113,0.2153540402650833
1761333876174637300,9.31463720703125,9.58325481414795,2.366501569747925,0.16749759018421173
1761333876193337600,9.333337646484376,9.7005033493042,2.3234307765960693,0.16271193325519562
1761333876212037600,9.35203759765625,9.645467758178711,2.3569302558898926,0.16749759018421173
1761333876230738000,9.370738037109374,9.535398483276367,2.4095723628997803,0.2225325107574463
1761333876249438200,9.389438232421876,9.480362892150879,2.376072883605957,0.2105683982372284
1761333876268138200,9.40813818359375,9.501898765563965,2.407179594039917,0.1818545162677765
1761333876286838300,9.42683837890625,9.54496955871582,2.4047868251800537,0.24885354936122894
1761333876305538600,9.44553857421875,9.664610862731934,2.352144718170166,0.28953152894973755
1761333876324238800,9.46423876953125,9.755537986755371,2.335394859313965,0.275174617767334
1761333876342939000,9.48293896484375,9.7005033493042,2.3617160320281982,0.2679961323738098
1761333876361639000,9.501638916015626,9.628718376159668,2.3784656524658203,0.27038896083831787
1761333876380339200,9.520339111328125,9.616754531860352,2.4047868251800537,0.3158525824546814
1761333876399039500,9.53903955078125,9.590433120727539,2.421536445617676,0.24167509377002716
1761333876417739500,9.557739501953124,9.540184020996094,2.4023938179016113,0.2105683982372284
1761333876436439800,9.576439697265625,9.547362327575684,2.376072883605957,0.20817556977272034
1761333876455139800,9.595139892578125,9.549755096435547,2.400001049041748,0.1698904037475586
1761333876473840000,9.613840087890624,9.485149383544922,2.3712873458862305,0.20338992774486542
1761333876492540200,9.6325400390625,9.523433685302734,2.392822742462158,0.23688943684101105
1761333876511240400,9.651240478515625,9.741181373596191,2.392822742462158,0.33499518036842346
1761333876529940500,9.6699404296875,9.851250648498535,2.3784656524658203,0.2632105052471161
1761333876548640800,9.688640869140626,9.738788604736328,2.3880369663238525,0.23688943684101105
1761333876567340800,9.7073408203125,9.633503913879395,2.416750907897949,0.16510476171970367
1761333876586041000,9.726041015625,9.736394882202148,2.3545374870300293,0.19381862878799438
1761333876604741000,9.7447412109375,9.592825889587402,2.4047868251800537,0.27756741642951965
1761333876623441400,9.76344140625,9.315258979797363,2.486142635345459,0.20338992774486542
1761333876642141700,9.7821416015625,9.312865257263184,2.392822742462158,0.12681959569454193
1761333876660841700,9.800841796875,9.80817985534668,2.280359983444214,0.26081767678260803
1761333876679542000,9.8195419921875,9.978070259094238,2.3090739250183105,0.36610186100006104
1761333876698242000,9.838241943359375,9.647860527038574,2.445464849472046,0.3158525824546814
1761333876716942300,9.8569423828125,9.351150512695312,2.5196423530578613,0.275174617767334
1761333876735642400,9.875642333984375,9.41336441040039,2.493321180343628,0.24167509377002716
1761333876754342700,9.8943427734375,9.480362892150879,2.4047868251800537,0.1746760457754135
1761333876773042700,9.913042724609374,9.616754531860352,2.4263222217559814,0.19142581522464752
1761333876791743000,9.931742919921875,9.789037704467773,2.3641088008880615,0.2584248483181
1761333876810443000,9.950443115234375,9.616754531860352,2.328216314315796,0.22492532432079315
1761333876829143300,9.969143310546874,9.446864128112793,2.3473589420318604,0.08853443711996078
1761333876847843600,9.987843505859376,9.509077072143555,2.304288148880005,0.05742774158716202
1761333876866543600,10.006543701171875,9.667003631591797,2.306680917739868,0.2273181527853012
1761333876885244000,10.025243896484374,9.693324089050293,2.392822742462158,0.24646073579788208
1761333876903970600,10.043970458984376,9.906285285949707,2.3306093215942383,0.31106695532798767
1761333876922644200,10.062644287109375,9.841679573059082,2.4287149906158447,0.275174617767334
