time,seconds_elapsed,z,y,x
1761315241271474000,0.066473876953125,-0.8545379638671875,-0.417572021484375,0.054595947265625
1761315241281521200,0.076521240234375,-0.8652496337890625,-0.4329376220703125,0.0511474609375
1761315241291568000,0.086568115234375,-0.862091064453125,-0.43798828125,0.045135498046875
1761315241301615000,0.096614990234375,-0.8700408935546875,-0.43475341796875,0.0342864990234375
1761315241311662800,0.106662841796875,-0.8768310546875,-0.4246978759765625,0.0232696533203125
1761315241321709800,0.116709716796875,-0.8759307861328125,-0.4157257080078125,0.0177459716796875
1761315241331756800,0.1267568359375,-0.870330810546875,-0.412109375,0.014862060546875
1761315241341804800,0.1368046875,-0.872894287109375,-0.414398193359375,0.0276031494140625
1761315241351851800,0.146851806640625,-0.87994384765625,-0.4224700927734375,0.048004150390625
1761315241361898800,0.156898681640625,-0.8929901123046875,-0.4282379150390625,0.0640716552734375
1761315241371945700,0.16694580078125,-0.905364990234375,-0.432220458984375,0.075225830078125
1761315241381993700,0.17699365234375,-0.9123992919921875,-0.4479522705078125,0.0826416015625
1761315241392040700,0.187040771484375,-0.9098358154296875,-0.4632568359375,0.086090087890625
1761315241402087700,0.197087646484375,-0.908538818359375,-0.472564697265625,0.0881805419921875
1761315241412136000,0.207135986328125,-0.91973876953125,-0.4779815673828125,0.0872650146484375
1761315241422183000,0.217182861328125,-0.93365478515625,-0.48382568359375,0.0809783935546875
1761315241432229600,0.227229736328125,-0.9360809326171875,-0.483795166015625,0.07318115234375
1761315241442276600,0.237276611328125,-0.940826416015625,-0.4721527099609375,0.06878662109375
1761315241452324600,0.24732470703125,-0.9529266357421875,-0.4586334228515625,0.0625457763671875
1761315241462371800,0.257371826171875,-0.946258544921875,-0.451751708984375,0.0614013671875
1761315241472418800,0.267418701171875,-0.9378509521484375,-0.4509429931640625,0.063873291015625
1761315241482466800,0.277466796875,-0.924530029296875,-0.445831298828125,0.0619964599609375
1761315241492513500,0.287513427734375,-0.8974761962890625,-0.437744140625,0.058013916015625
1761315241502560500,0.297560546875,-0.8643341064453125,-0.4328765869140625,0.050201416015625
1761315241512607700,0.307607666015625,-0.84075927734375,-0.4337005615234375,0.040191650390625
1761315241522655700,0.31765576171875,-0.8184814453125,-0.43865966796875,0.039520263671875
1761315241532702700,0.32770263671875,-0.8265838623046875,-0.4449462890625,0.0497894287109375
1761315241542749700,0.337749755859375,-0.8364715576171875,-0.442413330078125,0.046478271484375
1761315241552797700,0.347797607421875,-0.843719482421875,-0.437255859375,0.054412841796875
1761315241562844700,0.3578447265625,-0.8634033203125,-0.4352874755859375,0.0684661865234375
1761315241572891600,0.3678916015625,-0.86651611328125,-0.42633056640625,0.0673980712890625
1761315241582938600,0.377938720703125,-0.851104736328125,-0.4128875732421875,0.06658935546875
1761315241592987000,0.38798681640625,-0.8414306640625,-0.40435791015625,0.06402587890625
1761315241603033900,0.398033935546875,-0.836181640625,-0.4080352783203125,0.0657958984375
1761315241613080800,0.408080810546875,-0.8294677734375,-0.417816162109375,0.0744476318359375
1761315241623128600,0.418128662109375,-0.829345703125,-0.42364501953125,0.0826263427734375
1761315241633175600,0.428175537109375,-0.83514404296875,-0.426788330078125,0.0956878662109375
1761315241643222800,0.438222900390625,-0.8569183349609375,-0.4347686767578125,0.113372802734375
1761315241653269800,0.448269775390625,-0.8784332275390625,-0.439910888671875,0.1259002685546875
1761315241663317800,0.45831787109375,-0.8851165771484375,-0.43524169921875,0.1172943115234375
1761315241673364700,0.46836474609375,-0.88446044921875,-0.4250335693359375,0.0978851318359375
1761315241683411700,0.47841162109375,-0.8755035400390625,-0.4246063232421875,0.0850067138671875
1761315241693458700,0.488458740234375,-0.8769378662109375,-0.4317474365234375,0.0767364501953125
1761315241703506700,0.498506591796875,-0.8868408203125,-0.4280548095703125,0.062042236328125
1761315241713553700,0.5085537109375,-0.8917999267578125,-0.4179534912109375,0.0460357666015625
1761315241723600600,0.5186005859375,-0.9060821533203125,-0.41497802734375,0.0351104736328125
1761315241733649000,0.52864892578125,-0.9162445068359375,-0.41510009765625,0.0323333740234375
1761315241743695600,0.538695556640625,-0.9064483642578125,-0.4113006591796875,0.0335235595703125
1761315241753742600,0.54874267578125,-0.896026611328125,-0.405059814453125,0.032562255859375
1761315241763789600,0.55878955078125,-0.880584716796875,-0.4034881591796875,0.0236968994140625
1761315241773837800,0.568837890625,-0.848358154296875,-0.405914306640625,0.018646240234375
1761315241783884800,0.578884765625,-0.8395233154296875,-0.4042205810546875,0.011871337890625
1761315241793931800,0.588931884765625,-0.8729095458984375,-0.4095916748046875,0.0138702392578125
1761315241803979500,0.5989794921875,-0.955902099609375,-0.430999755859375,0.03216552734375
1761315241814026800,0.60902685546875,-1.0435333251953125,-0.4284515380859375,0.055572509765625
1761315241824073700,0.61907373046875,-1.047271728515625,-0.42205810546875,0.077850341796875
1761315241834120700,0.62912060546875,-1.0570526123046875,-0.4153900146484375,0.0721435546875
1761315241844168700,0.639168701171875,-1.035980224609375,-0.3881378173828125,0.0991058349609375
1761315241854215700,0.649215576171875,-1.0100860595703125,-0.3813934326171875,0.126312255859375
1761315241864263000,0.659262939453125,-1.00347900390625,-0.4085540771484375,0.1202239990234375
1761315241874310700,0.669310546875,-0.9702301025390625,-0.4593505859375,0.0966796875
1761315241884357600,0.679357666015625,-0.936248779296875,-0.497894287109375,0.0720672607421875
1761315241894404600,0.689404541015625,-0.951934814453125,-0.5082244873046875,0.0550994873046875
1761315241904451600,0.69945166015625,-1.008697509765625,-0.4953460693359375,0.045379638671875
1761315241914499800,0.709499755859375,-1.04791259765625,-0.4657745361328125,0.0435028076171875
1761315241924546800,0.719546875,-1.074676513671875,-0.441741943359375,0.0348358154296875
1761315241934593800,0.72959375,-1.099639892578125,-0.43267822265625,0.0230560302734375
1761315241944641800,0.739641845703125,-1.0940399169921875,-0.41748046875,0.010894775390625
1761315241954688800,0.749688720703125,-1.087554931640625,-0.385345458984375,-0.008087158203125
1761315241964735700,0.75973583984375,-1.0603485107421875,-0.3509674072265625,-0.028961181640625
1761315241974782700,0.76978271484375,-1.0185699462890625,-0.32470703125,-0.043731689453125
1761315241984830700,0.779830810546875,-0.9820556640625,-0.3007659912109375,-0.0514678955078125
1761315241994877700,0.789877685546875,-0.9431915283203125,-0.280609130859375,-0.048126220703125
1761315242004924700,0.799924560546875,-0.9074859619140625,-0.2770233154296875,-0.025238037109375
1761315242014971600,0.8099716796875,-0.88714599609375,-0.2928314208984375,0
1761315242025019600,0.82001953125,-0.8533477783203125,-0.3079833984375,0.02020263671875
1761315242035066600,0.830066650390625,-0.8231658935546875,-0.307891845703125,0.023223876953125
1761315242045113900,0.84011376953125,-0.81524658203125,-0.30047607421875,0.01995849609375
1761315242055161600,0.85016162109375,-0.7995147705078125,-0.30841064453125,0.023193359375
1761315242065208600,0.86020849609375,-0.8121337890625,-0.33697509765625,0.0385894775390625
1761315242075255600,0.870255615234375,-0.8292236328125,-0.3558197021484375,0.0477142333984375
1761315242085302800,0.880302734375,-0.8309173583984375,-0.3572540283203125,0.0489501953125
1761315242095350800,0.890350830078125,-0.824737548828125,-0.3491058349609375,0.044830322265625
1761315242105397800,0.900397705078125,-0.795074462890625,-0.334075927734375,0.0536346435546875
1761315242115444700,0.91044482421875,-0.820831298828125,-0.3596343994140625,0.0931396484375
1761315242125492700,0.92049267578125,-0.8435211181640625,-0.3801727294921875,0.084442138671875
1761315242135539700,0.930539794921875,-0.8008270263671875,-0.3580169677734375,0.041168212890625
1761315242145586700,0.940586669921875,-0.800994873046875,-0.3402252197265625,-0.0045166015625
1761315242155633700,0.950633544921875,-0.81671142578125,-0.3387908935546875,-0.033203125
1761315242165682000,0.960681884765625,-0.84637451171875,-0.355255126953125,-0.034271240234375
1761315242175729000,0.97072900390625,-0.87371826171875,-0.36712646484375,-0.007904052734375
1761315242185775900,0.98077587890625,-0.8788299560546875,-0.355804443359375,0.0242156982421875
1761315242195823600,0.99082373046875,-0.8993988037109375,-0.335357666015625,0.0207672119140625
1761315242205870600,1.00087060546875,-0.9019622802734375,-0.317718505859375,0.022735595703125
1761315242215917800,1.010917724609375,-0.8793792724609375,-0.319580078125,0.0395355224609375
1761315242225964800,1.02096484375,-0.8697052001953125,-0.3339691162109375,0.0495147705078125
1761315242236012800,1.0310126953125,-0.8671875,-0.349884033203125,0.058441162109375
1761315242246059800,1.041059814453125,-0.8808135986328125,-0.3629608154296875,0.061553955078125
1761315242256106500,1.0511064453125,-0.8765411376953125,-0.3691558837890625,0.0598297119140625
1761315242266154800,1.06115478515625,-0.8676300048828125,-0.3744354248046875,0.0596771240234375
1761315242276201700,1.07120166015625,-0.869781494140625,-0.385528564453125,0.0666961669921875
1761315242286248700,1.081248779296875,-0.8648681640625,-0.405487060546875,0.0718994140625
1761315242296295700,1.091295654296875,-0.8558807373046875,-0.4265289306640625,0.0673065185546875
1761315242306343700,1.10134375,-0.8516387939453125,-0.43853759765625,0.0587921142578125
1761315242316390700,1.111390625,-0.8561859130859375,-0.4410247802734375,0.037353515625
1761315242326442000,1.12144189453125,-0.864837646484375,-0.4373626708984375,0.010009765625
1761315242336490000,1.131489990234375,-0.8611907958984375,-0.4330291748046875,-0.003997802734375
1761315242346537000,1.141536865234375,-0.8691864013671875,-0.4291534423828125,-0.0155487060546875
1761315242356584200,1.151584228515625,-0.880126953125,-0.423492431640625,-0.016876220703125
1761315242366631000,1.161630859375,-0.885284423828125,-0.4187164306640625,-0.0109710693359375
1761315242376679000,1.171678955078125,-0.882080078125,-0.4210357666015625,0.0038604736328125
1761315242386726000,1.181725830078125,-0.8888397216796875,-0.423828125,0.0217437744140625
1761315242396772900,1.19177294921875,-0.8935394287109375,-0.4237518310546875,0.0353546142578125
1761315242406821000,1.201821044921875,-0.8973236083984375,-0.4244842529296875,0.044891357421875
1761315242416868000,1.2118681640625,-0.916748046875,-0.4176177978515625,0.043243408203125
1761315242426914800,1.221914794921875,-0.9196624755859375,-0.4056243896484375,0.037933349609375
1761315242436961800,1.2319619140625,-0.9093475341796875,-0.39837646484375,0.03839111328125
1761315242447010000,1.242010009765625,-0.9241790771484375,-0.399261474609375,0.0436248779296875
1761315242457057000,1.25205712890625,-0.9428253173828125,-0.4107818603515625,0.0572967529296875
1761315242467104000,1.26210400390625,-0.9568023681640625,-0.4185333251953125,0.0678863525390625
1761315242477151000,1.27215087890625,-0.9617767333984375,-0.41583251953125,0.0705413818359375
1761315242487199000,1.282198974609375,-0.969757080078125,-0.408538818359375,0.0711212158203125
1761315242497246000,1.292245849609375,-0.9889068603515625,-0.401519775390625,0.0640869140625
1761315242507293000,1.30229296875,-0.98016357421875,-0.3936309814453125,0.0464935302734375
1761315242517341000,1.3123408203125,-0.9804534912109375,-0.3875885009765625,0.0309906005859375
1761315242527388000,1.322387939453125,-0.989898681640625,-0.3896942138671875,0.0205230712890625
1761315242537435100,1.33243505859375,-1.0106353759765625,-0.390838623046875,0.0249786376953125
1761315242547482000,1.342482177734375,-1.054962158203125,-0.396026611328125,0.03863525390625
1761315242557529900,1.35252978515625,-1.08502197265625,-0.4024810791015625,0.04595947265625
1761315242567576800,1.362576904296875,-1.1150054931640625,-0.3962554931640625,0.0449066162109375
1761315242577624000,1.3726240234375,-1.145599365234375,-0.3805389404296875,0.03076171875
1761315242587672000,1.382672119140625,-1.1463623046875,-0.3678741455078125,0.01092529296875
1761315242597719000,1.392718994140625,-1.1323089599609375,-0.3571014404296875,-0.0070953369140625
1761315242607766000,1.40276611328125,-1.1213531494140625,-0.3383941650390625,-0.02056884765625
1761315242617813000,1.41281298828125,-1.1027069091796875,-0.3170928955078125,-0.03009033203125
1761315242627861000,1.422861083984375,-1.0695953369140625,-0.3040008544921875,-0.035797119140625
1761315242637908000,1.432907958984375,-1.0260467529296875,-0.29669189453125,-0.034637451171875
1761315242647955000,1.442954833984375,-0.9762115478515625,-0.291595458984375,-0.0249786376953125
1761315242658003200,1.453003173828125,-0.9310150146484375,-0.292816162109375,-0.0098876953125
1761315242668050200,1.46305029296875,-0.8902435302734375,-0.3054351806640625,0.0099334716796875
1761315242678097000,1.473096923828125,-0.841949462890625,-0.325042724609375,0.02593994140625
1761315242688144000,1.483143798828125,-0.7980194091796875,-0.33935546875,0.0340576171875
1761315242698192000,1.49319189453125,-0.7630767822265625,-0.34613037109375,0.0397796630859375
1761315242708239000,1.503239013671875,-0.7342071533203125,-0.35186767578125,0.0424652099609375
1761315242718286000,1.5132861328125,-0.721405029296875,-0.367950439453125,0.0478515625
1761315242728333800,1.523333740234375,-0.7380523681640625,-0.3912506103515625,0.054229736328125
1761315242738380800,1.533380859375,-0.7732086181640625,-0.4083709716796875,0.054931640625
1761315242748427800,1.543427734375,-0.7976837158203125,-0.4037322998046875,0.048309326171875
1761315242758475000,1.55347509765625,-0.821075439453125,-0.3907318115234375,0.0417327880859375
1761315242768523000,1.56352294921875,-0.845428466796875,-0.386810302734375,0.0360870361328125
1761315242778570000,1.573570068359375,-0.8650665283203125,-0.392242431640625,0.033050537109375
1761315242788617000,1.583616943359375,-0.887237548828125,-0.39111328125,0.0254364013671875
1761315242798665000,1.5936650390625,-0.910125732421875,-0.3783721923828125,0.015228271484375
1761315242808712000,1.6037119140625,-0.9352264404296875,-0.355621337890625,-0.0042266845703125
1761315242818759000,1.613759033203125,-0.972930908203125,-0.328460693359375,-0.02655029296875
1761315242828806000,1.623805908203125,-1.0045623779296875,-0.298858642578125,-0.050628662109375
1761315242838854100,1.633854248046875,-1.012481689453125,-0.275390625,-0.073211669921875
1761315242848901000,1.643901123046875,-1.0203704833984375,-0.26654052734375,-0.0865020751953125
1761315242858948000,1.653947998046875,-1.0274200439453125,-0.2685699462890625,-0.09259033203125
1761315242868995800,1.663995849609375,-1.018280029296875,-0.2724761962890625,-0.0897674560546875
1761315242879042800,1.674042724609375,-1.0064544677734375,-0.276153564453125,-0.082550048828125
1761315242889090000,1.684090087890625,-0.9869384765625,-0.2794342041015625,-0.070587158203125
1761315242899137000,1.694136962890625,-0.9589080810546875,-0.289886474609375,-0.051666259765625
1761315242909185000,1.70418505859375,-0.93701171875,-0.3058929443359375,-0.034820556640625
1761315242919232000,1.71423193359375,-0.90423583984375,-0.3233184814453125,-0.024810791015625
1761315242929279000,1.724279052734375,-0.8631591796875,-0.3432769775390625,-0.0207061767578125
1761315242939327000,1.734326904296875,-0.8380889892578125,-0.3628082275390625,-0.016876220703125
1761315242949374000,1.7443740234375,-0.8292083740234375,-0.38092041015625,-0.0119171142578125
1761315242959421000,1.7544208984375,-0.8159942626953125,-0.3995819091796875,-0.0063934326171875
1761315242969468000,1.764468017578125,-0.8081512451171875,-0.4141845703125,-0.0021209716796875
1761315242979516000,1.774515869140625,-0.81005859375,-0.421356201171875,-0.002105712890625
1761315242989563000,1.78456298828125,-0.8118438720703125,-0.4245758056640625,-0.001007080078125
1761315242999609900,1.79460986328125,-0.8121185302734375,-0.4319610595703125,0.0007476806640625
1761315243009657900,1.804657958984375,-0.811767578125,-0.4365997314453125,-0.000152587890625
1761315243019705000,1.814705078125,-0.81585693359375,-0.433746337890625,-0.0038604736328125
1761315243029752000,1.824751953125,-0.8105316162109375,-0.4258575439453125,-0.0089111328125
1761315243039799000,1.834799072265625,-0.813568115234375,-0.4185638427734375,-0.0122833251953125
1761315243049846800,1.8448466796875,-0.8310089111328125,-0.4199676513671875,-0.011016845703125
1761315243059894000,1.85489404296875,-0.85455322265625,-0.4303131103515625,-0.00274658203125
1761315243069941000,1.86494091796875,-0.883209228515625,-0.4291229248046875,0.0021820068359375
1761315243079989000,1.874989013671875,-0.9105682373046875,-0.4209747314453125,-0.0012359619140625
1761315243090036000,1.885035888671875,-0.9211578369140625,-0.4188995361328125,-0.008514404296875
1761315243100083000,1.8950830078125,-0.926544189453125,-0.417236328125,-0.0220489501953125
1761315243110130200,1.905130126953125,-0.9263763427734375,-0.4165802001953125,-0.033782958984375
1761315243120178000,1.915177978515625,-0.924774169921875,-0.4239654541015625,-0.0433197021484375
1761315243130225000,1.925224853515625,-0.9408416748046875,-0.426605224609375,-0.0541839599609375
1761315243140271900,1.93527197265625,-0.9526519775390625,-0.421173095703125,-0.0709381103515625
1761315243150320000,1.945320068359375,-0.9524993896484375,-0.4198150634765625,-0.0780029296875
1761315243160367000,1.9553671875,-0.9593505859375,-0.4296875,-0.07769775390625
1761315243170414000,1.9654140625,-0.9559783935546875,-0.4527740478515625,-0.0631561279296875
1761315243180461000,1.9754609375,-0.9681854248046875,-0.47393798828125,-0.0418243408203125
1761315243190509000,1.985509033203125,-0.96484375,-0.4907073974609375,-0.0247955322265625
1761315243200556000,1.99555615234375,-0.944580078125,-0.50640869140625,-0.0118255615234375
1761315243210603000,2.00560302734375,-0.9508056640625,-0.50299072265625,-0.0106048583984375
1761315243220651000,2.015651123046875,-0.9665985107421875,-0.4687347412109375,-0.024688720703125
1761315243230698000,2.025697998046875,-0.983917236328125,-0.42877197265625,-0.056365966796875
1761315243240745000,2.035744873046875,-1.0009613037109375,-0.39990234375,-0.0947418212890625
1761315243250792000,2.0457919921875,-1.012603759765625,-0.3913421630859375,-0.1218719482421875
1761315243260840000,2.05583984375,-1.031280517578125,-0.383514404296875,-0.1351165771484375
1761315243270887000,2.065886962890625,-1.055999755859375,-0.368804931640625,-0.1419525146484375
1761315243280934000,2.075933837890625,-1.065826416015625,-0.35198974609375,-0.15435791015625
1761315243290982000,2.08598193359375,-1.0355072021484375,-0.3244781494140625,-0.1713714599609375
1761315243301028900,2.09602880859375,-0.9983673095703125,-0.2906951904296875,-0.1869354248046875
1761315243311075800,2.106075927734375,-0.9674530029296875,-0.2589111328125,-0.1960906982421875
1761315243321122800,2.116122802734375,-0.938873291015625,-0.242706298828125,-0.192047119140625
1761315243331170800,2.1261708984375,-0.902435302734375,-0.2491607666015625,-0.175262451171875
1761315243341218000,2.136218017578125,-0.8658599853515625,-0.2673492431640625,-0.1517486572265625
1761315243351265000,2.14626513671875,-0.835968017578125,-0.2922210693359375,-0.1240234375
1761315243361312800,2.156312744140625,-0.816070556640625,-0.3159027099609375,-0.1001434326171875
1761315243371359700,2.16635986328125,-0.80914306640625,-0.334075927734375,-0.081268310546875
1761315243381406700,2.17640673828125,-0.8013153076171875,-0.3404083251953125,-0.07342529296875
1761315243391454000,2.186453857421875,-0.796661376953125,-0.346160888671875,-0.074066162109375
1761315243401502000,2.196501953125,-0.7939605712890625,-0.3567047119140625,-0.075531005859375
1761315243411549000,2.206548828125,-0.799713134765625,-0.3676300048828125,-0.080963134765625
1761315243421596000,2.216595947265625,-0.804962158203125,-0.3694305419921875,-0.093475341796875
1761315243431644000,2.226643798828125,-0.8133544921875,-0.3665313720703125,-0.102020263671875
1761315243441691000,2.23669091796875,-0.833770751953125,-0.356292724609375,-0.1110076904296875
1761315243451737900,2.24673779296875,-0.8512420654296875,-0.345184326171875,-0.111907958984375
1761315243461784800,2.256784912109375,-0.866424560546875,-0.3331756591796875,-0.107421875
1761315243471833000,2.2668330078125,-0.8791961669921875,-0.317626953125,-0.1023406982421875
1761315243481880000,2.276880126953125,-0.881378173828125,-0.308013916015625,-0.1009979248046875
1761315243491926800,2.2869267578125,-0.869598388671875,-0.3018646240234375,-0.094696044921875
1761315243501974800,2.296974853515625,-0.8583221435546875,-0.30255126953125,-0.0810089111328125
1761315243512021800,2.307021728515625,-0.850677490234375,-0.3169708251953125,-0.0578460693359375
1761315243522069000,2.317069091796875,-0.837158203125,-0.3393707275390625,-0.0333099365234375
1761315243532116000,2.327115966796875,-0.8372039794921875,-0.359283447265625,-0.007720947265625
1761315243542164000,2.3371640625,-0.85205078125,-0.3748016357421875,0.015869140625
1761315243552210700,2.347210693359375,-0.8675384521484375,-0.3926544189453125,0.0367889404296875
1761315243562258000,2.3572578125,-0.8732147216796875,-0.399200439453125,0.0387725830078125
1761315243572306000,2.367305908203125,-0.860992431640625,-0.393524169921875,0.0325164794921875
1761315243582353000,2.377352783203125,-0.8509674072265625,-0.39404296875,0.023773193359375
1761315243592400000,2.38739990234375,-0.839630126953125,-0.4098968505859375,0.01806640625
1761315243602448000,2.39744775390625,-0.831787109375,-0.42645263671875,0.016082763671875
1761315243612494800,2.407494873046875,-0.8270416259765625,-0.4448089599609375,0.013580322265625
1761315243622541800,2.417541748046875,-0.83319091796875,-0.4580078125,0.0078277587890625
1761315243632588800,2.4275888671875,-0.8333740234375,-0.4567108154296875,-0.0038299560546875
1761315243642636800,2.43763671875,-0.8265533447265625,-0.4537506103515625,-0.0167999267578125
1761315243652684000,2.44768408203125,-0.8294677734375,-0.4526824951171875,-0.022979736328125
1761315243662731000,2.45773095703125,-0.84002685546875,-0.454559326171875,-0.02288818359375
1761315243672778800,2.46777880859375,-0.8538970947265625,-0.45843505859375,-0.020965576171875
1761315243682825700,2.47782568359375,-0.8592529296875,-0.4553680419921875,-0.019744873046875
1761315243692873000,2.487873046875,-0.8638916015625,-0.4413299560546875,-0.021453857421875
1761315243702920000,2.497919921875,-0.86712646484375,-0.428253173828125,-0.02093505859375
1761315243712968000,2.507968017578125,-0.884735107421875,-0.42645263671875,-0.013336181640625
1761315243723015000,2.518014892578125,-0.9037933349609375,-0.4292144775390625,-0.0055389404296875
1761315243733062000,2.528061767578125,-0.9072265625,-0.42437744140625,0.0003204345703125
1761315243743108900,2.53810888671875,-0.92218017578125,-0.41680908203125,0.01031494140625
1761315243753156900,2.548156982421875,-0.940521240234375,-0.4192352294921875,0.0202789306640625
1761315243763203800,2.558203857421875,-0.9473419189453125,-0.4268951416015625,0.032012939453125
1761315243773250800,2.568250732421875,-0.953826904296875,-0.4285888671875,0.0400543212890625
1761315243783299000,2.578299072265625,-0.970245361328125,-0.420379638671875,0.03802490234375
1761315243793346000,2.588345947265625,-0.9733123779296875,-0.407867431640625,0.029388427734375
1761315243803392800,2.598392822265625,-0.9737548828125,-0.3966217041015625,0.01715087890625
1761315243813440800,2.608440673828125,-0.969268798828125,-0.4015350341796875,0.0120697021484375
1761315243823488000,2.618488037109375,-0.9736480712890625,-0.4190673828125,0.01385498046875
1761315243833535000,2.628534912109375,-1.014373779296875,-0.413543701171875,0.006195068359375
1761315243843582000,2.63858203125,-1.042510986328125,-0.3971710205078125,-0.0123291015625
1761315243853630000,2.6486298828125,-1.053314208984375,-0.400665283203125,-0.0275421142578125
1761315243863676700,2.6586767578125,-1.090972900390625,-0.4095306396484375,-0.0379180908203125
1761315243873724000,2.668723876953125,-1.136199951171875,-0.4017333984375,-0.0507659912109375
1761315243883772000,2.67877197265625,-1.1552276611328125,-0.3814849853515625,-0.0701446533203125
1761315243893819000,2.68881884765625,-1.1520843505859375,-0.3604888916015625,-0.0972900390625
1761315243903865900,2.698865966796875,-1.1316070556640625,-0.3457183837890625,-0.120941162109375
1761315243913912800,2.708912841796875,-1.0983734130859375,-0.3325347900390625,-0.1351470947265625
1761315243923960800,2.7189609375,-1.0596160888671875,-0.319427490234375,-0.137603759765625
1761315243934007800,2.7290078125,-1.0168609619140625,-0.3119049072265625,-0.132720947265625
1761315243944054800,2.7390546875,-0.9734954833984375,-0.3165130615234375,-0.117340087890625
1761315243954103000,2.74910302734375,-0.9302215576171875,-0.3268890380859375,-0.096343994140625
1761315243964150000,2.75914990234375,-0.8885650634765625,-0.3343963623046875,-0.0793914794921875
1761315243974197000,2.769197021484375,-0.853912353515625,-0.3364105224609375,-0.0659027099609375
1761315243984244000,2.779243896484375,-0.8270416259765625,-0.336578369140625,-0.0546112060546875
1761315243994291700,2.789291748046875,-0.8117218017578125,-0.338897705078125,-0.0438690185546875
1761315244004339000,2.7993388671875,-0.8034210205078125,-0.3429718017578125,-0.033294677734375
1761315244014386000,2.809385986328125,-0.806884765625,-0.3496551513671875,-0.02203369140625
1761315244024434000,2.819433837890625,-0.808685302734375,-0.3572998046875,-0.0084991455078125
1761315244034481000,2.82948095703125,-0.8100738525390625,-0.36199951171875,0.006256103515625
1761315244044528000,2.839528076171875,-0.820159912109375,-0.3608245849609375,0.016357421875
1761315244054574800,2.849574951171875,-0.834320068359375,-0.360931396484375,0.024078369140625
1761315244064622800,2.859622802734375,-0.85150146484375,-0.3667449951171875,0.0294036865234375
1761315244074669800,2.869669921875,-0.8730010986328125,-0.3748016357421875,0.030364990234375
1761315244084716800,2.879716796875,-0.8939208984375,-0.3746490478515625,0.02069091796875
1761315244094765000,2.88976513671875,-0.9185943603515625,-0.35821533203125,0.0022430419921875
1761315244104812000,2.89981201171875,-0.9510650634765625,-0.3283233642578125,-0.023681640625
1761315244114858800,2.909858642578125,-0.980377197265625,-0.2920074462890625,-0.0522003173828125
1761315244124905700,2.91990576171875,-0.998291015625,-0.2521820068359375,-0.077423095703125
1761315244134954000,2.9299541015625,-1.0099029541015625,-0.216156005859375,-0.0994873046875
1761315244145001000,2.9400009765625,-1.0131378173828125,-0.195281982421875,-0.1141204833984375
1761315244155048000,2.9500478515625,-0.9943389892578125,-0.1940460205078125,-0.1180267333984375
1761315244165095700,2.960095703125,-0.9627227783203125,-0.201568603515625,-0.1086578369140625
1761315244175143000,2.970142822265625,-0.9348602294921875,-0.2144622802734375,-0.0885162353515625
1761315244185190000,2.98018994140625,-0.902862548828125,-0.2371978759765625,-0.063995361328125
1761315244195236900,2.99023681640625,-0.8638458251953125,-0.2587738037109375,-0.044647216796875
1761315244205284900,3.000284912109375,-0.832855224609375,-0.2721710205078125,-0.0315704345703125
1761315244215331800,3.010331787109375,-0.8060302734375,-0.2830810546875,-0.021514892578125
1761315244225379000,3.020379150390625,-0.7841949462890625,-0.30084228515625,-0.004730224609375
1761315244235426800,3.0304267578125,-0.782928466796875,-0.322509765625,0.016204833984375
1761315244245473800,3.040473876953125,-0.7920989990234375,-0.3443450927734375,0.033905029296875
1761315244255520800,3.050520751953125,-0.8077239990234375,-0.3590240478515625,0.04638671875
1761315244265567700,3.060567626953125,-0.8250885009765625,-0.3636932373046875,0.0537109375
1761315244275616000,3.070615966796875,-0.8369598388671875,-0.3660125732421875,0.0534515380859375
1761315244285663000,3.0806630859375,-0.84600830078125,-0.3646392822265625,0.04180908203125
1761315244295710000,3.0907099609375,-0.8568267822265625,-0.35882568359375,0.0273895263671875
1761315244305758000,3.100758056640625,-0.8668212890625,-0.35809326171875,0.0149078369140625
1761315244315805000,3.110804931640625,-0.87347412109375,-0.3651123046875,0.006866455078125
1761315244325852000,3.120851806640625,-0.882659912109375,-0.3733062744140625,0.0010986328125
1761315244335895600,3.1308955078125,-0.8861541748046875,-0.3787841796875,-0.0003814697265625
1761315244345943600,3.140943603515625,-0.8944549560546875,-0.383209228515625,-0.0001373291015625
1761315244355990500,3.150990478515625,-0.9118194580078125,-0.38525390625,-0.0008544921875
1761315244366037200,3.161037353515625,-0.917755126953125,-0.384185791015625,-0.007781982421875
1761315244376085500,3.17108544921875,-0.9228057861328125,-0.380126953125,-0.0150909423828125
1761315244386132500,3.181132568359375,-0.932830810546875,-0.3750152587890625,-0.02532958984375
1761315244396179500,3.191179443359375,-0.9446868896484375,-0.372100830078125,-0.0377349853515625
1761315244406226400,3.201226318359375,-0.956695556640625,-0.370849609375,-0.0466156005859375
1761315244416274400,3.2112744140625,-0.972869873046875,-0.3671722412109375,-0.05279541015625
1761315244426321400,3.2213212890625,-0.993988037109375,-0.364532470703125,-0.05755615234375
1761315244436368400,3.231368408203125,-1.0032958984375,-0.35992431640625,-0.060302734375
1761315244446416400,3.24141650390625,-1.0139617919921875,-0.3509368896484375,-0.059844970703125
1761315244456463600,3.251463623046875,-1.0263214111328125,-0.34552001953125,-0.0544586181640625
1761315244466510600,3.261510498046875,-1.0218658447265625,-0.3613739013671875,-0.0408172607421875
1761315244476557600,3.2715576171875,-1.024017333984375,-0.388702392578125,-0.02569580078125
1761315244486605300,3.281605224609375,-1.0396270751953125,-0.396881103515625,-0.0187530517578125
1761315244496652300,3.29165234375,-1.0439910888671875,-0.392242431640625,-0.016021728515625
1761315244506699500,3.301699462890625,-1.05364990234375,-0.3872222900390625,-0.01904296875
1761315244516747500,3.31174755859375,-1.0756072998046875,-0.38037109375,-0.0285491943359375
1761315244526794500,3.32179443359375,-1.1052093505859375,-0.36761474609375,-0.04925537109375
1761315244536841500,3.331841552734375,-1.131988525390625,-0.34814453125,-0.0799102783203125
1761315244546888700,3.341888671875,-1.152374267578125,-0.3189239501953125,-0.113525390625
1761315244556936400,3.3519365234375,-1.1797943115234375,-0.2835235595703125,-0.148101806640625
1761315244566983400,3.3619833984375,-1.1980133056640625,-0.2443695068359375,-0.1837310791015625
1761315244577030400,3.372030517578125,-1.186614990234375,-0.2071380615234375,-0.2180938720703125
1761315244587078700,3.38207861328125,-1.14691162109375,-0.1792449951171875,-0.2484283447265625
1761315244597125600,3.392125732421875,-1.089569091796875,-0.162445068359375,-0.26513671875
1761315244607172600,3.402172607421875,-1.013946533203125,-0.1563873291015625,-0.2626953125
1761315244617219300,3.41221923828125,-0.940155029296875,-0.167236328125,-0.249481201171875
1761315244627267300,3.422267333984375,-0.86822509765625,-0.186676025390625,-0.233001708984375
1761315244637314600,3.432314453125,-0.7953643798828125,-0.200958251953125,-0.215301513671875
1761315244647361500,3.442361572265625,-0.7296600341796875,-0.2114410400390625,-0.19287109375
1761315244657409500,3.452409423828125,-0.6807861328125,-0.2357635498046875,-0.1696319580078125
1761315244667456500,3.46245654296875,-0.6474609375,-0.272125244140625,-0.1445465087890625
1761315244677503500,3.47250341796875,-0.6472015380859375,-0.3082733154296875,-0.1189727783203125
1761315244687550500,3.482550537109375,-0.6867828369140625,-0.34027099609375,-0.0922088623046875
1761315244697598500,3.492598388671875,-0.7318115234375,-0.359405517578125,-0.0717315673828125
1761315244707645400,3.5026455078125,-0.7750701904296875,-0.368408203125,-0.06475830078125
1761315244717692400,3.5126923828125,-0.8114013671875,-0.3722076416015625,-0.0734710693359375
1761315244727740400,3.522740478515625,-0.83355712890625,-0.3639068603515625,-0.092559814453125
1761315244737787400,3.532787353515625,-0.8392791748046875,-0.3484344482421875,-0.1143341064453125
1761315244747834400,3.54283447265625,-0.8410797119140625,-0.336151123046875,-0.1312255859375
1761315244757881300,3.55288134765625,-0.850433349609375,-0.3284149169921875,-0.1424713134765625
1761315244767929600,3.5629296875,-0.8520660400390625,-0.3217010498046875,-0.143646240234375
1761315244777976600,3.5729765625,-0.8574066162109375,-0.320709228515625,-0.1383209228515625
1761315244788023600,3.5830234375,-0.863861083984375,-0.3186187744140625,-0.13397216796875
1761315244798071300,3.5930712890625,-0.86102294921875,-0.3158111572265625,-0.12982177734375
1761315244808118500,3.603118408203125,-0.856536865234375,-0.316436767578125,-0.1218414306640625
1761315244818165500,3.61316552734375,-0.85888671875,-0.3201904296875,-0.1073150634765625
1761315244828212500,3.62321240234375,-0.8704376220703125,-0.3227081298828125,-0.0891571044921875
1761315244838260500,3.633260498046875,-0.88409423828125,-0.325836181640625,-0.0713348388671875
1761315244848307500,3.643307373046875,-0.887176513671875,-0.32855224609375,-0.053466796875
1761315244858354700,3.653354736328125,-0.8863372802734375,-0.33502197265625,-0.0312652587890625
1761315244868402400,3.66340234375,-0.893707275390625,-0.3402252197265625,-0.0121002197265625
1761315244878449400,3.673449462890625,-0.8942413330078125,-0.344635009765625,0.0062713623046875
1761315244888496400,3.683496337890625,-0.88653564453125,-0.348052978515625,0.0228271484375
1761315244898543400,3.69354345703125,-0.8866424560546875,-0.3579559326171875,0.0348052978515625
1761315244908591600,3.703591552734375,-0.8899078369140625,-0.379730224609375,0.0426483154296875
1761315244918638600,3.713638671875,-0.89434814453125,-0.4017486572265625,0.0427093505859375
1761315244928685300,3.723685302734375,-0.908203125,-0.4084625244140625,0.035552978515625
1761315244938733600,3.733733642578125,-0.9198455810546875,-0.4083099365234375,0.01812744140625
1761315244948780500,3.743780517578125,-0.9256744384765625,-0.4061279296875,-0.0028228759765625
1761315244958827500,3.75382763671875,-0.927459716796875,-0.402313232421875,-0.0222930908203125
1761315244968874500,3.76387451171875,-0.92828369140625,-0.40020751953125,-0.034759521484375
1761315244978922200,3.773922119140625,-0.92926025390625,-0.3971710205078125,-0.0415802001953125
1761315244988969500,3.783969482421875,-0.92193603515625,-0.3912506103515625,-0.0468292236328125
1761315244999016400,3.794016357421875,-0.9169769287109375,-0.3855133056640625,-0.04901123046875
1761315245009063400,3.8040634765625,-0.921356201171875,-0.3769378662109375,-0.046051025390625
1761315245019111400,3.814111328125,-0.927734375,-0.36590576171875,-0.0370635986328125
1761315245029158400,3.824158447265625,-0.92840576171875,-0.356048583984375,-0.0287933349609375
1761315245039205600,3.83420556640625,-0.9407958984375,-0.3512725830078125,-0.01727294921875
1761315245049253400,3.84425341796875,-0.96502685546875,-0.3489990234375,-0.004547119140625
1761315245059300400,3.85430029296875,-0.987457275390625,-0.341949462890625,0.003326416015625
1761315245069347300,3.864347412109375,-1.007598876953125,-0.327056884765625,0.0060577392578125
1761315245079394600,3.87439453125,-1.036376953125,-0.3197174072265625,0.0057373046875
1761315245089442600,3.884442626953125,-1.051177978515625,-0.3207550048828125,0.0083770751953125
1761315245099489500,3.894489501953125,-1.064300537109375,-0.321929931640625,0.01220703125
1761315245109536500,3.90453662109375,-1.0712738037109375,-0.3277587890625,0.0230255126953125
1761315245119584500,3.91458447265625,-1.0887298583984375,-0.3295135498046875,0.033966064453125
1761315245129631500,3.924631591796875,-1.1160736083984375,-0.3190765380859375,0.036346435546875
1761315245139678500,3.934678466796875,-1.134063720703125,-0.2940826416015625,0.027618408203125
1761315245149725400,3.944725341796875,-1.1568145751953125,-0.2646331787109375,0.0104827880859375
1761315245159773700,3.954773681640625,-1.1864776611328125,-0.240753173828125,-0.0078277587890625
1761315245169820700,3.964820556640625,-1.208892822265625,-0.2256317138671875,-0.022857666015625
1761315245179867400,3.974867431640625,-1.2259368896484375,-0.2119598388671875,-0.0378875732421875
1761315245189915400,3.984915283203125,-1.234222412109375,-0.1963348388671875,-0.05218505859375
1761315245199962400,3.99496240234375,-1.212860107421875,-0.178131103515625,-0.0652923583984375
1761315245210009600,4.005009521484375,-1.167205810546875,-0.1608428955078125,-0.074188232421875
1761315245220056600,4.015056640625,-1.1161041259765625,-0.1504364013671875,-0.0765838623046875
1761315245230104300,4.025104248046875,-1.0572052001953125,-0.1484375,-0.069427490234375
1761315245240151300,4.0351513671875,-0.9957427978515625,-0.1483612060546875,-0.0520172119140625
1761315245250198300,4.0451982421875,-0.9393463134765625,-0.150970458984375,-0.0306396484375
1761315245260246500,4.05524658203125,-0.885223388671875,-0.156829833984375,-0.009002685546875
1761315245270293500,4.06529345703125,-0.83966064453125,-0.16455078125,0.014404296875
1761315245280340500,4.075340576171875,-0.806732177734375,-0.1784515380859375,0.040252685546875
1761315245290387500,4.085387451171875,-0.7776336669921875,-0.192779541015625,0.0620269775390625
1761315245300435500,4.095435546875,-0.74920654296875,-0.202392578125,0.0842132568359375
1761315245310482400,4.105482421875,-0.7284088134765625,-0.20916748046875,0.1031951904296875
1761315245320529400,4.115529296875,-0.7171783447265625,-0.214141845703125,0.119049072265625
1761315245330576600,4.12557666015625,-0.703399658203125,-0.2238922119140625,0.140106201171875
1761315245340625000,4.135625,-0.7061920166015625,-0.242034912109375,0.1663360595703125
1761315245350672000,4.145671875,-0.709808349609375,-0.2706756591796875,0.192657470703125
1761315245360718800,4.15571875,-0.7150726318359375,-0.2973480224609375,0.2196197509765625
1761315245370766800,4.165766845703125,-0.7232513427734375,-0.3155517578125,0.2418212890625
1761315245380813800,4.175813720703125,-0.7319488525390625,-0.331390380859375,0.259124755859375
1761315245390860800,4.18586083984375,-0.7503509521484375,-0.344512939453125,0.25677490234375
1761315245400907800,4.19590771484375,-0.7909393310546875,-0.346588134765625,0.232757568359375
1761315245410955800,4.205955810546875,-0.8549041748046875,-0.33563232421875,0.1881866455078125
1761315245421002800,4.216002685546875,-0.92333984375,-0.31011962890625,0.121551513671875
1761315245431049700,4.2260498046875,-0.974700927734375,-0.280914306640625,0.0439605712890625
1761315245441097700,4.23609765625,-0.9950103759765625,-0.2684478759765625,-0.020172119140625
1761315245451144700,4.246144775390625,-0.9991607666015625,-0.257049560546875,-0.065216064453125
1761315245461191700,4.256191650390625,-1.0082244873046875,-0.2466583251953125,-0.0875244140625
1761315245471239000,4.266239013671875,-1.00360107421875,-0.2347259521484375,-0.092010498046875
1761315245481286700,4.27628662109375,-0.9979400634765625,-0.217559814453125,-0.0827484130859375
1761315245491333600,4.286333740234375,-1.01220703125,-0.1934967041015625,-0.06622314453125
1761315245501380600,4.296380615234375,-1.021270751953125,-0.176605224609375,-0.0430450439453125
1761315245511428900,4.306428955078125,-1.037017822265625,-0.1688995361328125,-0.0135040283203125
1761315245521475800,4.316475830078125,-1.052734375,-0.1739044189453125,0.0174713134765625
1761315245531522800,4.326522705078125,-1.073638916015625,-0.186767578125,0.0460357666015625
1761315245541569800,4.33656982421875,-1.10858154296875,-0.1866302490234375,0.0685882568359375
1761315245551617800,4.34661767578125,-1.1280670166015625,-0.175567626953125,0.0791168212890625
1761315245561664800,4.356664794921875,-1.1441192626953125,-0.161712646484375,0.0812835693359375
1761315245571711700,4.366711669921875,-1.1558990478515625,-0.15228271484375,0.075103759765625
1761315245581759700,4.376759765625,-1.1576080322265625,-0.1424560546875,0.064544677734375
1761315245591806700,4.386806640625,-1.1647186279296875,-0.126190185546875,0.0480804443359375
1761315245601854000,4.39685400390625,-1.1648406982421875,-0.111053466796875,0.0288238525390625
1761315245611901000,4.40690087890625,-1.1658782958984375,-0.104156494140625,0.0099639892578125
1761315245621948700,4.41694873046875,-1.1657867431640625,-0.0988311767578125,-0.0086212158203125
1761315245631995600,4.42699560546875,-1.1509246826171875,-0.095794677734375,-0.02337646484375
1761315245642043000,4.43704296875,-1.1373443603515625,-0.1006622314453125,-0.034942626953125
1761315245652089900,4.44708984375,-1.1212158203125,-0.1085205078125,-0.0478363037109375
1761315245662137900,4.457137939453125,-1.0943603515625,-0.1167755126953125,-0.0623626708984375
1761315245672184800,4.467184814453125,-1.0726318359375,-0.123260498046875,-0.0821990966796875
1761315245682231600,4.4772314453125,-1.0515899658203125,-0.12933349609375,-0.0977935791015625
1761315245692279800,4.48727978515625,-1.0446014404296875,-0.1321258544921875,-0.1085205078125
1761315245702326800,4.497326904296875,-1.037994384765625,-0.1352691650390625,-0.1231842041015625
1761315245712373800,4.507373779296875,-1.0215606689453125,-0.13897705078125,-0.125396728515625
1761315245722420700,4.517420654296875,-1.013092041015625,-0.1468353271484375,-0.1148223876953125
1761315245732468700,4.52746875,-1.01165771484375,-0.1598968505859375,-0.0908050537109375
1761315245742515700,4.537515625,-1.012908935546875,-0.1821746826171875,-0.0577850341796875
1761315245752562700,4.547562744140625,-1.011322021484375,-0.2144927978515625,-0.0226287841796875
1761315245762610700,4.557610595703125,-1.030517578125,-0.239471435546875,0.0012359619140625
1761315245772658000,4.567657958984375,-1.0597991943359375,-0.250518798828125,0.008697509765625
1761315245782705000,4.577704833984375,-1.0796661376953125,-0.249420166015625,-0.0003814697265625
1761315245792751900,4.587751953125,-1.099365234375,-0.2324066162109375,-0.02252197265625
1761315245802799600,4.597799560546875,-1.1032257080078125,-0.2061767578125,-0.0527191162109375
1761315245812846600,4.6078466796875,-1.0817718505859375,-0.18511962890625,-0.0767669677734375
1761315245822893800,4.617893798828125,-1.0573577880859375,-0.1814727783203125,-0.0884857177734375
1761315245832940800,4.62794091796875,-1.03240966796875,-0.191192626953125,-0.0905609130859375
1761315245842988800,4.63798876953125,-1.00445556640625,-0.198455810546875,-0.088958740234375
1761315245853035800,4.648035888671875,-0.9718780517578125,-0.188446044921875,-0.0958709716796875
1761315245863082800,4.658082763671875,-0.9324951171875,-0.1672821044921875,-0.1084747314453125
1761315245873130800,4.668130859375,-0.8944244384765625,-0.154083251953125,-0.118011474609375
1761315245883177700,4.678177734375,-0.848602294921875,-0.1644287109375,-0.12042236328125
1761315245893224700,4.688224609375,-0.805938720703125,-0.187896728515625,-0.118804931640625
1761315245903271700,4.698271728515625,-0.7921600341796875,-0.2097625732421875,-0.108367919921875
1761315245913320000,4.70831982421875,-0.78814697265625,-0.230712890625,-0.0968170166015625
1761315245923367000,4.718366943359375,-0.7688751220703125,-0.243896484375,-0.093963623046875
1761315245933413600,4.72841357421875,-0.7495269775390625,-0.2548065185546875,-0.090423583984375
1761315245943461600,4.738461669921875,-0.7520904541015625,-0.27587890625,-0.076629638671875
1761315245953508900,4.7485087890625,-0.7802886962890625,-0.2993621826171875,-0.06353759765625
1761315245963555800,4.758555908203125,-0.80841064453125,-0.3162841796875,-0.0473785400390625
1761315245973602800,4.768602783203125,-0.8425750732421875,-0.3312530517578125,-0.0297393798828125
1761315245983650600,4.778650634765625,-0.8943939208984375,-0.34051513671875,-0.0214691162109375
1761315245993697800,4.78869775390625,-0.931427001953125,-0.3345794677734375,-0.0281982421875
1761315246003744800,4.798744873046875,-0.9618377685546875,-0.3118438720703125,-0.04034423828125
1761315246013791700,4.808791748046875,-0.992889404296875,-0.283843994140625,-0.059967041015625
1761315246023839700,4.81883984375,-1.012725830078125,-0.2572174072265625,-0.08331298828125
1761315246033886700,4.82888671875,-1.006622314453125,-0.240936279296875,-0.0956268310546875
1761315246043934000,4.838933837890625,-0.992095947265625,-0.2373504638671875,-0.09429931640625
1761315246053981700,4.848981689453125,-0.9859466552734375,-0.2357940673828125,-0.0839691162109375
1761315246064028700,4.859028564453125,-0.96343994140625,-0.2379913330078125,-0.0694122314453125
1761315246074075600,4.86907568359375,-0.929107666015625,-0.2456512451171875,-0.0471954345703125
1761315246084122600,4.87912255859375,-0.9025421142578125,-0.2587432861328125,-0.0237579345703125
1761315246094171000,4.8891708984375,-0.8825836181640625,-0.2702484130859375,-0.004638671875
1761315246104217900,4.8992177734375,-0.87176513671875,-0.279327392578125,0.01202392578125
1761315246114264800,4.909264892578125,-0.842681884765625,-0.2883148193359375,0.0258331298828125
1761315246124312800,4.919312744140625,-0.8131103515625,-0.299560546875,0.039520263671875
1761315246134359800,4.92935986328125,-0.7958831787109375,-0.3147125244140625,0.0460205078125
1761315246144406800,4.93940673828125,-0.7867889404296875,-0.3365478515625,0.0495758056640625
1761315246154453800,4.949453857421875,-0.794189453125,-0.3572998046875,0.04901123046875
1761315246164501800,4.959501708984375,-0.8110198974609375,-0.3628692626953125,0.034515380859375
1761315246174549000,4.969549072265625,-0.8249053955078125,-0.3546905517578125,0.0183868408203125
1761315246184595700,4.979595703125,-0.85418701171875,-0.3493804931640625,0.012420654296875
1761315246194642700,4.989642578125,-0.91412353515625,-0.3428192138671875,0.0102386474609375
1761315246204688000,4.99968798828125,-0.9717864990234375,-0.33349609375,0.0094146728515625
1761315246214734800,5.00973486328125,-1.01031494140625,-0.3117523193359375,0.00335693359375
1761315246224782600,5.019782470703125,-1.0255584716796875,-0.284423828125,-0.0102081298828125
1761315246234829600,5.02982958984375,-1.02569580078125,-0.265838623046875,-0.0262603759765625
1761315246244876800,5.039876708984375,-1.0247039794921875,-0.2585906982421875,-0.044097900390625
1761315246254923800,5.049923828125,-1.01800537109375,-0.259490966796875,-0.0543670654296875
1761315246264971800,5.0599716796875,-1.0078125,-0.2648773193359375,-0.063812255859375
1761315246275018800,5.070018798828125,-0.997650146484375,-0.27471923828125,-0.072723388671875
1761315246285065700,5.080065673828125,-0.985076904296875,-0.284332275390625,-0.08123779296875
1761315246295113700,5.09011376953125,-0.9738311767578125,-0.2873992919921875,-0.083251953125
1761315246305160700,5.10016064453125,-0.9856719970703125,-0.2910308837890625,-0.0740203857421875
1761315246315207700,5.110207763671875,-1.0116729736328125,-0.3016815185546875,-0.0677337646484375
1761315246325254700,5.120254638671875,-1.025634765625,-0.3016815185546875,-0.0655364990234375
1761315246335303000,5.130302978515625,-1.0370635986328125,-0.2843017578125,-0.0633087158203125
1761315246345350000,5.140349853515625,-1.050201416015625,-0.2621307373046875,-0.060699462890625
1761315246355396900,5.15039697265625,-1.0516510009765625,-0.2451934814453125,-0.051422119140625
1761315246365443600,5.160443603515625,-1.048065185546875,-0.2318878173828125,-0.0393218994140625
1761315246375491600,5.17049169921875,-1.039154052734375,-0.2202301025390625,-0.0302886962890625
1761315246385538800,5.180538818359375,-1.0233917236328125,-0.2140655517578125,-0.0237274169921875
1761315246395585800,5.190585693359375,-1.0112457275390625,-0.22357177734375,-0.0095062255859375
1761315246405633800,5.2006337890625,-1.0132293701171875,-0.2449798583984375,0.0111236572265625
1761315246415680800,5.2106806640625,-1.02423095703125,-0.255035400390625,0.0188751220703125
1761315246425727500,5.2207275390625,-1.030517578125,-0.2436676025390625,0.0054779052734375
1761315246435774700,5.230774658203125,-1.0284423828125,-0.2274017333984375,-0.0115814208984375
1761315246445822700,5.24082275390625,-1.0245513916015625,-0.2275848388671875,-0.0204010009765625
1761315246455869700,5.25086962890625,-1.015655517578125,-0.2327880859375,-0.0216522216796875
1761315246465916700,5.260916748046875,-1.0033111572265625,-0.2310333251953125,-0.017974853515625
1761315246475964000,5.2709638671875,-0.9884796142578125,-0.223541259765625,-0.01434326171875
1761315246486011600,5.28101171875,-0.97900390625,-0.219451904296875,-0.007781982421875
1761315246496058600,5.29105859375,-0.9567108154296875,-0.225555419921875,0.0034027099609375
1761315246506105600,5.301105712890625,-0.9370574951171875,-0.2357330322265625,0.01788330078125
1761315246516153900,5.31115380859375,-0.9290618896484375,-0.242462158203125,0.031036376953125
1761315246526200800,5.321200927734375,-0.915069580078125,-0.250946044921875,0.04058837890625
1761315246536247800,5.331247802734375,-0.902313232421875,-0.2610626220703125,0.0503997802734375
1761315246546294800,5.341294677734375,-0.900909423828125,-0.27117919921875,0.0626220703125
1761315246556342800,5.3513427734375,-0.906829833984375,-0.273895263671875,0.0718536376953125
1761315246566389800,5.3613896484375,-0.9041290283203125,-0.275604248046875,0.076385498046875
1761315246576436700,5.371436767578125,-0.89556884765625,-0.2786712646484375,0.08349609375
1761315246586483700,5.381483642578125,-0.910064697265625,-0.290435791015625,0.09674072265625
1761315246596531700,5.39153173828125,-0.9363861083984375,-0.3002777099609375,0.105712890625
1761315246606579000,5.401578857421875,-0.9477386474609375,-0.302703857421875,0.1049041748046875
1761315246616625700,5.411625732421875,-0.939483642578125,-0.29730224609375,0.0994110107421875
1761315246626673700,5.421673583984375,-0.929290771484375,-0.2928009033203125,0.096923828125
1761315246636720600,5.431720703125,-0.9244537353515625,-0.2925262451171875,0.0992431640625
1761315246646767600,5.441767578125,-0.9200286865234375,-0.294342041015625,0.100738525390625
1761315246656814800,5.45181494140625,-0.9217681884765625,-0.2972869873046875,0.1054229736328125
1761315246666862800,5.46186279296875,-0.92706298828125,-0.30401611328125,0.10943603515625
1761315246676909600,5.47190966796875,-0.9252166748046875,-0.3050537109375,0.108001708984375
1761315246686956500,5.48195654296875,-0.9198760986328125,-0.2966461181640625,0.1005706787109375
1761315246697003800,5.492003662109375,-0.9183807373046875,-0.290740966796875,0.095184326171875
1761315246707051800,5.5020517578125,-0.916229248046875,-0.293243408203125,0.0965423583984375
1761315246717098800,5.5120986328125,-0.91473388671875,-0.3008880615234375,0.1014404296875
1761315246727145700,5.522145751953125,-0.90924072265625,-0.310394287109375,0.1085052490234375
1761315246737193700,5.53219384765625,-0.904296875,-0.3166961669921875,0.1151275634765625
1761315246747240700,5.54224072265625,-0.9037628173828125,-0.321075439453125,0.1246185302734375
1761315246757287700,5.55228759765625,-0.900604248046875,-0.3267974853515625,0.13348388671875
1761315246767334700,5.562334716796875,-0.8992462158203125,-0.33251953125,0.13922119140625
1761315246777382700,5.572382568359375,-0.90313720703125,-0.3394775390625,0.144439697265625
1761315246787430000,5.582429931640625,-0.90386962890625,-0.3477935791015625,0.14703369140625
1761315246797476900,5.592476806640625,-0.908660888671875,-0.3543243408203125,0.1487884521484375
1761315246807523800,5.60252392578125,-0.9155120849609375,-0.3543701171875,0.1485748291015625
1761315246817572900,5.61257275390625,-0.9308013916015625,-0.348358154296875,0.1431427001953125
1761315246827619800,5.622619873046875,-0.949676513671875,-0.341644287109375,0.1369476318359375
1761315246837666800,5.632666748046875,-0.958770751953125,-0.3340301513671875,0.12908935546875
1761315246847713800,5.6427138671875,-0.9651641845703125,-0.31402587890625,0.1157989501953125
1761315246857761500,5.652761474609375,-0.96942138671875,-0.2982635498046875,0.10443115234375
1761315246867808800,5.662808837890625,-0.973907470703125,-0.2877197265625,0.091033935546875
1761315246877855700,5.672855712890625,-0.971588134765625,-0.2805633544921875,0.0837554931640625
1761315246887903700,5.68290380859375,-0.976165771484375,-0.2803802490234375,0.078857421875
1761315246897950700,5.69295068359375,-0.9706268310546875,-0.2833099365234375,0.071868896484375
1761315246907997700,5.702997802734375,-0.9528961181640625,-0.284698486328125,0.0665740966796875
1761315246918045000,5.713044921875,-0.936859130859375,-0.2845611572265625,0.0561065673828125
1761315246928092700,5.7230927734375,-0.9144134521484375,-0.28424072265625,0.03594970703125
1761315246938139600,5.7331396484375,-0.9022216796875,-0.279571533203125,0.01611328125
1761315246948186600,5.7431865234375,-0.8795166015625,-0.268798828125,-0.0041351318359375
1761315246958235000,5.75323486328125,-0.8638458251953125,-0.2593536376953125,-0.0182037353515625
1761315246968281900,5.76328173828125,-0.8866119384765625,-0.26025390625,-0.0174560546875
1761315246978328800,5.773328857421875,-0.9227447509765625,-0.266448974609375,0.0001220703125
1761315246988375600,5.78337548828125,-0.9461669921875,-0.27587890625,0.021087646484375
1761315246998423800,5.793423828125,-0.973388671875,-0.28924560546875,0.034149169921875
1761315247008470800,5.803470703125,-0.9602508544921875,-0.29150390625,0.0305328369140625
1761315247018517800,5.813517822265625,-0.9280853271484375,-0.2782440185546875,0.0233001708984375
1761315247028564700,5.823564697265625,-0.92657470703125,-0.2659149169921875,0.023529052734375
1761315247038612500,5.833612548828125,-0.9280853271484375,-0.2626953125,0.0205230712890625
1761315247048659700,5.84365966796875,-0.873016357421875,-0.2587890625,0.0134124755859375
1761315247058706700,5.853706787109375,-0.859832763671875,-0.2334136962890625,0.0573272705078125
1761315247068754700,5.863754638671875,-0.9846343994140625,-0.277557373046875,0.0915069580078125
1761315247078801700,5.8738017578125,-0.9898529052734375,-0.344390869140625,0.076080322265625
1761315247088849000,5.883848876953125,-0.9410400390625,-0.37591552734375,0.0557861328125
1761315247098896000,5.893895751953125,-0.90234375,-0.3585357666015625,0.0188751220703125
1761315247108943600,5.903943603515625,-0.8881683349609375,-0.352691650390625,-0.015106201171875
1761315247118990600,5.913990478515625,-0.886962890625,-0.3687896728515625,-0.0496063232421875
1761315247129037600,5.92403759765625,-0.89276123046875,-0.3596954345703125,-0.0743408203125
1761315247139084800,5.934084716796875,-0.910552978515625,-0.359344482421875,-0.08258056640625
1761315247149132800,5.9441328125,-0.967864990234375,-0.3740386962890625,-0.0579071044921875
