time,seconds_elapsed,z,y,x
1761315241276497000,0.071496826171875,0.21655946969985962,-0.2824079990386963,0.033240243792533875
1761315241286545200,0.081545166015625,0.22332975268363953,-0.24183127284049988,0.011803928762674332
1761315241296592000,0.091591796875,0.2222900539636612,-0.17878173291683197,0.006077866069972515
1761315241306638800,0.101638916015625,0.22033317387104034,-0.08801694214344025,0.005832589231431484
1761315241316685800,0.111685791015625,0.229512557387352,0.022789202630519867,0.013263074681162834
1761315241326733800,0.12173388671875,0.26353123784065247,0.140804260969162,0.015143266879022121
1761315241336780800,0.13178076171875,0.3063684403896332,0.23880618810653687,0.0182261411100626
1761315241346827800,0.141827880859375,0.3760702908039093,0.291695773601532,0.02496740221977234
1761315241356875800,0.151875732421875,0.4462083876132965,0.29200175404548645,0.04031253606081009
1761315241366922500,0.161922607421875,0.5257450342178345,0.2586832344532013,0.054065898060798645
1761315241376969700,0.1719697265625,0.6069607734680176,0.22907206416130066,0.06985045224428177
1761315241387016700,0.1820166015625,0.6690662503242493,0.22225330770015717,0.09509801864624023
1761315241397064700,0.192064697265625,0.694051206111908,0.22889204323291779,0.10098147392272949
1761315241407111700,0.202111572265625,0.6719709038734436,0.20057198405265808,0.07449287921190262
1761315241417159000,0.212158935546875,0.6189069151878357,0.13395194709300995,0.02251170016825199
1761315241427206700,0.22220654296875,0.543934166431427,0.0556720495223999,-0.03452868387103081
1761315241437253600,0.232253662109375,0.4434559941291809,-0.0304561760276556,-0.08929365873336792
1761315241447300600,0.242300537109375,0.34279942512512207,-0.13691283762454987,-0.1241254135966301
1761315241457347600,0.25234765625,0.2681955099105835,-0.20161621272563934,-0.1387845128774643
1761315241467395800,0.262395751953125,0.22814156115055084,-0.22032305598258972,-0.1398726850748062
1761315241477442800,0.27244287109375,0.22115927934646606,-0.2003069967031479,-0.1405792236328125
1761315241487489800,0.28248974609375,0.23691268265247345,-0.13801325857639313,-0.15796592831611633
1761315241497536800,0.292536865234375,0.26599839329719543,-0.03820597380399704,-0.2100464403629303
1761315241507584800,0.302584716796875,0.3006674349308014,0.0817345455288887,-0.27695757150650024
1761315241517631700,0.3126318359375,0.3086758255958557,0.22501687705516815,-0.3416699767112732
1761315241527678700,0.3226787109375,0.29061397910118103,0.321171373128891,-0.3976688086986542
1761315241537726700,0.332726806640625,0.25035738945007324,0.3632487654685974,-0.4400191903114319
1761315241547774000,0.34277392578125,0.1964547336101532,0.3636820614337921,-0.44814369082450867
1761315241557820700,0.352820556640625,0.14841316640377045,0.30984681844711304,-0.41865023970603943
1761315241567867600,0.36286767578125,0.12283165007829666,0.2550530731678009,-0.34356215596199036
1761315241577915600,0.37291552734375,0.09573611617088318,0.2512221038341522,-0.2351861447095871
1761315241587962600,0.382962646484375,0.08272150903940201,0.28296247124671936,-0.1278383880853653
1761315241598009900,0.393009765625,0.08895090967416763,0.33454522490501404,-0.03970320522785187
1761315241608057900,0.403057861328125,0.11319047212600708,0.38285815715789795,0.008046208880841732
1761315241618104600,0.4131044921875,0.1583784520626068,0.41425949335098267,0.01606125757098198
1761315241628151600,0.423151611328125,0.19856981933116913,0.40114155411720276,-0.0034474621061235666
1761315241638198500,0.433198486328125,0.23054932057857513,0.3297576606273651,-0.027718447148799896
1761315241648246800,0.443246826171875,0.2443988174200058,0.20962725579738617,-0.04903412237763405
1761315241658293800,0.453293701171875,0.24093139171600342,0.09571294486522675,-0.06145643815398216
1761315241668340700,0.4633408203125,0.23338985443115234,0.024948492646217346,-0.05530613288283348
1761315241678388700,0.473388671875,0.23839685320854187,0.020609138533473015,-0.04068564251065254
1761315241688435700,0.483435791015625,0.25618836283683777,0.04072665795683861,-0.02239079214632511
1761315241698482700,0.493482666015625,0.27431970834732056,0.07029387354850769,-0.014361894689500332
1761315241708529700,0.50352978515625,0.2934640944004059,0.12327799201011658,-0.01642158441245556
1761315241718577700,0.51357763671875,0.3110356330871582,0.168990358710289,-0.017618674784898758
1761315241728625000,0.523625,0.3193122148513794,0.19253429770469666,0.007388141471892595
1761315241738671900,0.533671875,0.3212035894393921,0.22632235288619995,0.04963599517941475
1761315241748719600,0.5437197265625,0.3204011917114258,0.2631871700286865,0.09140048921108246
1761315241758766600,0.5537666015625,0.31859663128852844,0.330321729183197,0.13134923577308655
1761315241768813600,0.5638134765625,0.3118891716003418,0.4425278902053833,0.15200258791446686
1761315241778860800,0.57386083984375,0.3204725384712219,0.5628654956817627,0.12701307237148285
1761315241788908800,0.58390869140625,0.3486216366291046,0.6438066959381104,0.07798454910516739
1761315241798955800,0.593955810546875,0.4241749942302704,0.5957041382789612,0.06462160497903824
1761315241809002800,0.604002685546875,0.610670268535614,0.45314139127731323,0.10899119824171066
1761315241819050800,0.61405078125,0.7611351609230042,0.3468402326107025,0.25351056456565857
1761315241829097700,0.62409765625,0.8606787919998169,0.21519432961940765,0.5441357493400574
1761315241839144700,0.634144775390625,0.8435328602790833,0.14153581857681274,0.9221975803375244
1761315241849191700,0.644191650390625,0.735880434513092,0.12157224118709564,1.2624722719192505
1761315241859240000,0.654239990234375,0.628298819065094,0.11741451174020767,1.4318664073944092
1761315241869286700,0.66428662109375,0.6027731895446777,0.2210298478603363,1.3833215236663818
1761315241879333600,0.674333740234375,0.629498302936554,0.41596418619155884,1.137060284614563
1761315241889380600,0.684380615234375,0.6489279270172119,0.5525164604187012,0.7447876334190369
1761315241899428600,0.6944287109375,0.594749391078949,0.5401934385299683,0.2711105942726135
1761315241909475800,0.704475830078125,0.4365866482257843,0.4190446734428406,-0.13809235394001007
1761315241919522800,0.714522705078125,0.24508805572986603,0.25014033913612366,-0.42943817377090454
1761315241929570600,0.724570556640625,0.05710216984152794,0.06776360422372818,-0.6083173751831055
1761315241939617500,0.734617431640625,-0.11356251686811447,-0.0657409280538559,-0.6661630868911743
1761315241949664800,0.744664794921875,-0.2483099400997162,-0.15123745799064636,-0.6437145471572876
1761315241959711700,0.754711669921875,-0.3419983386993408,-0.15190032124519348,-0.5519619584083557
1761315241969759700,0.764759765625,-0.3758167624473572,-0.07085686177015305,-0.42215496301651
1761315241979806700,0.774806640625,-0.37442925572395325,0.04182920604944229,-0.2659304738044739
1761315241989853700,0.784853759765625,-0.35358017683029175,0.170507550239563,-0.09739553183317184
1761315241999901700,0.794901611328125,-0.31151288747787476,0.268684983253479,0.06722484529018402
1761315242009948700,0.80494873046875,-0.2504689693450928,0.31099754571914673,0.22364401817321777
1761315242019995600,0.81499560546875,-0.18293413519859314,0.3408401310443878,0.3644799590110779
1761315242030042600,0.825042724609375,-0.13088051974773407,0.3766460716724396,0.45067477226257324
1761315242040091000,0.8350908203125,-0.11236435920000076,0.3931739330291748,0.48752227425575256
1761315242050137900,0.845137939453125,-0.11254838109016418,0.40342655777931213,0.4909619987010956
1761315242060184800,0.855184814453125,-0.12002573907375336,0.34461623430252075,0.47393375635147095
1761315242070232600,0.865232666015625,-0.13091035187244415,0.23789964616298676,0.4555688500404358
1761315242080279800,0.87527978515625,-0.15087632834911346,0.13824841380119324,0.44828805327415466
1761315242090326800,0.885326904296875,-0.17118719220161438,0.06576409935951233,0.43829238414764404
1761315242100373800,0.895373779296875,-0.18815472722053528,0.015117167495191097,0.42142632603645325
1761315242110421800,0.905421875,-0.16035665571689606,-0.2335568219423294,0.32192638516426086
1761315242120468700,0.91546875,-0.10012393444776535,-0.531391978263855,0.14182743430137634
1761315242130515700,0.925515625,-0.05257559195160866,-0.6899741888046265,-0.08973894268274307
1761315242140563700,0.935563720703125,-0.0421258807182312,-0.7415345907211304,-0.3371279537677765
1761315242150610700,0.945610595703125,-0.10254395008087158,-0.6648126244544983,-0.5642489790916443
1761315242160657700,0.95565771484375,-0.23075838387012482,-0.5176753401756287,-0.7449679374694824
1761315242170705000,0.965704833984375,-0.3901328444480896,-0.3697623312473297,-0.8580276370048523
1761315242180752600,0.975752685546875,-0.5215010046958923,-0.25611621141433716,-0.9395192861557007
1761315242190799600,0.985799560546875,-0.5969451665878296,-0.24127013981342316,-0.9981708526611328
1761315242200846600,0.9958466796875,-0.6119110584259033,-0.24949291348457336,-0.9744711518287659
1761315242210893600,1.0058935546875,-0.5821877717971802,-0.21351467072963715,-0.8752641081809998
1761315242220941800,1.01594189453125,-0.49521905183792114,-0.1768709123134613,-0.7432118058204651
1761315242230988800,1.02598876953125,-0.3693751096725464,-0.1581246554851532,-0.6010419130325317
1761315242241035800,1.036035888671875,-0.2048700600862503,-0.1804126501083374,-0.4631442129611969
1761315242251083500,1.04608349609375,-0.04086221009492874,-0.19741374254226685,-0.3140774965286255
1761315242261130800,1.056130859375,0.09477896988391876,-0.20348894596099854,-0.1667671501636505
1761315242271177700,1.066177734375,0.18286170065402985,-0.2293865829706192,-0.052262406796216965
1761315242281224700,1.076224609375,0.22636602818965912,-0.25960573554039,0.014597318135201931
1761315242291272700,1.086272705078125,0.23298132419586182,-0.2760273218154907,0.031870581209659576
1761315242301320000,1.09631982421875,0.19984573125839233,-0.27859461307525635,0.0033273533917963505
1761315242311367000,1.106366943359375,0.14578063786029816,-0.2887575030326843,-0.05369172245264053
1761315242321414700,1.11641455078125,0.07955367863178253,-0.2789059281349182,-0.1048036441206932
1761315242331466000,1.126466064453125,0.0000828243064461276,-0.2289559543132782,-0.1323212832212448
1761315242341513000,1.136512939453125,-0.08292577415704727,-0.1676289439201355,-0.13224485516548157
1761315242351560000,1.146559814453125,-0.16416656970977783,-0.11184131354093552,-0.11926300823688507
1761315242361608000,1.15660791015625,-0.2253420352935791,-0.05543582886457443,-0.09187772870063782
1761315242371655000,1.166655029296875,-0.25856736302375793,0.01495098602026701,-0.06351958960294724
1761315242381702000,1.176701904296875,-0.2627277672290802,0.06507886946201324,-0.04988180473446846
1761315242391750000,1.18675,-0.24053964018821716,0.09512997418642044,-0.04959950968623161
1761315242401797000,1.196797119140625,-0.19908513128757477,0.1043141558766365,-0.05032069608569145
1761315242411844000,1.206843994140625,-0.14363865554332733,0.06101754680275917,-0.030055103823542595
1761315242421891000,1.21689111328125,-0.116054967045784,0.049428537487983704,0.045521412044763565
1761315242431938800,1.226938720703125,-0.10569553822278976,0.07485426962375641,0.14025644958019257
1761315242441986000,1.236986083984375,-0.10542789101600647,0.06400427967309952,0.20687595009803772
1761315242452033000,1.247032958984375,-0.10170239210128784,0.0017827199772000313,0.2236485332250595
1761315242462081000,1.2570810546875,-0.07837975770235062,-0.11005859076976776,0.21284356713294983
1761315242472128000,1.2671279296875,-0.0517398938536644,-0.2446582168340683,0.16562411189079285
1761315242482175000,1.277175048828125,-0.032045818865299225,-0.385692834854126,0.10501030832529068
1761315242492222000,1.287221923828125,-0.007093329448252916,-0.513988196849823,0.04313122481107712
1761315242502270000,1.29727001953125,0.0059601543471217155,-0.5198900699615479,0.009999637492001057
1761315242512317000,1.30731689453125,0.026043318212032318,-0.4273609220981598,0.010574080981314182
1761315242522364000,1.317364013671875,0.045405298471450806,-0.2672732472419739,0.048524390906095505
1761315242532412200,1.327412109375,0.07006537169218063,-0.1293388158082962,0.08579479902982712
1761315242542459100,1.337459228515625,0.09609590470790863,-0.08990858495235443,0.09920541197061539
1761315242552505900,1.347505859375,0.12062148749828339,-0.11684219539165497,0.07844313979148865
1761315242562552800,1.357552734375,0.13014362752437592,-0.22352257370948792,0.014157097786664963
1761315242572601000,1.36760107421875,0.10819118469953537,-0.3863447904586792,-0.07649584114551544
1761315242582648000,1.37764794921875,0.07396157830953598,-0.5086855888366699,-0.1687043309211731
1761315242592695000,1.387695068359375,0.027471572160720825,-0.5534592270851135,-0.23258450627326965
1761315242602742800,1.39774267578125,-0.022006232291460037,-0.5546690821647644,-0.25621500611305237
1761315242612789800,1.407789794921875,-0.07156340032815933,-0.5187249183654785,-0.2255079597234726
1761315242622837000,1.4178369140625,-0.10294129699468613,-0.43961384892463684,-0.12392247468233109
1761315242632884000,1.427884033203125,-0.1064436212182045,-0.319266676902771,0.035943351686000824
1761315242642932000,1.437931884765625,-0.08167648315429688,-0.18865886330604553,0.22274625301361084
1761315242652979000,1.44797900390625,-0.021390775218605995,-0.09556566923856735,0.3987891972064972
1761315242663026000,1.45802587890625,0.07973690330982208,-0.04620131850242615,0.556637167930603
1761315242673074000,1.468073974609375,0.21373039484024048,-0.01465537492185831,0.689939022064209
1761315242683121000,1.478120849609375,0.3589267432689667,0.011682488955557346,0.7784563899040222
1761315242693167900,1.48816796875,0.48070669174194336,0.03833886608481407,0.821668267250061
1761315242703214800,1.49821484375,0.5847383141517639,0.0728374570608139,0.8016000390052795
1761315242713263000,1.50826318359375,0.6645039319992065,0.09449641406536102,0.7383158802986145
1761315242723310000,1.51831005859375,0.7100533246994019,0.08400062471628189,0.6365391612052917
1761315242733357000,1.528357177734375,0.7083619832992554,0.031554196029901505,0.5451802015304565
1761315242743404800,1.53840478515625,0.6519431471824646,-0.025193769484758377,0.47611087560653687
1761315242753452000,1.5484521484375,0.5486761331558228,-0.09597846120595932,0.4113856852054596
1761315242763499000,1.5584990234375,0.4348859488964081,-0.17725786566734314,0.3195417821407318
1761315242773546000,1.5685458984375,0.34031417965888977,-0.26609665155410767,0.19501502811908722
1761315242783594000,1.578593994140625,0.2722823917865753,-0.36656653881073,0.04734887182712555
1761315242793641200,1.58864111328125,0.22348342835903168,-0.4679482877254486,-0.11167006939649582
1761315242803688000,1.59868798828125,0.20004281401634216,-0.545210599899292,-0.2681371867656708
1761315242813736000,1.60873583984375,0.19121256470680237,-0.6166679859161377,-0.39912447333335876
1761315242823783000,1.618782958984375,0.18483908474445343,-0.6581259369850159,-0.48502659797668457
1761315242833830000,1.628829833984375,0.17777186632156372,-0.611111044883728,-0.510029673576355
1761315242843877000,1.638877197265625,0.18804500997066498,-0.4889393150806427,-0.47994157671928406
1761315242853924900,1.6489248046875,0.21396449208259583,-0.3145941495895386,-0.391780287027359
1761315242863971800,1.658971923828125,0.24945403635501862,-0.09331396967172623,-0.2472769021987915
1761315242874018800,1.669018798828125,0.29242148995399475,0.13049648702144623,-0.07583324611186981
1761315242884067000,1.679067138671875,0.3344102203845978,0.3227335810661316,0.09749539941549301
1761315242894114000,1.689114013671875,0.3900851905345917,0.4657924771308899,0.23284177482128143
1761315242904161000,1.6991611328125,0.44033050537109375,0.5361955165863037,0.3219063878059387
1761315242914208000,1.7092080078125,0.48111629486083984,0.580781102180481,0.36429086327552795
1761315242924256000,1.719256103515625,0.5105237364768982,0.6314005851745605,0.35881727933883667
1761315242934303000,1.729302978515625,0.5329912304878235,0.6679407954216003,0.29511579871177673
1761315242944350000,1.739349853515625,0.5427775382995605,0.6623073816299438,0.20475128293037415
1761315242954397000,1.74939697265625,0.5364394783973694,0.6446911096572876,0.11730612069368362
1761315242964445000,1.75944482421875,0.5091806650161743,0.6064630150794983,0.038431279361248016
1761315242974492200,1.7694921875,0.47248712182044983,0.5274499654769897,-0.027584223076701164
1761315242984539100,1.7795390625,0.4268011152744293,0.4220567047595978,-0.09054268151521683
1761315242994587000,1.7895869140625,0.3811950087547302,0.2955397665500641,-0.1471681445837021
1761315243004633900,1.7996337890625,0.3355284631252289,0.1822614222764969,-0.19076170027256012
1761315243014680800,1.809680908203125,0.2852993905544281,0.07736216485500336,-0.2138209342956543
1761315243024728000,1.81972802734375,0.22905075550079346,0.022666163742542267,-0.21066243946552277
1761315243034776000,1.829776123046875,0.1769353598356247,0.0011041465913876891,-0.1963346302509308
1761315243044823000,1.839822998046875,0.13760872185230255,-0.004526308737695217,-0.16344910860061646
1761315243054870000,1.8498701171875,0.11106899380683899,-0.004314321093261242,-0.09859448671340942
1761315243064918000,1.85991796875,0.09759127348661423,-0.03590899705886841,-0.019875170662999153
1761315243074965000,1.869965087890625,0.09618831425905228,-0.096329465508461,0.05679670348763466
1761315243085012000,1.880011962890625,0.11177340149879456,-0.13329946994781494,0.1344243884086609
1761315243095060000,1.89006005859375,0.12920059263706207,-0.14252039790153503,0.2074085772037506
1761315243105107000,1.90010693359375,0.1448618471622467,-0.10874166339635849,0.26155784726142883
1761315243115154000,1.91015380859375,0.152908593416214,-0.04541142284870148,0.29549849033355713
1761315243125201000,1.920200927734375,0.14947843551635742,0.0007677893154323101,0.3053460717201233
1761315243135249000,1.930248779296875,0.128736674785614,0.05043734237551689,0.31187161803245544
1761315243145296000,1.9402958984375,0.08997756242752075,0.12000443786382675,0.3292290270328522
1761315243155343000,1.950343017578125,0.05596313253045082,0.19102507829666138,0.3513021171092987
1761315243165390800,1.960390869140625,0.043422576040029526,0.25862064957618713,0.3817713260650635
1761315243175437800,1.970437744140625,0.05301448330283165,0.2576877176761627,0.3954344093799591
1761315243185484800,1.98048486328125,0.07982558757066727,0.24239692091941833,0.39034485816955566
1761315243195532000,1.990531982421875,0.10673949867486954,0.2379332035779953,0.35451653599739075
1761315243205580000,2.000580078125,0.1143428236246109,0.17621444165706635,0.26564154028892517
1761315243215627000,2.010626953125,0.08761240541934967,0.03176858276128769,0.1164882630109787
1761315243225674000,2.020674072265625,0.029198365285992622,-0.16588856279850006,-0.094957135617733
1761315243235721000,2.030720947265625,-0.02732882648706436,-0.346244752407074,-0.33024102449417114
1761315243245769000,2.04076904296875,-0.08441581577062607,-0.46873340010643005,-0.5413436889648438
1761315243255816000,2.05081591796875,-0.12287238985300064,-0.5432472825050354,-0.6934043169021606
1761315243265863000,2.06086279296875,-0.15329128503799438,-0.5898957848548889,-0.7549707293510437
1761315243275911000,2.070910888671875,-0.18082863092422485,-0.5581554174423218,-0.684857189655304
1761315243285958100,2.080958251953125,-0.19975465536117554,-0.39220187067985535,-0.4757428467273712
1761315243296005000,2.091005126953125,-0.1947774738073349,-0.15591716766357422,-0.19043385982513428
1761315243306052900,2.101052978515625,-0.16460572183132172,0.06442612409591675,0.09350758045911789
1761315243316099800,2.111099853515625,-0.10729529708623886,0.22302083671092987,0.32522496581077576
1761315243326147000,2.12114697265625,-0.03326581045985222,0.3169744908809662,0.49007248878479004
1761315243336193800,2.13119384765625,0.03470950946211815,0.36520859599113464,0.5972769856452942
1761315243346242000,2.141241943359375,0.08375641703605652,0.37735313177108765,0.6638796925544739
1761315243356289000,2.1512890625,0.11208472400903702,0.35144564509391785,0.687547504901886
1761315243366335700,2.161335693359375,0.11335425823926926,0.27659592032432556,0.6777657270431519
1761315243376383700,2.1713837890625,0.09517472237348557,0.17489537596702576,0.6246281862258911
1761315243386431000,2.181430908203125,0.05224083364009857,0.06439709663391113,0.5356168150901794
1761315243396478000,2.19147802734375,-0.006424343679100275,-0.03430977091193199,0.40308621525764465
1761315243406525000,2.20152490234375,-0.08521689474582672,-0.10687478631734848,0.24468830227851868
1761315243416573000,2.211572998046875,-0.17102660238742828,-0.1446589082479477,0.07280842959880829
1761315243426620000,2.221619873046875,-0.27770379185676575,-0.15767112374305725,-0.11090467870235443
1761315243436667000,2.2316669921875,-0.38641056418418884,-0.18737176060676575,-0.2921231985092163
1761315243446715000,2.24171484375,-0.49857383966445923,-0.2243548035621643,-0.4596861004829407
1761315243456761900,2.251761962890625,-0.5843409299850464,-0.252247154712677,-0.6024941205978394
1761315243466808800,2.261808837890625,-0.6516539454460144,-0.2649858593940735,-0.7069592475891113
1761315243476856000,2.27185595703125,-0.6861554384231567,-0.23741628229618073,-0.7418184280395508
1761315243486903800,2.28190380859375,-0.6913310289382935,-0.1431555598974228,-0.7204177975654602
1761315243496950800,2.29195068359375,-0.6560670733451843,0.0009976201690733433,-0.6665253043174744
1761315243506997800,2.301997802734375,-0.5806663036346436,0.16933682560920715,-0.6025300621986389
1761315243517046000,2.3120458984375,-0.4714791178703308,0.3260236382484436,-0.529144823551178
1761315243527093000,2.322093017578125,-0.3565642535686493,0.4300280809402466,-0.4697701632976532
1761315243537140000,2.332139892578125,-0.255566269159317,0.42330971360206604,-0.4210495054721832
1761315243547187000,2.34218701171875,-0.16815225780010223,0.334177702665329,-0.3591829240322113
1761315243557235000,2.35223486328125,-0.09367828816175461,0.20134562253952026,-0.26381221413612366
1761315243567282000,2.362281982421875,-0.04277835786342621,0.08494764566421509,-0.15394535660743713
1761315243577329000,2.372328857421875,-0.009573797695338726,-0.005147357936948538,-0.04947993531823158
1761315243587377000,2.382376953125,0.02184990420937538,-0.07135780155658722,0.020011525601148605
1761315243597423900,2.392423828125,0.05355403944849968,-0.11552606523036957,0.04923225939273834
1761315243607471000,2.40247119140625,0.07032609730958939,-0.13412371277809143,0.0579272136092186
1761315243617517800,2.412517822265625,0.06233154982328415,-0.1464964896440506,0.04301803931593895
1761315243627565800,2.42256591796875,0.027536286041140556,-0.13098357617855072,0.020681843161582947
1761315243637612800,2.43261279296875,-0.027276627719402313,-0.08653276413679123,-0.013028716668486595
1761315243647659800,2.44265966796875,-0.08343550562858582,-0.047090545296669006,-0.07245369255542755
1761315243657708000,2.4527080078125,-0.13355779647827148,-0.03459446132183075,-0.15310272574424744
1761315243667755000,2.462755126953125,-0.1723185032606125,-0.02918291836977005,-0.2261282056570053
1761315243677801700,2.4728017578125,-0.19791628420352936,-0.007816378027200699,-0.2746749818325043
1761315243687848700,2.4828486328125,-0.2220969796180725,0.024946894496679306,-0.30673864483833313
1761315243697897000,2.49289697265625,-0.23128701746463776,0.0746942088007927,-0.3210781514644623
1761315243707944000,2.50294384765625,-0.22557426989078522,0.10849132388830185,-0.3068062663078308
1761315243717991000,2.512990966796875,-0.21052581071853638,0.15493179857730865,-0.23934520781040192
1761315243728039000,2.523038818359375,-0.18889881670475006,0.20440933108329773,-0.1380404233932495
1761315243738086000,2.5330859375,-0.16245496273040771,0.20373262465000153,-0.05111192166805267
1761315243748132900,2.5431328125,-0.12452860921621323,0.14094913005828857,0.011798602528870106
1761315243758179800,2.553179931640625,-0.07258498668670654,0.06323888897895813,0.050628822296857834
1761315243768227800,2.563227783203125,-0.016757408156991005,-0.025528529658913612,0.0688760057091713
1761315243778274800,2.57327490234375,0.04597415030002594,-0.12238689512014389,0.06683575361967087
1761315243788322000,2.583322021484375,0.11751490831375122,-0.20765411853790283,0.051426440477371216
1761315243798369800,2.593369873046875,0.19646166265010834,-0.25398728251457214,0.033851705491542816
1761315243808416800,2.603416748046875,0.2711036801338196,-0.24723616242408752,0.016757141798734665
1761315243818463700,2.613463623046875,0.31984326243400574,-0.23073574900627136,-0.015243668109178543
1761315243828511000,2.623510986328125,0.34092164039611816,-0.3301704525947571,-0.09454435110092163
1761315243838559000,2.63355908203125,0.32621273398399353,-0.46746599674224854,-0.1904330551624298
1761315243848606000,2.64360595703125,0.30689388513565063,-0.5604433417320251,-0.2616662383079529
1761315243858653000,2.65365283203125,0.28657931089401245,-0.6710425615310669,-0.2881060838699341
1761315243868701000,2.663700927734375,0.26112160086631775,-0.8140503168106079,-0.26296213269233704
1761315243878748000,2.673747802734375,0.2197001427412033,-0.9310166239738464,-0.1843826323747635
1761315243888795000,2.683794921875,0.16799592971801758,-0.9706500172615051,-0.06630445271730423
1761315243898841900,2.693841796875,0.11743981391191483,-0.9214292168617249,0.09812629967927933
1761315243908889900,2.703889892578125,0.07299777865409851,-0.7943522334098816,0.27968063950538635
1761315243918937000,2.71393701171875,0.03212225064635277,-0.6194206476211548,0.4321141242980957
1761315243928983800,2.72398388671875,0.0020940436515957117,-0.4143575131893158,0.5303855538368225
1761315243939031800,2.73403173828125,-0.00595562718808651,-0.20396457612514496,0.5458921194076538
1761315243949078800,2.744078857421875,0.005571599118411541,0.009162872098386288,0.5031440854072571
1761315243959126000,2.7541259765625,0.03154780715703964,0.216196209192276,0.4240863025188446
1761315243969174000,2.764174072265625,0.0729019045829773,0.4032249450683594,0.3241746127605438
1761315243979221000,2.774220947265625,0.11876580119132996,0.5681889057159424,0.23153789341449738
1761315243989267700,2.784267822265625,0.16900579631328583,0.6902583241462708,0.16138143837451935
1761315243999314700,2.794314697265625,0.2194356769323349,0.7708147168159485,0.13584758341312408
1761315244009363000,2.804363037109375,0.2742520570755005,0.7858144044876099,0.1538897007703781
1761315244019410000,2.814409912109375,0.3156690001487732,0.7562786340713501,0.20164576172828674
1761315244029457000,2.824456787109375,0.33554285764694214,0.6900948286056519,0.2586486041545868
1761315244039505000,2.8345048828125,0.33399316668510437,0.5716469883918762,0.2844652831554413
1761315244049552000,2.8445517578125,0.3138918876647949,0.3863796591758728,0.2608443796634674
1761315244059598800,2.854598876953125,0.28976204991340637,0.1633463203907013,0.17117494344711304
1761315244069645800,2.864645751953125,0.2574935853481293,-0.08821561187505722,0.011485680937767029
1761315244079693800,2.87469384765625,0.21425583958625793,-0.33164849877357483,-0.1734655350446701
1761315244089741000,2.884740966796875,0.1579028218984604,-0.5508599281311035,-0.36773353815078735
1761315244099788000,2.8947880859375,0.09203991293907166,-0.7309051156044006,-0.5233404636383057
1761315244109835800,2.904835693359375,0.030462302267551422,-0.842219889163971,-0.616939127445221
1761315244119882800,2.9148828125,-0.021702632308006287,-0.842964231967926,-0.639869749546051
1761315244129929700,2.9249296875,-0.05440571904182434,-0.7477666139602661,-0.6003074049949646
1761315244139977000,2.93497705078125,-0.05925027281045914,-0.5749639868736267,-0.5185419321060181
1761315244150025000,2.94502490234375,-0.03705362603068352,-0.3086928725242615,-0.4016318619251251
1761315244160072000,2.955072021484375,0.004160390235483646,0.010132528841495514,-0.2800652086734772
1761315244170119000,2.965118896484375,0.0569293275475502,0.33009853959083557,-0.18983891606330872
1761315244180167000,2.9751669921875,0.13192181289196014,0.6237922310829163,-0.12901844084262848
1761315244190214000,2.9852138671875,0.20871832966804504,0.8705263733863831,-0.11167353391647339
1761315244200260900,2.9952607421875,0.27614957094192505,1.04812490940094,-0.13902287185192108
1761315244210307800,3.005307861328125,0.32325607538223267,1.1596516370773315,-0.20071259140968323
1761315244220356000,3.015356201171875,0.34271740913391113,1.2149738073349,-0.2799035608768463
1761315244230403000,3.025403076171875,0.34913748502731323,1.186570405960083,-0.3692936301231384
1761315244240449800,3.03544970703125,0.35060247778892517,1.075771689414978,-0.4448421597480774
1761315244250497800,3.045497802734375,0.3497588038444519,0.8888638019561768,-0.49200648069381714
1761315244260544800,3.055544677734375,0.3387050926685333,0.6444538235664368,-0.5056522488594055
1761315244270592000,3.065592041015625,0.3304234445095062,0.3874651789665222,-0.4776632487773895
1761315244280639000,3.075638916015625,0.3238806128501892,0.15578533709049225,-0.41064637899398804
1761315244290686700,3.085686767578125,0.310040682554245,-0.040936779230833054,-0.32057589292526245
1761315244300733700,3.095733642578125,0.2804228663444519,-0.1890287697315216,-0.21252131462097168
1761315244310781000,3.105781005859375,0.2477988749742508,-0.2806985080242157,-0.09573797881603241
1761315244320829000,3.115828857421875,0.2190772294998169,-0.3414018154144287,-0.00043356261448934674
1761315244330872600,3.12587255859375,0.1927121877670288,-0.37520503997802734,0.06813857704401016
1761315244340919600,3.13591943359375,0.1668960452079773,-0.4068377912044525,0.10501217097043991
1761315244350966500,3.145966552734375,0.14795483648777008,-0.45003294944763184,0.1132408007979393
1761315244361014300,3.15601416015625,0.12875691056251526,-0.47720837593078613,0.10857361555099487
1761315244371061500,3.1660615234375,0.10632697492837906,-0.47800305485725403,0.09802456945180893
1761315244381108500,3.1761083984375,0.08270207047462463,-0.4690364599227905,0.07968045026063919
1761315244391156500,3.186156494140625,0.055089619010686874,-0.43198922276496887,0.06756333261728287
1761315244401203500,3.196203369140625,0.019225358963012695,-0.37215518951416016,0.0660724937915802
1761315244411250700,3.206250732421875,-0.025951705873012543,-0.3080129623413086,0.07715710252523422
1761315244421297700,3.216297607421875,-0.07436850666999817,-0.23520639538764954,0.1032550185918808
1761315244431345400,3.226345458984375,-0.1346491575241089,-0.13791419565677643,0.1544675976037979
1761315244441392400,3.236392333984375,-0.1867629587650299,-0.06608128547668457,0.20803922414779663
1761315244451439400,3.246439453125,-0.22807417809963226,-0.0333251990377903,0.24352823197841644
1761315244461487600,3.256487548828125,-0.2310129702091217,0.01181990746408701,0.2730158269405365
1761315244471534600,3.26653466796875,-0.19805103540420532,0.04954305291175842,0.2899732291698456
1761315244481581600,3.27658154296875,-0.17070569097995758,0.04741731658577919,0.2903684377670288
1761315244491628300,3.286628173828125,-0.15214133262634277,0.027573836967349052,0.264579713344574
1761315244501676500,3.296676513671875,-0.15652994811534882,-0.02965829335153103,0.19066208600997925
1761315244511723500,3.3067236328125,-0.17644932866096497,-0.14802248775959015,0.059424977749586105
1761315244521770500,3.3167705078125,-0.2044958770275116,-0.3264007568359375,-0.12858913838863373
1761315244531818500,3.326818603515625,-0.25217899680137634,-0.4979895353317261,-0.33854421973228455
1761315244541865500,3.336865478515625,-0.30657723546028137,-0.6711059212684631,-0.5198583602905273
1761315244551912400,3.346912353515625,-0.3781803250312805,-0.8607773184776306,-0.6339324712753296
1761315244561959400,3.35695947265625,-0.4632166624069214,-1.036400556564331,-0.6395623683929443
1761315244572007400,3.36700732421875,-0.5495550036430359,-1.143399953842163,-0.499330997467041
1761315244582054400,3.377054443359375,-0.6245301961898804,-1.156835675239563,-0.23385830223560333
1761315244592101600,3.3871015625,-0.6655151844024658,-1.0618294477462769,0.1019817590713501
1761315244602149400,3.3971494140625,-0.6580729484558105,-0.8670749068260193,0.4473804235458374
1761315244612196400,3.4071962890625,-0.578978419303894,-0.6277062892913818,0.756294310092926
1761315244622243300,3.417243408203125,-0.4443998336791992,-0.3628879189491272,0.9824656844139099
1761315244632290300,3.427290283203125,-0.29842478036880493,-0.08456122130155563,1.1064493656158447
1761315244642338600,3.437338623046875,-0.16834001243114471,0.19629546999931335,1.1092097759246826
1761315244652385500,3.447385498046875,-0.06620831787586212,0.4458349943161011,1.0095481872558594
1761315244662432500,3.4574326171875,0.030128341168165207,0.6471617221832275,0.815240740776062
1761315244672479500,3.4674794921875,0.11452258378267288,0.7360689640045166,0.5562307238578796
1761315244682527500,3.477527587890625,0.1627012938261032,0.6823082566261292,0.2851097583770752
1761315244692574500,3.487574462890625,0.1568324863910675,0.5266579389572144,0.053346045315265656
1761315244702621400,3.497621337890625,0.10832061618566513,0.3200794756412506,-0.11574870347976685
1761315244712669400,3.50766943359375,0.028006067499518394,0.11345332115888596,-0.2071172297000885
1761315244722716700,3.517716552734375,-0.06833990663290024,-0.04536668211221695,-0.2407502979040146
1761315244732763600,3.527763671875,-0.16872510313987732,-0.12943682074546814,-0.23857715725898743
1761315244742810400,3.537810302734375,-0.2576525807380676,-0.16356123983860016,-0.25442856550216675
1761315244752858400,3.5478583984375,-0.3358408510684967,-0.18176020681858063,-0.3125339448451996
1761315244762905300,3.5579052734375,-0.4167221188545227,-0.1939404457807541,-0.41594502329826355
1761315244772952600,3.56795263671875,-0.49769100546836853,-0.20949144661426544,-0.5653946995735168
1761315244783000600,3.57800048828125,-0.5530131459236145,-0.2042199820280075,-0.7435029149055481
1761315244793047600,3.588047607421875,-0.5839593410491943,-0.14630848169326782,-0.9185460805892944
1761315244803094300,3.59809423828125,-0.5860320329666138,-0.029588518664240837,-1.0603564977645874
1761315244813141500,3.6081416015625,-0.5628010630607605,0.11681769788265228,-1.1446897983551025
1761315244823189500,3.618189453125,-0.5172122716903687,0.2645253837108612,-1.159165859222412
1761315244833236500,3.628236572265625,-0.44671252369880676,0.3821955621242523,-1.0962865352630615
1761315244843283500,3.638283447265625,-0.3642114996910095,0.48961469531059265,-0.970940351486206
1761315244853331500,3.64833154296875,-0.2672756314277649,0.5789414048194885,-0.7966555953025818
1761315244863378400,3.65837841796875,-0.16136997938156128,0.6109073162078857,-0.6072254776954651
1761315244873425400,3.66842529296875,-0.05831923335790634,0.5928611755371094,-0.42526474595069885
1761315244883472400,3.678472412109375,0.0412859208881855,0.5371121764183044,-0.27495327591896057
1761315244893520400,3.688520263671875,0.13120941817760468,0.4345136284828186,-0.18326888978481293
1761315244903567600,3.698567626953125,0.21680182218551636,0.3061751127243042,-0.13175056874752045
1761315244913614600,3.708614501953125,0.2915210723876953,0.17736811935901642,-0.10040143877267838
1761315244923662300,3.718662353515625,0.3300900161266327,0.041198570281267166,-0.07174050062894821
1761315244933709300,3.728709228515625,0.3346882462501526,-0.07938084006309509,-0.04018869996070862
1761315244943756500,3.738756591796875,0.31142258644104004,-0.16724278032779694,-0.005001150071620941
1761315244953803500,3.748803466796875,0.2728736102581024,-0.222543865442276,0.026707245036959648
1761315244963851500,3.7588515625,0.22739267349243164,-0.23878221213817596,0.04908738657832146
1761315244973898500,3.7688984375,0.18587559461593628,-0.21995232999324799,0.052679456770420074
1761315244983945500,3.778945556640625,0.1513109654188156,-0.1610083281993866,0.04396559298038483
1761315244993993500,3.788993408203125,0.12842854857444763,-0.07043368369340897,0.02646622806787491
1761315245004040400,3.79904052734375,0.12477096170186996,0.006318083498626947,0.003710316028445959
1761315245014087400,3.80908740234375,0.13090981543064117,0.07795312255620956,-0.013630857691168785
1761315245024134400,3.819134521484375,0.15785807371139526,0.15356479585170746,-0.03857189416885376
1761315245034182700,3.8291826171875,0.2109346091747284,0.22418144345283508,-0.06241091340780258
1761315245044229600,3.839229736328125,0.2854738235473633,0.270998477935791,-0.0681670680642128
1761315245054276400,3.8492763671875,0.35340574383735657,0.31060928106307983,-0.04854809492826462
1761315245064324400,3.859324462890625,0.41217663884162903,0.3386925756931305,-0.023240873590111732
1761315245074371600,3.86937158203125,0.4667506814002991,0.3483116328716278,0.01133787538856268
1761315245084418600,3.87941845703125,0.525403618812561,0.3605579137802124,0.03987924009561539
1761315245094465500,3.889465576171875,0.5939472317695618,0.38624411821365356,0.06602056324481964
1761315245104513300,3.89951318359375,0.6594535708427429,0.41727447509765625,0.07517357915639877
1761315245114560300,3.909560302734375,0.7224908471107483,0.4183325469493866,0.06285486370325089
1761315245124607500,3.919607421875,0.7721651792526245,0.357227623462677,0.015929963439702988
1761315245134655500,3.929655517578125,0.8235071897506714,0.26687589287757874,-0.05626300722360611
1761315245144702500,3.939702392578125,0.8570875525474548,0.15178367495536804,-0.15721678733825684
1761315245154749400,3.94974951171875,0.8818080425262451,0.006988667417317629,-0.276080846786499
1761315245164796700,3.959796630859375,0.8927429914474487,-0.14227963984012604,-0.3821348547935486
1761315245174844400,3.969844482421875,0.8823531866073608,-0.2838580906391144,-0.43959975242614746
1761315245184891400,3.979891357421875,0.8546805381774902,-0.4007759094238281,-0.423048734664917
1761315245194938400,3.9899384765625,0.8117951154708862,-0.4145444631576538,-0.31625595688819885
1761315245204985300,3.9999853515625,0.7769995927810669,-0.31641095876693726,-0.13593973219394684
1761315245215033600,4.01003369140625,0.7626861929893494,-0.15629959106445312,0.07008108496665955
1761315245225080600,4.02008056640625,0.782971203327179,0.022856580093503,0.2649887800216675
1761315245235127600,4.03012744140625,0.834890604019165,0.19637590646743774,0.4140656292438507
1761315245245175300,4.04017529296875,0.8960756659507751,0.34153735637664795,0.4973464012145996
1761315245255222500,4.050222412109375,0.9615204334259033,0.44129884243011475,0.5401412844657898
1761315245265269500,4.06026953125,1.02495539188385,0.49880528450012207,0.5403439402580261
1761315245275316500,4.07031640625,1.0846298933029175,0.5125120282173157,0.5316758751869202
1761315245285364500,4.080364501953125,1.1467784643173218,0.5013720393180847,0.534820556640625
1761315245295411700,4.09041162109375,1.2025988101959229,0.4888325333595276,0.5683497190475464
1761315245305458400,4.10045849609375,1.2444818019866943,0.4753827750682831,0.612978994846344
1761315245315506400,4.11050634765625,1.280784249305725,0.45585593581199646,0.6572444438934326
1761315245325553400,4.120553466796875,1.3181380033493042,0.43597251176834106,0.6817399263381958
1761315245335601000,4.130600830078125,1.364485740661621,0.38306936621665955,0.6693746447563171
1761315245345647900,4.14064794921875,1.4258346557617188,0.2996325194835663,0.6112053394317627
1761315245355695600,4.150695556640625,1.496531367301941,0.2029065042734146,0.5082195401191711
1761315245365742600,4.16074267578125,1.5616416931152344,0.08612636476755142,0.3588268756866455
1761315245375789800,4.170789794921875,1.6235122680664062,-0.043542951345443726,0.16867662966251373
1761315245385837800,4.180837890625,1.683743953704834,-0.20856039226055145,-0.048949964344501495
1761315245395884800,4.190884765625,1.7355154752731323,-0.426076203584671,-0.26328277587890625
1761315245405931800,4.200931884765625,1.7554937601089478,-0.7067701816558838,-0.430076003074646
1761315245415978800,4.210978759765625,1.7269151210784912,-1.0051782131195068,-0.5095345973968506
1761315245426026800,4.22102685546875,1.628993034362793,-1.2204686403274536,-0.4997962415218353
1761315245436073700,4.23107373046875,1.4599955081939697,-1.2663367986679077,-0.41631120443344116
1761315245446120700,4.24112060546875,1.231191635131836,-1.1627148389816284,-0.27949342131614685
1761315245456168700,4.251168701171875,0.9809162616729736,-0.9654017686843872,-0.13910329341888428
1761315245466216000,4.2612158203125,0.759867787361145,-0.6841727495193481,-0.010095510631799698
1761315245476263000,4.271262939453125,0.6076382994651794,-0.377252995967865,0.05970407649874687
1761315245486310000,4.281309814453125,0.5377686619758606,-0.11438543349504471,0.033124130219221115
1761315245496357600,4.291357666015625,0.5493230223655701,0.12054052948951721,-0.07476478815078735
1761315245506404900,4.30140478515625,0.6282516717910767,0.31459710001945496,-0.233174666762352
1761315245516451800,4.311451904296875,0.7570019364356995,0.48742905259132385,-0.3911174237728119
1761315245526498800,4.321498779296875,0.9049322605133057,0.6237461566925049,-0.5005152821540833
1761315245536546800,4.331546875,1.0388187170028687,0.7035599946975708,-0.5334527492523193
1761315245546593800,4.34159375,1.140712857246399,0.7538463473320007,-0.48728522658348083
1761315245556640800,4.351640869140625,1.2161359786987305,0.7720378637313843,-0.37517493963241577
1761315245566688800,4.361688720703125,1.2701395750045776,0.7673482894897461,-0.22148391604423523
1761315245576735700,4.37173583984375,1.3128124475479126,0.7327384352684021,-0.04556109383702278
1761315245586782700,4.38178271484375,1.3454619646072388,0.6433278322219849,0.12064306437969208
1761315245596829700,4.39182958984375,1.3739993572235107,0.5201960802078247,0.2593631148338318
1761315245606877700,4.401877685546875,1.3994362354278564,0.376388281583786,0.3841995894908905
1761315245616924700,4.411924560546875,1.4121640920639038,0.21609048545360565,0.48930445313453674
1761315245626971600,4.4219716796875,1.4136812686920166,0.08195558935403824,0.5892835259437561
1761315245637020000,4.43202001953125,1.4044249057769775,-0.008682171814143658,0.679998517036438
1761315245647067000,4.44206689453125,1.3884328603744507,-0.03936285153031349,0.7638007402420044
1761315245657113900,4.45211376953125,1.3586273193359375,0.0014508900931105018,0.8359694480895996
1761315245667160800,4.462160888671875,1.321304440498352,0.10132022947072983,0.8863809704780579
1761315245677208600,4.47220849609375,1.2640358209609985,0.26609691977500916,0.9092700481414795
1761315245687255800,4.482255859375,1.184409737586975,0.4375893175601959,0.9003812074661255
1761315245697302800,4.492302734375,1.109561800956726,0.589141309261322,0.8644834160804749
1761315245707349800,4.502349853515625,1.0519845485687256,0.7302533984184265,0.8285940885543823
1761315245717397800,4.512397705078125,1.0247137546539307,0.8433570861816406,0.7915093302726746
1761315245727444700,4.52244482421875,1.0199283361434937,0.9072641134262085,0.7657994031906128
1761315245737492000,4.532491943359375,1.0293349027633667,0.9365677237510681,0.743367075920105
1761315245747539700,4.542539794921875,1.047903060913086,0.9397139549255371,0.7120168805122375
1761315245757586700,4.552586669921875,1.0687187910079956,0.8744305372238159,0.6536052227020264
1761315245767633700,4.562633544921875,1.0883772373199463,0.754798412322998,0.5748568773269653
1761315245777681000,4.572680908203125,1.0878539085388184,0.6119073033332825,0.4979330897331238
1761315245787729000,4.58272900390625,1.0600733757019043,0.45087262988090515,0.43982237577438354
1761315245797776000,4.59277587890625,0.9943156838417053,0.31323912739753723,0.42240771651268005
1761315245807822600,4.602822509765625,0.9097827076911926,0.2307211011648178,0.4520452320575714
1761315245817870800,4.612870849609375,0.8335331678390503,0.16648991405963898,0.5096885561943054
1761315245827917800,4.622917724609375,0.7991321086883545,0.12423539906740189,0.5893327593803406
1761315245837964800,4.63296484375,0.8116151094436646,0.08691492676734924,0.6839562058448792
1761315245848011800,4.64301171875,0.8610953092575073,0.08522514998912811,0.7849435806274414
1761315245858059800,4.653059814453125,0.923801064491272,0.10924526304006577,0.8799805641174316
1761315245868106800,4.663106689453125,1.0000444650650024,0.1763758361339569,0.9486515522003174
1761315245878153700,4.67315380859375,1.0911839008331299,0.2941136360168457,0.9954707026481628
1761315245888201700,4.68320166015625,1.1926101446151733,0.45928955078125,1.013240933418274
1761315245898248700,4.693248779296875,1.282362699508667,0.6050507426261902,1.006007194519043
1761315245908296000,4.7032958984375,1.341045618057251,0.7325085997581482,0.970215916633606
1761315245918343000,4.713343017578125,1.3672317266464233,0.8584595918655396,0.92753666639328
1761315245928390700,4.723390625,1.3676655292510986,0.984179675579071,0.8544661998748779
1761315245938437600,4.733437744140625,1.356335997581482,1.07258939743042,0.7380154728889465
1761315245948484600,4.743484619140625,1.3396382331848145,1.0670984983444214,0.5780692100524902
1761315245958531800,4.75353173828125,1.3323017358779907,1.004428505897522,0.39091795682907104
1761315245968579800,4.763579833984375,1.3322769403457642,0.8828083276748657,0.18724791705608368
1761315245978626800,4.773626708984375,1.351027250289917,0.708836019039154,0.007933024317026138
1761315245988673800,4.783673828125,1.3664919137954712,0.5373228192329407,-0.12309077382087708
1761315245998721800,4.7937216796875,1.3714834451675415,0.39911890029907227,-0.21781861782073975
1761315246008768800,4.803768798828125,1.3611493110656738,0.30495163798332214,-0.2720719873905182
1761315246018815700,4.813815673828125,1.3522921800613403,0.2665576636791229,-0.2751775085926056
1761315246028862700,4.82386279296875,1.348631739616394,0.3269299268722534,-0.22414281964302063
1761315246038911000,4.833910888671875,1.3577402830123901,0.4712982773780823,-0.12903547286987305
1761315246048958000,4.8439580078125,1.3882379531860352,0.6459259986877441,-0.025547437369823456
1761315246059004700,4.854004638671875,1.4594007730484009,0.8359542489051819,0.07478209584951401
1761315246069051600,4.8640517578125,1.5680903196334839,1.0469205379486084,0.14492470026016235
1761315246079099600,4.874099609375,1.6952892541885376,1.235467553138733,0.17656785249710083
1761315246089147000,4.88414697265625,1.8182356357574463,1.3853516578674316,0.18161293864250183
1761315246099193900,4.89419384765625,1.9146641492843628,1.4720511436462402,0.17741766571998596
1761315246109241600,4.90424169921875,1.9753278493881226,1.5514763593673706,0.17454756796360016
1761315246119288600,4.91428857421875,2.001070499420166,1.6201084852218628,0.15717576444149017
1761315246129335800,4.924335693359375,2.022362470626831,1.6528810262680054,0.09283752739429474
1761315246139382800,4.9343828125,2.035977602005005,1.6316975355148315,-0.03473054990172386
1761315246149430800,4.9444306640625,2.0476551055908203,1.5423753261566162,-0.21722818911075592
1761315246159477800,4.954477783203125,2.059260368347168,1.4105347394943237,-0.42628100514411926
1761315246169524700,4.964524658203125,2.054927110671997,1.2871041297912598,-0.6233176589012146
1761315246179572700,4.97457275390625,2.033430576324463,1.1772913932800293,-0.7729851603507996
1761315246189619700,4.98461962890625,2.0060994625091553,1.0265439748764038,-0.8425197601318359
1761315246199666700,4.994666748046875,1.972099781036377,0.8604977130889893,-0.7998980283737183
1761315246209711900,5.0047119140625,1.9343873262405396,0.7168968319892883,-0.6531170606613159
1761315246219758800,5.0147587890625,1.90104079246521,0.6199444532394409,-0.4433976709842682
1761315246229805800,5.024805908203125,1.900517463684082,0.5797041058540344,-0.2234559953212738
1761315246239852500,5.0348525390625,1.9440199136734009,0.553949773311615,-0.04935263469815254
1761315246249900800,5.04490087890625,2.011378049850464,0.5507363677024841,0.06433957815170288
1761315246259947800,5.05494775390625,2.065095901489258,0.5687313675880432,0.10955525934696198
1761315246269994800,5.064994873046875,2.0895447731018066,0.6133766174316406,0.10424571484327316
1761315246280042800,5.075042724609375,2.0828793048858643,0.6902034878730774,0.0688278004527092
1761315246290089700,5.08508984375,2.047212839126587,0.7814052700996399,0.00013076121103949845
1761315246300136700,5.09513671875,1.986345887184143,0.8318428993225098,-0.09809993207454681
1761315246310183700,5.10518359375,1.925537347793579,0.8266074061393738,-0.19135797023773193
1761315246320231700,5.115231689453125,1.8689461946487427,0.8190367817878723,-0.24860236048698425
1761315246330279000,5.12527880859375,1.8149213790893555,0.8108789920806885,-0.25316569209098816
1761315246340326000,5.135325927734375,1.768118143081665,0.7963051199913025,-0.2024415135383606
1761315246350372900,5.145372802734375,1.7370760440826416,0.7787604928016663,-0.1035064160823822
1761315246360420600,5.155420654296875,1.718568205833435,0.75135737657547,0.020827516913414
1761315246370467600,5.165467529296875,1.721254587173462,0.7190377712249756,0.14525119960308075
1761315246380514600,5.1755146484375,1.727768898010254,0.6902951002120972,0.24388855695724487
1761315246390562800,5.185562744140625,1.7518545389175415,0.6654187440872192,0.31463515758514404
1761315246400609800,5.19560986328125,1.7974731922149658,0.6107462048530579,0.35517939925193787
1761315246410656800,5.20565673828125,1.8472607135772705,0.5212717056274414,0.3919866979122162
1761315246420703700,5.215703857421875,1.8620339632034302,0.4320424795150757,0.4237701892852783
1761315246430751700,5.225751708984375,1.8424363136291504,0.3866124153137207,0.46434715390205383
1761315246440798700,5.235798828125,1.7906123399734497,0.38818928599357605,0.5119855403900146
1761315246450845700,5.245845703125,1.7363964319229126,0.4225611090660095,0.5624540448188782
1761315246460893700,5.255893798828125,1.6796988248825073,0.47642967104911804,0.6096084713935852
1761315246470941000,5.26594091796875,1.6325044631958008,0.5377106070518494,0.6255152821540833
1761315246480988000,5.27598779296875,1.6091152429580688,0.5987446308135986,0.6117568612098694
1761315246491034600,5.28603466796875,1.6188604831695557,0.6758759021759033,0.5772276520729065
1761315246501082600,5.29608251953125,1.6523375511169434,0.7488822340965271,0.5273644924163818
1761315246511129600,5.306129638671875,1.6881741285324097,0.7968636155128479,0.45658352971076965
1761315246521176800,5.3161767578125,1.7102553844451904,0.8382014632225037,0.38440918922424316
1761315246531223800,5.326223876953125,1.708480715751648,0.8679460287094116,0.3173918128013611
1761315246541271800,5.336271728515625,1.6973761320114136,0.865376353263855,0.2595069408416748
1761315246551318500,5.346318603515625,1.680382490158081,0.8296369910240173,0.22090628743171692
1761315246561365500,5.356365478515625,1.6665116548538208,0.7792401313781738,0.19974666833877563
1761315246571413800,5.366413818359375,1.6515897512435913,0.737159013748169,0.19232682883739471
1761315246581460700,5.376460693359375,1.6366043090820312,0.6531509160995483,0.17443518340587616
1761315246591507700,5.3865078125,1.6260675191879272,0.5271314382553101,0.16645315289497375
1761315246601554700,5.3965546875,1.6133613586425781,0.4122999310493469,0.1869019716978073
1761315246611602700,5.406602783203125,1.5890415906906128,0.355392187833786,0.23440824449062347
1761315246621649700,5.416649658203125,1.560396671295166,0.3440151512622833,0.27298492193222046
1761315246631696600,5.426696533203125,1.534925103187561,0.3466860353946686,0.28044018149375916
1761315246641743600,5.43674365234375,1.5162193775177002,0.3467632830142975,0.24302756786346436
1761315246651792000,5.4467919921875,1.5018295049667358,0.3413887619972229,0.18684712052345276
1761315246661838800,5.4568388671875,1.4920886754989624,0.34019672870635986,0.1330035924911499
1761315246671885800,5.4668857421875,1.4904454946517944,0.3602977395057678,0.09493556618690491
1761315246681933600,5.47693359375,1.4865256547927856,0.3975260555744171,0.0657356008887291
1761315246691980800,5.486980712890625,1.4891538619995117,0.44212761521339417,0.04628494009375572
1761315246702027800,5.49702783203125,1.5016545057296753,0.4883182644844055,0.03587917238473892
1761315246712074800,5.50707470703125,1.5128214359283447,0.5362849831581116,0.033242374658584595
1761315246722122800,5.517122802734375,1.5322606563568115,0.6041064262390137,0.04482739418745041
1761315246732169700,5.527169677734375,1.5453636646270752,0.6871299147605896,0.060018330812454224
1761315246742216700,5.537216796875,1.5489109754562378,0.7691044211387634,0.06270785629749298
1761315246752263700,5.547263671875,1.5573444366455078,0.8443293571472168,0.049686331301927567
1761315246762311700,5.557311767578125,1.5781389474868774,0.8875101208686829,0.006302903406322002
1761315246772358700,5.567358642578125,1.5985610485076904,0.8938210606575012,-0.06866934150457382
1761315246782405600,5.577405517578125,1.6107444763183594,0.8667044639587402,-0.1622842401266098
1761315246792454000,5.587453857421875,1.6226086616516113,0.8313677906990051,-0.2588091790676117
1761315246802500600,5.59750048828125,1.6256103515625,0.7964622378349304,-0.3378656506538391
1761315246812548600,5.607548583984375,1.6316276788711548,0.7517794966697693,-0.38866546750068665
1761315246822595800,5.617595947265625,1.6457496881484985,0.697192370891571,-0.4038052558898926
1761315246832643800,5.627643798828125,1.6679226160049438,0.6372491717338562,-0.3834075629711151
1761315246842690800,5.63769091796875,1.686361312866211,0.5859639048576355,-0.3375801742076874
1761315246852737800,5.64773779296875,1.6909059286117554,0.5347409248352051,-0.27088847756385803
1761315246862784500,5.657784423828125,1.6756516695022583,0.48019322752952576,-0.2130262553691864
1761315246872832800,5.667832763671875,1.6546882390975952,0.4319002628326416,-0.16676394641399384
1761315246882879700,5.677879638671875,1.6301320791244507,0.3513015806674957,-0.13338255882263184
1761315246892926700,5.6879267578125,1.6049787998199463,0.28319495916366577,-0.11497132480144501
1761315246902973700,5.6979736328125,1.583480954170227,0.2518221139907837,-0.12260235100984573
1761315246913021700,5.708021728515625,1.564071536064148,0.2582126259803772,-0.1639692336320877
1761315246923068700,5.718068603515625,1.5688668489456177,0.3054805397987366,-0.23267851769924164
1761315246933115600,5.72811572265625,1.5865858793258667,0.3927834928035736,-0.30857887864112854
1761315246943163600,5.73816357421875,1.5913546085357666,0.5708837509155273,-0.3508285880088806
1761315246953211000,5.7482109375,1.5809341669082642,0.7838529944419861,-0.3824048936367035
1761315246963257900,5.7582578125,1.5458686351776123,0.9136908650398254,-0.4193898141384125
1761315246973304800,5.768304931640625,1.4893642663955688,0.9400857090950012,-0.44226211309432983
1761315246983352600,5.7783525390625,1.4286810159683228,0.8949909806251526,-0.4356673061847687
1761315246993399600,5.788399658203125,1.3763400316238403,0.7878490686416626,-0.3805031180381775
1761315247003446800,5.79844677734375,1.3517135381698608,0.7368447184562683,-0.2752147912979126
1761315247013493800,5.80849365234375,1.3159904479980469,0.7490622401237488,-0.140638068318367
1761315247023541800,5.818541748046875,1.2734237909317017,0.7547792792320251,-0.015926236286759377
1761315247033588700,5.828588623046875,1.2400420904159546,0.7625628709793091,0.07742368429899216
1761315247043635700,5.8386357421875,1.2398977279663086,0.8492035269737244,0.2075774222612381
1761315247053683700,5.84868359375,1.207371473312378,0.8152077198028564,0.4351309537887573
1761315247063730700,5.858730712890625,1.2196757793426514,0.4826577305793762,0.518622100353241
1761315247073777700,5.868777587890625,1.3050061464309692,0.1509554237127304,0.4735771417617798
1761315247083824600,5.87882470703125,1.373908281326294,0.004601143300533295,0.3900545537471771
1761315247093873000,5.888872802734375,1.3358503580093384,0.04234985262155533,0.2683499753475189
1761315247103919900,5.898919921875,1.219990611076355,0.1949087679386139,0.11359766870737076
1761315247113966600,5.908966552734375,1.0788614749908447,0.4035826325416565,-0.04821280390024185
1761315247124013600,5.919013671875,0.9164232611656189,0.6216859221458435,-0.17379017174243927
1761315247134061800,5.929061767578125,0.7728999257087708,0.7883129715919495,-0.19245865941047668
1761315247144108800,5.93910888671875,0.641972005367279,0.7602728009223938,-0.18063928186893463
