time,seconds_elapsed,z,y,x
1761315116429912600,0.06591259765625,-0.9418487548828125,-0.181610107421875,0.0119476318359375
1761315116439960600,0.075960693359375,-0.94549560546875,-0.1833648681640625,0.013214111328125
1761315116450007600,0.086007568359375,-0.949676513671875,-0.185760498046875,0.0142822265625
1761315116460055600,0.0960556640625,-0.955291748046875,-0.18707275390625,0.0152435302734375
1761315116470104600,0.1061044921875,-0.963409423828125,-0.185943603515625,0.016326904296875
1761315116480152600,0.116152587890625,-0.9732513427734375,-0.186614990234375,0.017242431640625
1761315116490199600,0.126199462890625,-0.9727630615234375,-0.1871490478515625,0.01446533203125
1761315116500247600,0.13624755859375,-0.9754486083984375,-0.1849517822265625,0.0094451904296875
1761315116510294500,0.14629443359375,-0.98370361328125,-0.1812286376953125,0.0072021484375
1761315116520342500,0.156342529296875,-0.990264892578125,-0.17938232421875,0.0079345703125
1761315116530389500,0.166389404296875,-0.998138427734375,-0.1798858642578125,0.0111083984375
1761315116540437500,0.1764375,-1.0018310546875,-0.1797027587890625,0.0142059326171875
1761315116550484700,0.186484619140625,-1.0005340576171875,-0.180328369140625,0.0151214599609375
1761315116560532500,0.196532470703125,-1.002044677734375,-0.1776123046875,0.0160064697265625
1761315116570579500,0.206579345703125,-1.0009918212890625,-0.17718505859375,0.02142333984375
1761315116580627500,0.21662744140625,-0.9981536865234375,-0.1791839599609375,0.03265380859375
1761315116590674700,0.2266748046875,-0.9905548095703125,-0.181854248046875,0.042022705078125
1761315116600722400,0.236722412109375,-0.9796600341796875,-0.1822357177734375,0.046661376953125
1761315116610769400,0.246769287109375,-0.978271484375,-0.1817626953125,0.04595947265625
1761315116620817400,0.2568173828125,-0.9704742431640625,-0.177459716796875,0.0383453369140625
1761315116630864600,0.26686474609375,-0.9594573974609375,-0.1690216064453125,0.0277557373046875
1761315116640912600,0.27691259765625,-0.9549560546875,-0.1672210693359375,0.0224761962890625
1761315116650960400,0.28696044921875,-0.9545745849609375,-0.174163818359375,0.025482177734375
1761315116661007600,0.297007568359375,-0.9618072509765625,-0.1813507080078125,0.0290069580078125
1761315116671055600,0.3070556640625,-0.9652557373046875,-0.183349609375,0.0277099609375
1761315116681102600,0.3171025390625,-0.9560394287109375,-0.179779052734375,0.0239410400390625
1761315116691150300,0.327150390625,-0.948699951171875,-0.1797637939453125,0.0210113525390625
1761315116701197600,0.337197509765625,-0.9602203369140625,-0.1844940185546875,0.0230560302734375
1761315116711245600,0.34724560546875,-0.9688873291015625,-0.1865386962890625,0.0230712890625
1761315116721292500,0.35729248046875,-0.9646759033203125,-0.1844940185546875,0.0166778564453125
1761315116731340500,0.367340576171875,-0.9615936279296875,-0.182952880859375,0.0119171142578125
1761315116741387500,0.377387451171875,-0.963470458984375,-0.187530517578125,0.012725830078125
1761315116751435500,0.387435546875,-0.974761962890625,-0.1925201416015625,0.0149078369140625
1761315116761482500,0.397482421875,-0.980133056640625,-0.1880340576171875,0.0113067626953125
1761315116771530800,0.40753076171875,-0.97650146484375,-0.181304931640625,0.0075225830078125
1761315116781577500,0.417577392578125,-0.971160888671875,-0.1829986572265625,0.01104736328125
1761315116791625500,0.42762548828125,-0.976318359375,-0.1920013427734375,0.0191650390625
1761315116801672400,0.43767236328125,-0.981964111328125,-0.1993408203125,0.021453857421875
1761315116811720700,0.447720703125,-0.9745941162109375,-0.197601318359375,0.0145263671875
1761315116821767700,0.457767578125,-0.969635009765625,-0.1927490234375,0.011749267578125
1761315116831815400,0.4678154296875,-0.9720611572265625,-0.1900482177734375,0.0175628662109375
1761315116841862400,0.4778623046875,-0.9715118408203125,-0.192474365234375,0.0207366943359375
1761315116851910700,0.48791064453125,-0.9707183837890625,-0.193511962890625,0.0176544189453125
1761315116861957600,0.49795751953125,-0.9735107421875,-0.193084716796875,0.011627197265625
1761315116872005400,0.50800537109375,-0.9726104736328125,-0.192413330078125,0.00732421875
1761315116882053600,0.5180537109375,-0.971160888671875,-0.19586181640625,0.0099334716796875
1761315116892100600,0.5281005859375,-0.9722747802734375,-0.2065277099609375,0.0148773193359375
1761315116902148600,0.538148681640625,-0.9691619873046875,-0.2124786376953125,0.01776123046875
1761315116912195300,0.5481953125,-0.9691925048828125,-0.213470458984375,0.0204315185546875
1761315116922243600,0.55824365234375,-0.96844482421875,-0.2137908935546875,0.0262908935546875
1761315116932290600,0.56829052734375,-0.9665985107421875,-0.213958740234375,0.0352325439453125
1761315116942338600,0.578338623046875,-0.9629669189453125,-0.218048095703125,0.036865234375
1761315116952385500,0.588385498046875,-0.9524078369140625,-0.214996337890625,0.0324554443359375
1761315116962433500,0.59843359375,-0.946319580078125,-0.2117767333984375,0.0299224853515625
1761315116972480500,0.60848046875,-0.950469970703125,-0.2145843505859375,0.02703857421875
1761315116982528500,0.618528564453125,-0.954833984375,-0.21588134765625,0.0255126953125
1761315116992575700,0.62857568359375,-0.952301025390625,-0.2148895263671875,0.0240020751953125
1761315117002623500,0.63862353515625,-0.9553680419921875,-0.212615966796875,0.0228729248046875
1761315117012670500,0.64867041015625,-0.9530181884765625,-0.215667724609375,0.024261474609375
1761315117022718500,0.658718505859375,-0.94647216796875,-0.2215576171875,0.0257415771484375
1761315117032765700,0.668765625,-0.9479522705078125,-0.221710205078125,0.0293121337890625
1761315117042813400,0.6788134765625,-0.9481353759765625,-0.2207489013671875,0.038421630859375
1761315117052860400,0.6888603515625,-0.954559326171875,-0.2239837646484375,0.044586181640625
1761315117062908700,0.69890869140625,-0.9558258056640625,-0.2281494140625,0.0425872802734375
1761315117072955600,0.70895556640625,-0.9503021240234375,-0.226654052734375,0.0388336181640625
1761315117083003600,0.719003662109375,-0.94873046875,-0.223968505859375,0.0347442626953125
1761315117093050400,0.72905029296875,-0.952239990234375,-0.2275238037109375,0.0289306640625
1761315117103098600,0.7390986328125,-0.9547271728515625,-0.2347259521484375,0.027069091796875
1761315117113146600,0.749146728515625,-0.9526519775390625,-0.2364044189453125,0.0270843505859375
1761315117123193600,0.759193603515625,-0.9589996337890625,-0.232940673828125,0.0307464599609375
1761315117133241600,0.76924169921875,-0.974884033203125,-0.229217529296875,0.03533935546875
1761315117143288600,0.77928857421875,-0.96881103515625,-0.2248687744140625,0.0333404541015625
1761315117153336600,0.789336669921875,-0.9562225341796875,-0.2231597900390625,0.0334014892578125
1761315117163383600,0.799383544921875,-0.9298248291015625,-0.2184600830078125,0.0489349365234375
1761315117173431600,0.809431640625,-0.9637603759765625,-0.2445220947265625,0.0783233642578125
1761315117183478500,0.819478515625,-0.9897003173828125,-0.2746429443359375,0.070068359375
1761315117193526500,0.829526611328125,-0.9451904296875,-0.2768096923828125,0.05108642578125
1761315117203577600,0.83957763671875,-0.9442901611328125,-0.260223388671875,0.04949951171875
1761315117213625600,0.84962548828125,-0.9519805908203125,-0.248748779296875,0.0420379638671875
1761315117223672600,0.859672607421875,-0.940185546875,-0.23358154296875,0.043670654296875
1761315117233720600,0.869720458984375,-0.931488037109375,-0.226409912109375,0.0258026123046875
1761315117243767800,0.879767822265625,-0.9221649169921875,-0.2378082275390625,0.0274658203125
1761315117253815600,0.889815673828125,-0.9373321533203125,-0.2430267333984375,0.0531158447265625
1761315117263862500,0.899862548828125,-0.9575347900390625,-0.2401885986328125,0.0666351318359375
1761315117273910500,0.90991064453125,-0.954193115234375,-0.2331695556640625,0.072418212890625
1761315117283957800,0.919957763671875,-0.9486083984375,-0.225616455078125,0.06903076171875
1761315117294005800,0.930005859375,-0.9595489501953125,-0.2220001220703125,0.06024169921875
1761315117304052500,0.940052490234375,-0.96331787109375,-0.220916748046875,0.0498504638671875
1761315117314100700,0.950100830078125,-0.9615478515625,-0.220794677734375,0.045196533203125
1761315117324148700,0.960148681640625,-0.9667205810546875,-0.2255096435546875,0.0431976318359375
1761315117334195700,0.97019580078125,-0.968017578125,-0.235015869140625,0.0414276123046875
1761315117344243500,0.980243408203125,-0.970703125,-0.2440338134765625,0.0405426025390625
1761315117354290700,0.990290771484375,-0.973876953125,-0.247100830078125,0.0400238037109375
1761315117364338700,1.000338623046875,-0.978271484375,-0.247314453125,0.042144775390625
1761315117374385700,1.0103857421875,-0.9832000732421875,-0.2464599609375,0.0404510498046875
1761315117384433400,1.020433349609375,-0.98150634765625,-0.241485595703125,0.0393829345703125
1761315117394480600,1.030480712890625,-0.9782257080078125,-0.2360687255859375,0.038238525390625
1761315117404528600,1.040528564453125,-0.9780426025390625,-0.2329254150390625,0.03936767578125
1761315117414575600,1.05057568359375,-0.972869873046875,-0.2336578369140625,0.0424652099609375
1761315117424623600,1.06062353515625,-0.9674224853515625,-0.2320404052734375,0.0428314208984375
1761315117434670600,1.070670654296875,-0.961334228515625,-0.229949951171875,0.045684814453125
1761315117444718600,1.080718505859375,-0.9538116455078125,-0.230499267578125,0.046539306640625
1761315117454765600,1.090765625,-0.947265625,-0.2319183349609375,0.0437774658203125
1761315117464813800,1.100813720703125,-0.94696044921875,-0.2367401123046875,0.041839599609375
1761315117474860500,1.110860595703125,-0.949310302734375,-0.2424468994140625,0.0467071533203125
1761315117484908500,1.120908447265625,-0.9497833251953125,-0.2433013916015625,0.04339599609375
1761315117494955500,1.13095556640625,-0.945648193359375,-0.241607666015625,0.0433349609375
1761315117505003800,1.141003662109375,-0.94384765625,-0.241455078125,0.047882080078125
1761315117515050800,1.15105078125,-0.944244384765625,-0.244415283203125,0.0547943115234375
1761315117525098500,1.161098388671875,-0.9349212646484375,-0.2453460693359375,0.063720703125
1761315117535145500,1.1711455078125,-0.8942108154296875,-0.2462310791015625,0.0675811767578125
1761315117545193700,1.18119384765625,-0.8921051025390625,-0.2689666748046875,0.0984954833984375
1761315117555241500,1.191241455078125,-0.977783203125,-0.2894439697265625,0.1094818115234375
1761315117565288400,1.201288330078125,-0.9421234130859375,-0.2748565673828125,0.0726165771484375
1761315117575336700,1.211336669921875,-0.9262847900390625,-0.255889892578125,0.05242919921875
1761315117585383700,1.2213837890625,-0.9417572021484375,-0.245941162109375,0.0395050048828125
1761315117595431700,1.231431640625,-0.947845458984375,-0.24774169921875,0.034332275390625
1761315117605478400,1.241478515625,-0.95233154296875,-0.255706787109375,0.0264892578125
1761315117615526700,1.251526611328125,-0.9212188720703125,-0.2484893798828125,0.00830078125
1761315117625573600,1.26157373046875,-0.9350738525390625,-0.2475128173828125,0.026519775390625
1761315117635621600,1.27162158203125,-0.958770751953125,-0.254241943359375,0.0523834228515625
1761315117645668600,1.281668701171875,-0.9564056396484375,-0.257720947265625,0.0628814697265625
1761315117655716600,1.291716552734375,-0.95269775390625,-0.2513427734375,0.0682373046875
1761315117665763600,1.301763671875,-0.961181640625,-0.2396087646484375,0.069244384765625
1761315117675811600,1.3118115234375,-0.9615936279296875,-0.230224609375,0.064788818359375
1761315117685858800,1.32185888671875,-0.9595794677734375,-0.22503662109375,0.0600433349609375
1761315117695906600,1.331906494140625,-0.964874267578125,-0.2226409912109375,0.054901123046875
1761315117705953500,1.34195361328125,-0.9661712646484375,-0.223236083984375,0.0503082275390625
1761315117716001500,1.35200146484375,-0.9683685302734375,-0.2265625,0.046661376953125
1761315117726048800,1.362048828125,-0.9740447998046875,-0.231475830078125,0.0452423095703125
1761315117736096500,1.372096435546875,-0.97869873046875,-0.2364959716796875,0.044891357421875
1761315117746143500,1.3821435546875,-0.9847259521484375,-0.2396240234375,0.044342041015625
1761315117756191700,1.392191650390625,-0.9815673828125,-0.2426605224609375,0.0399169921875
1761315117766238700,1.40223876953125,-0.973785400390625,-0.2417755126953125,0.0355377197265625
1761315117776286700,1.41228662109375,-0.9723052978515625,-0.2419891357421875,0.0381927490234375
1761315117786333400,1.42233349609375,-0.9720611572265625,-0.2417449951171875,0.041259765625
1761315117796381700,1.432381591796875,-0.968597412109375,-0.24542236328125,0.0409088134765625
1761315117806429700,1.4424296875,-0.964935302734375,-0.241485595703125,0.038055419921875
1761315117816476700,1.4524765625,-0.96685791015625,-0.2366943359375,0.0442657470703125
1761315117826524700,1.462524658203125,-0.9730987548828125,-0.2352752685546875,0.045623779296875
1761315117836571600,1.472571533203125,-0.962371826171875,-0.2330169677734375,0.0421905517578125
1761315117846619600,1.48261962890625,-0.94659423828125,-0.2320404052734375,0.0443878173828125
1761315117856666600,1.49266650390625,-0.9511260986328125,-0.2373199462890625,0.052276611328125
1761315117866714600,1.502714599609375,-0.9525146484375,-0.2446746826171875,0.056365966796875
1761315117876761600,1.51276171875,-0.9431915283203125,-0.243133544921875,0.05120849609375
1761315117886809600,1.5228095703125,-0.9345703125,-0.237274169921875,0.0489959716796875
1761315117896856600,1.532856689453125,-0.93255615234375,-0.238494873046875,0.0534210205078125
1761315117906904600,1.542904541015625,-0.9318389892578125,-0.245452880859375,0.0596160888671875
1761315117916951600,1.55295166015625,-0.931121826171875,-0.2526092529296875,0.056854248046875
1761315117926999600,1.56299951171875,-0.93682861328125,-0.2486114501953125,0.044281005859375
1761315117937046500,1.573046630859375,-0.9359588623046875,-0.239959716796875,0.03729248046875
1761315117947094800,1.5830947265625,-0.939788818359375,-0.23895263671875,0.038543701171875
1761315117957141800,1.593141845703125,-0.9457550048828125,-0.245208740234375,0.0400543212890625
1761315117967189500,1.603189453125,-0.951904296875,-0.24920654296875,0.0390167236328125
1761315117977236500,1.613236572265625,-0.957122802734375,-0.248779296875,0.0391693115234375
1761315117987284700,1.62328466796875,-0.960052490234375,-0.2467803955078125,0.041595458984375
1761315117997331700,1.633331787109375,-0.964080810546875,-0.246124267578125,0.044464111328125
1761315118007379500,1.64337939453125,-0.965179443359375,-0.2468414306640625,0.0471343994140625
1761315118017426700,1.6534267578125,-0.9613037109375,-0.24395751953125,0.0466461181640625
1761315118027474700,1.663474609375,-0.9589996337890625,-0.2396240234375,0.0471649169921875
1761315118037522400,1.6735224609375,-0.959197998046875,-0.2410125732421875,0.051177978515625
1761315118047569400,1.6835693359375,-0.9604949951171875,-0.243316650390625,0.0551300048828125
1761315118057617700,1.69361767578125,-0.9600982666015625,-0.242645263671875,0.053131103515625
1761315118067664600,1.70366455078125,-0.95947265625,-0.2413330078125,0.049072265625
1761315118077712600,1.713712646484375,-0.9583587646484375,-0.2405242919921875,0.0483245849609375
1761315118087759600,1.723759521484375,-0.95709228515625,-0.2405548095703125,0.0478363037109375
1761315118097807600,1.7338076171875,-0.9588775634765625,-0.2416229248046875,0.04937744140625
1761315118107854600,1.7438544921875,-0.959564208984375,-0.2463226318359375,0.0496368408203125
1761315118117902600,1.753902587890625,-0.957763671875,-0.248992919921875,0.0501861572265625
1761315118127949800,1.76394970703125,-0.9568634033203125,-0.248931884765625,0.049346923828125
1761315118137997600,1.77399755859375,-0.9513397216796875,-0.24945068359375,0.048492431640625
1761315118148044500,1.78404443359375,-0.945709228515625,-0.251373291015625,0.0496063232421875
1761315118158092800,1.7940927734375,-0.94525146484375,-0.25244140625,0.0499420166015625
1761315118168139800,1.804139892578125,-0.9465789794921875,-0.2506866455078125,0.0533599853515625
1761315118178187500,1.8141875,-0.9465484619140625,-0.2474822998046875,0.0554046630859375
1761315118188234500,1.824234375,-0.94873046875,-0.24603271484375,0.05657958984375
1761315118198282800,1.83428271484375,-0.9521636962890625,-0.2445220947265625,0.056427001953125
1761315118208325600,1.84432568359375,-0.95098876953125,-0.2431182861328125,0.055084228515625
1761315118218373600,1.85437353515625,-0.951568603515625,-0.2430572509765625,0.054656982421875
1761315118228420600,1.864420654296875,-0.9525299072265625,-0.2443389892578125,0.05419921875
1761315118238468600,1.874468505859375,-0.9511260986328125,-0.24456787109375,0.0547332763671875
1761315118248515600,1.884515625,-0.9548797607421875,-0.243255615234375,0.0524139404296875
1761315118258563600,1.8945634765625,-0.9546356201171875,-0.2426910400390625,0.0521392822265625
1761315118268610600,1.904610595703125,-0.9573516845703125,-0.2419586181640625,0.051300048828125
1761315118278658600,1.914658447265625,-0.9602813720703125,-0.243988037109375,0.04998779296875
1761315118288705500,1.92470556640625,-0.961700439453125,-0.2433624267578125,0.04876708984375
1761315118298753500,1.93475341796875,-0.960174560546875,-0.2427978515625,0.0482330322265625
1761315118308801500,1.944801513671875,-0.957763671875,-0.2454071044921875,0.0487823486328125
1761315118318848500,1.9548486328125,-0.9525146484375,-0.2463531494140625,0.050750732421875
1761315118328896500,1.964896484375,-0.952117919921875,-0.2465362548828125,0.0523834228515625
1761315118338943500,1.974943603515625,-0.954864501953125,-0.2438812255859375,0.0517578125
1761315118348991700,1.98499169921875,-0.956817626953125,-0.242706298828125,0.0491485595703125
1761315118359038500,1.99503857421875,-0.9567108154296875,-0.240753173828125,0.043212890625
1761315118369086500,2.00508642578125,-0.9571990966796875,-0.240966796875,0.040802001953125
1761315118379133400,2.015133544921875,-0.95819091796875,-0.242919921875,0.038848876953125
1761315118389181700,2.025181640625,-0.9543914794921875,-0.2451629638671875,0.0414886474609375
1761315118399228700,2.035228759765625,-0.9524688720703125,-0.248565673828125,0.04541015625
1761315118409276400,2.0452763671875,-0.9487762451171875,-0.247467041015625,0.0472412109375
1761315118419323400,2.055323486328125,-0.94610595703125,-0.24407958984375,0.0521240234375
1761315118429371600,2.06537158203125,-0.9493408203125,-0.241424560546875,0.054473876953125
1761315118439418600,2.075418701171875,-0.9464874267578125,-0.237457275390625,0.0524749755859375
1761315118449466400,2.08546630859375,-0.944610595703125,-0.235321044921875,0.0518035888671875
1761315118459513300,2.095513427734375,-0.95196533203125,-0.2350616455078125,0.049468994140625
1761315118469561600,2.1055615234375,-0.962432861328125,-0.2345428466796875,0.04656982421875
1761315118479608600,2.115608642578125,-0.9629974365234375,-0.2322998046875,0.04278564453125
1761315118489656600,2.125656494140625,-0.966217041015625,-0.2335662841796875,0.043121337890625
1761315118499703600,2.13570361328125,-0.96917724609375,-0.239593505859375,0.046783447265625
1761315118509751600,2.14575146484375,-0.9641571044921875,-0.24407958984375,0.0467376708984375
1761315118519798500,2.155798583984375,-0.95819091796875,-0.244781494140625,0.0446624755859375
1761315118529846500,2.165846435546875,-0.956512451171875,-0.241973876953125,0.0445404052734375
1761315118539893500,2.1758935546875,-0.952880859375,-0.240966796875,0.045257568359375
1761315118549941500,2.18594140625,-0.949554443359375,-0.243408203125,0.0478973388671875
1761315118559988500,2.195988525390625,-0.9514007568359375,-0.2457275390625,0.048919677734375
1761315118570036700,2.20603662109375,-0.9471893310546875,-0.2443389892578125,0.0493316650390625
1761315118580083700,2.216083740234375,-0.94775390625,-0.2403411865234375,0.0513153076171875
1761315118590131500,2.22613134765625,-0.9564361572265625,-0.23931884765625,0.0536651611328125
1761315118600179500,2.236179443359375,-0.957611083984375,-0.2381744384765625,0.0520782470703125
1761315118610226700,2.246226806640625,-0.9567718505859375,-0.2356109619140625,0.0496368408203125
1761315118620274400,2.2562744140625,-0.9603424072265625,-0.23419189453125,0.0493927001953125
1761315118630321400,2.2663212890625,-0.95880126953125,-0.2358856201171875,0.05218505859375
1761315118640369700,2.27636962890625,-0.95440673828125,-0.2390899658203125,0.054840087890625
1761315118650416600,2.286416748046875,-0.9580535888671875,-0.2415771484375,0.0585784912109375
1761315118660464600,2.296464599609375,-0.957244873046875,-0.2436676025390625,0.0576019287109375
1761315118670511400,2.306511474609375,-0.9522705078125,-0.2434234619140625,0.0544891357421875
1761315118680559600,2.3165595703125,-0.9515228271484375,-0.2395782470703125,0.0533599853515625
1761315118690606600,2.326606689453125,-0.952667236328125,-0.2394866943359375,0.0530242919921875
1761315118700654600,2.336654541015625,-0.9524993896484375,-0.2392425537109375,0.0483245849609375
1761315118710701600,2.34670166015625,-0.95269775390625,-0.23760986328125,0.043731689453125
1761315118720749600,2.35674951171875,-0.960723876953125,-0.238067626953125,0.0434722900390625
1761315118730796500,2.366796630859375,-0.965484619140625,-0.2368621826171875,0.04241943359375
1761315118740844500,2.376844482421875,-0.9632415771484375,-0.237823486328125,0.0445098876953125
1761315118750891500,2.3868916015625,-0.9627685546875,-0.2405853271484375,0.0469970703125
1761315118760939500,2.396939453125,-0.95928955078125,-0.244842529296875,0.048248291015625
1761315118770986500,2.406986572265625,-0.9550933837890625,-0.2455902099609375,0.0477294921875
1761315118781034500,2.417034423828125,-0.95465087890625,-0.2442169189453125,0.0491943359375
1761315118791081500,2.42708154296875,-0.9570465087890625,-0.244537353515625,0.0491943359375
1761315118801129500,2.43712939453125,-0.958404541015625,-0.242218017578125,0.04644775390625
1761315118811176400,2.447176513671875,-0.9547271728515625,-0.23687744140625,0.043365478515625
1761315118821224400,2.457224365234375,-0.9552764892578125,-0.236114501953125,0.0447998046875
1761315118831271700,2.467271728515625,-0.95697021484375,-0.239715576171875,0.04937744140625
1761315118841319700,2.477319580078125,-0.9572296142578125,-0.2433319091796875,0.050201416015625
1761315118851366400,2.487366455078125,-0.9549102783203125,-0.243804931640625,0.0498199462890625
1761315118861414400,2.497414306640625,-0.95379638671875,-0.242523193359375,0.0527191162109375
1761315118871462700,2.507462646484375,-0.955841064453125,-0.242889404296875,0.05316162109375
1761315118881509600,2.517509521484375,-0.9536895751953125,-0.2438201904296875,0.051544189453125
1761315118891557400,2.527557373046875,-0.956298828125,-0.24530029296875,0.0513153076171875
1761315118901604600,2.5376044921875,-0.9597930908203125,-0.243133544921875,0.048309326171875
1761315118911652600,2.547652587890625,-0.958709716796875,-0.2404937744140625,0.0477294921875
1761315118921699600,2.557699462890625,-0.9554443359375,-0.23968505859375,0.04852294921875
1761315118931747300,2.567747314453125,-0.952972412109375,-0.2431488037109375,0.0514068603515625
1761315118941794600,2.577794677734375,-0.9509429931640625,-0.2451324462890625,0.051788330078125
1761315118951842600,2.587842529296875,-0.9511871337890625,-0.244293212890625,0.0508880615234375
1761315118961889500,2.5978896484375,-0.950164794921875,-0.24481201171875,0.052154541015625
1761315118971937500,2.6079375,-0.952117919921875,-0.2447509765625,0.0520477294921875
1761315118981984500,2.617984619140625,-0.94940185546875,-0.243560791015625,0.0516357421875
1761315118992032500,2.628032470703125,-0.951141357421875,-0.24365234375,0.0509185791015625
1761315119002079500,2.63807958984375,-0.956573486328125,-0.24420166015625,0.05145263671875
1761315119012127700,2.648127685546875,-0.956878662109375,-0.24237060546875,0.04608154296875
1761315119022174700,2.6581748046875,-0.9570465087890625,-0.2384490966796875,0.0426788330078125
1761315119032222500,2.668222412109375,-0.9593658447265625,-0.2384796142578125,0.044647216796875
1761315119042269400,2.67826953125,-0.9626617431640625,-0.2427215576171875,0.04632568359375
1761315119052317700,2.688317626953125,-0.958465576171875,-0.2452239990234375,0.0480194091796875
1761315119062364700,2.69836474609375,-0.9580535888671875,-0.24700927734375,0.0526580810546875
1761315119072412400,2.708412353515625,-0.95477294921875,-0.248748779296875,0.0544891357421875
1761315119082459400,2.71845947265625,-0.9504547119140625,-0.2481231689453125,0.0514068603515625
1761315119092507600,2.728507568359375,-0.9487762451171875,-0.246307373046875,0.051239013671875
1761315119102554600,2.7385546875,-0.95123291015625,-0.2463836669921875,0.0531158447265625
1761315119112602400,2.748602294921875,-0.9522552490234375,-0.245819091796875,0.0544586181640625
1761315119122649300,2.7586494140625,-0.94952392578125,-0.24444580078125,0.0559234619140625
1761315119132697600,2.768697509765625,-0.9505157470703125,-0.24298095703125,0.0585174560546875
1761315119142744600,2.77874462890625,-0.9542694091796875,-0.2417449951171875,0.0588836669921875
1761315119152792600,2.78879248046875,-0.95111083984375,-0.2398223876953125,0.05560302734375
1761315119162839600,2.798839599609375,-0.9498443603515625,-0.2413177490234375,0.0542144775390625
1761315119172887600,2.808887451171875,-0.9530181884765625,-0.24627685546875,0.05645751953125
1761315119182935600,2.818935546875,-0.9552459716796875,-0.2498931884765625,0.0532989501953125
1761315119192982500,2.828982421875,-0.9528961181640625,-0.2494049072265625,0.0493316650390625
1761315119203031600,2.839031494140625,-0.9536285400390625,-0.2506103515625,0.0489044189453125
1761315119213078800,2.849078857421875,-0.9559326171875,-0.2517242431640625,0.046844482421875
1761315119223126500,2.85912646484375,-0.953704833984375,-0.2498779296875,0.0435028076171875
1761315119233173500,2.869173583984375,-0.948822021484375,-0.2483673095703125,0.041229248046875
1761315119243221500,2.879221435546875,-0.94635009765625,-0.2502593994140625,0.0432891845703125
1761315119253268700,2.889268798828125,-0.944488525390625,-0.25384521484375,0.047821044921875
1761315119263316700,2.899316650390625,-0.9514617919921875,-0.254791259765625,0.0491943359375
1761315119273363700,2.90936376953125,-0.955902099609375,-0.24945068359375,0.04559326171875
1761315119283411700,2.91941162109375,-0.9583282470703125,-0.2426300048828125,0.0455169677734375
1761315119293458700,2.929458740234375,-0.961517333984375,-0.2409820556640625,0.0465087890625
1761315119303506700,2.939506591796875,-0.9608306884765625,-0.24609375,0.049774169921875
1761315119313553700,2.9495537109375,-0.956024169921875,-0.2510833740234375,0.052947998046875
1761315119323601700,2.9596015625,-0.9534759521484375,-0.2533416748046875,0.054779052734375
1761315119333648600,2.969648681640625,-0.9535064697265625,-0.255889892578125,0.059814453125
1761315119343696600,2.979696533203125,-0.9520416259765625,-0.2559967041015625,0.05987548828125
1761315119353743600,2.98974365234375,-0.961212158203125,-0.256134033203125,0.063232421875
1761315119363791600,2.99979150390625,-0.9730377197265625,-0.2533111572265625,0.0653533935546875
1761315119373838600,3.009838623046875,-0.977203369140625,-0.245819091796875,0.059844970703125
1761315119383886600,3.019886474609375,-0.976470947265625,-0.2407684326171875,0.05401611328125
1761315119393933600,3.02993359375,-0.967010498046875,-0.2436065673828125,0.0428924560546875
1761315119403981600,3.039981689453125,-0.955108642578125,-0.249847412109375,0.039794921875
1761315119414028500,3.050028564453125,-0.945465087890625,-0.2579345703125,0.0399169921875
1761315119424076500,3.06007666015625,-0.937225341796875,-0.2675323486328125,0.0413970947265625
1761315119434123500,3.07012353515625,-0.9335479736328125,-0.2758331298828125,0.047149658203125
1761315119444171800,3.080171875,-0.931610107421875,-0.2761993408203125,0.046112060546875
1761315119454218800,3.09021875,-0.9264678955078125,-0.2661895751953125,0.0406646728515625
1761315119464266500,3.1002666015625,-0.9239654541015625,-0.2562103271484375,0.0366668701171875
1761315119474313700,3.110313720703125,-0.9261474609375,-0.2544403076171875,0.03387451171875
1761315119484361700,3.12036181640625,-0.931884765625,-0.25518798828125,0.0323028564453125
1761315119494409500,3.130409423828125,-0.9377593994140625,-0.2540130615234375,0.035064697265625
1761315119504456400,3.14045654296875,-0.9438629150390625,-0.2528839111328125,0.038116455078125
1761315119514504700,3.150504638671875,-0.949188232421875,-0.250152587890625,0.037078857421875
1761315119524551700,3.1605517578125,-0.9496917724609375,-0.2481536865234375,0.03759765625
1761315119534599400,3.170599365234375,-0.953277587890625,-0.2486419677734375,0.040374755859375
1761315119544646700,3.180646728515625,-0.9564056396484375,-0.25225830078125,0.0410308837890625
1761315119554694700,3.190694580078125,-0.9550018310546875,-0.255706787109375,0.0411834716796875
1761315119564741600,3.20074169921875,-0.9591522216796875,-0.2578582763671875,0.0452728271484375
1761315119574789600,3.21078955078125,-0.962432861328125,-0.2569732666015625,0.044769287109375
1761315119584836600,3.220836669921875,-0.9656829833984375,-0.2513427734375,0.0414886474609375
1761315119594884600,3.230884521484375,-0.96917724609375,-0.248687744140625,0.037506103515625
1761315119604931600,3.240931640625,-0.96844482421875,-0.2472381591796875,0.037109375
1761315119614979600,3.2509794921875,-0.972076416015625,-0.2493438720703125,0.0407867431640625
1761315119625026800,3.26102685546875,-0.9710540771484375,-0.2552032470703125,0.0446929931640625
1761315119635074600,3.271074462890625,-0.9672698974609375,-0.2571868896484375,0.0464630126953125
1761315119645121500,3.28112158203125,-0.964569091796875,-0.255401611328125,0.048492431640625
1761315119655169800,3.291169677734375,-0.9617919921875,-0.250732421875,0.048858642578125
1761315119665216800,3.301216796875,-0.95587158203125,-0.2486724853515625,0.0486297607421875
1761315119675264500,3.311264404296875,-0.9491729736328125,-0.2489471435546875,0.0476226806640625
1761315119685311500,3.3213115234375,-0.9468231201171875,-0.249420166015625,0.0458831787109375
1761315119695359700,3.33135986328125,-0.9429473876953125,-0.2504119873046875,0.04534912109375
1761315119705406700,3.34140673828125,-0.939422607421875,-0.2502899169921875,0.04412841796875
1761315119715454500,3.351454345703125,-0.93914794921875,-0.2513885498046875,0.043182373046875
1761315119725501400,3.36150146484375,-0.94183349609375,-0.25372314453125,0.0434112548828125
1761315119735549700,3.3715498046875,-0.939849853515625,-0.2522125244140625,0.0392913818359375
1761315119745596700,3.3815966796875,-0.939910888671875,-0.2509765625,0.035064697265625
1761315119755644700,3.391644775390625,-0.941802978515625,-0.25396728515625,0.0342864990234375
1761315119765691400,3.40169140625,-0.9494781494140625,-0.2557525634765625,0.0342254638671875
1761315119775739600,3.41173974609375,-0.952362060546875,-0.252655029296875,0.0332183837890625
1761315119785786600,3.42178662109375,-0.9552459716796875,-0.2498626708984375,0.032470703125
1761315119795834600,3.431834716796875,-0.9593048095703125,-0.2471771240234375,0.036529541015625
1761315119805881900,3.4418818359375,-0.9607696533203125,-0.24652099609375,0.03814697265625
1761315119815929600,3.4519296875,-0.9607696533203125,-0.2455291748046875,0.0386505126953125
1761315119825976600,3.4619765625,-0.9620208740234375,-0.2483367919921875,0.042510986328125
1761315119836024600,3.472024658203125,-0.9632110595703125,-0.2516632080078125,0.0440673828125
1761315119846071800,3.48207177734375,-0.9582366943359375,-0.251312255859375,0.04327392578125
1761315119856119600,3.49211962890625,-0.9563446044921875,-0.25140380859375,0.0449981689453125
1761315119866166500,3.50216650390625,-0.9548797607421875,-0.2547760009765625,0.04833984375
1761315119876214500,3.512214599609375,-0.9490966796875,-0.255828857421875,0.0488739013671875
1761315119886262500,3.522262451171875,-0.9431304931640625,-0.255157470703125,0.049652099609375
1761315119896309500,3.5323095703125,-0.9457550048828125,-0.2560882568359375,0.05291748046875
1761315119906357500,3.542357421875,-0.947509765625,-0.2540130615234375,0.04998779296875
1761315119916404700,3.55240478515625,-0.9468536376953125,-0.24810791015625,0.046630859375
1761315119926452700,3.56245263671875,-0.95269775390625,-0.2464141845703125,0.046539306640625
1761315119936499700,3.572499755859375,-0.96014404296875,-0.249542236328125,0.0477447509765625
1761315119946547500,3.58254736328125,-0.959991455078125,-0.2491607666015625,0.04840087890625
1761315119956594700,3.5925947265625,-0.9565277099609375,-0.2475128173828125,0.04656982421875
1761315119966642700,3.602642578125,-0.9551544189453125,-0.2485809326171875,0.0474853515625
1761315119976689700,3.612689697265625,-0.9582672119140625,-0.25323486328125,0.0483245849609375
1761315119986737700,3.622737548828125,-0.95367431640625,-0.25604248046875,0.046142578125
1761315119996784600,3.63278466796875,-0.947509765625,-0.2541351318359375,0.0433502197265625
1761315120006832600,3.64283251953125,-0.94036865234375,-0.2537384033203125,0.0428619384765625
1761315120016879600,3.652879638671875,-0.9398193359375,-0.2548675537109375,0.04425048828125
1761315120026927600,3.662927734375,-0.9422607421875,-0.256011962890625,0.0444793701171875
1761315120036974600,3.672974609375,-0.9452972412109375,-0.2558135986328125,0.046478271484375
1761315120047022600,3.683022705078125,-0.9485931396484375,-0.2520294189453125,0.04693603515625
1761315120057069600,3.693069580078125,-0.9512481689453125,-0.2494659423828125,0.046478271484375
1761315120067117600,3.70311767578125,-0.9541473388671875,-0.2487335205078125,0.0482330322265625
1761315120077164500,3.71316455078125,-0.9555816650390625,-0.2465057373046875,0.0477142333984375
1761315120087212500,3.723212646484375,-0.9531707763671875,-0.244903564453125,0.0453643798828125
1761315120097259500,3.733259521484375,-0.9539031982421875,-0.245208740234375,0.0438385009765625
1761315120107307800,3.743307861328125,-0.959259033203125,-0.2464752197265625,0.042083740234375
1761315120117354800,3.753354736328125,-0.961700439453125,-0.24957275390625,0.0402679443359375
1761315120127402500,3.763402587890625,-0.9677734375,-0.251068115234375,0.04083251953125
1761315120137449700,3.77344970703125,-0.96905517578125,-0.2516632080078125,0.0433197021484375
1761315120147497700,3.783497802734375,-0.9655609130859375,-0.251953125,0.0447998046875
1761315120157544700,3.793544677734375,-0.9649505615234375,-0.25103759765625,0.04547119140625
1761315120167592400,3.803592529296875,-0.9615325927734375,-0.2498016357421875,0.045440673828125
1761315120177639700,3.8136396484375,-0.954315185546875,-0.2485198974609375,0.0470428466796875
1761315120187687700,3.823687744140625,-0.952850341796875,-0.2495269775390625,0.050506591796875
1761315120197734700,3.833734619140625,-0.9547576904296875,-0.2506103515625,0.0529632568359375
1761315120207782000,3.843781982421875,-0.955352783203125,-0.24847412109375,0.0507965087890625
1761315120217828900,3.853828857421875,-0.951171875,-0.2432098388671875,0.04620361328125
1761315120227876600,3.863876708984375,-0.949981689453125,-0.24285888671875,0.0467071533203125
1761315120237923800,3.873923828125,-0.9534149169921875,-0.2489166259765625,0.051513671875
1761315120247971800,3.883971923828125,-0.9518585205078125,-0.251953125,0.0499267578125
1761315120258018800,3.894018798828125,-0.9467315673828125,-0.2510528564453125,0.045684814453125
1761315120268066600,3.904066650390625,-0.94830322265625,-0.2493743896484375,0.046295166015625
1761315120278113800,3.91411376953125,-0.951629638671875,-0.2501983642578125,0.0428009033203125
1761315120288161800,3.924161865234375,-0.950347900390625,-0.2498016357421875,0.039520263671875
1761315120298208800,3.934208740234375,-0.95166015625,-0.251495361328125,0.039215087890625
1761315120308256800,3.9442568359375,-0.9544219970703125,-0.2552337646484375,0.0412445068359375
1761315120318303700,3.9543037109375,-0.9519195556640625,-0.25726318359375,0.0411224365234375
1761315120328351700,3.964351806640625,-0.9504852294921875,-0.2572784423828125,0.0424957275390625
1761315120338398700,3.974398681640625,-0.9547271728515625,-0.255401611328125,0.046142578125
1761315120348446700,3.98444677734375,-0.954315185546875,-0.2508697509765625,0.0452880859375
1761315120358493700,3.99449365234375,-0.9590911865234375,-0.2455291748046875,0.0411834716796875
1761315120368541700,4.004541748046875,-0.9598846435546875,-0.2418365478515625,0.040435791015625
1761315120378588700,4.014588623046875,-0.957855224609375,-0.2417755126953125,0.0429840087890625
1761315120388637000,4.024636962890625,-0.95733642578125,-0.2416229248046875,0.045989990234375
1761315120398684000,4.034683837890625,-0.9569549560546875,-0.2439422607421875,0.0510101318359375
1761315120408731600,4.044731689453125,-0.9535369873046875,-0.2474212646484375,0.0550384521484375
1761315120418778600,4.054778564453125,-0.949127197265625,-0.248779296875,0.0567474365234375
1761315120428827000,4.064826904296875,-0.94708251953125,-0.248138427734375,0.0577850341796875
1761315120438874600,4.07487451171875,-0.950225830078125,-0.2477874755859375,0.055572509765625
1761315120448921600,4.084921630859375,-0.9476318359375,-0.2473602294921875,0.0522003173828125
1761315120458969900,4.094969970703125,-0.9498748779296875,-0.2500762939453125,0.0507965087890625
1761315120469016800,4.105016845703125,-0.9510040283203125,-0.2562103271484375,0.0500946044921875
1761315120479064600,4.115064697265625,-0.952728271484375,-0.2618560791015625,0.0467987060546875
1761315120489111600,4.125111572265625,-0.951629638671875,-0.26513671875,0.0435028076171875
1761315120499159800,4.135159912109375,-0.953765869140625,-0.2660675048828125,0.040313720703125
1761315120509206800,4.145206787109375,-0.952972412109375,-0.2670135498046875,0.037506103515625
1761315120519254800,4.1552548828125,-0.9483795166015625,-0.2683563232421875,0.035858154296875
1761315120529301800,4.1653017578125,-0.9488525390625,-0.270355224609375,0.03826904296875
1761315120539349800,4.175349853515625,-0.9488067626953125,-0.2714385986328125,0.043975830078125
1761315120549396700,4.185396728515625,-0.9422454833984375,-0.267608642578125,0.0462188720703125
1761315120559444700,4.19544482421875,-0.9398193359375,-0.2628173828125,0.04852294921875
1761315120569492000,4.205491943359375,-0.944183349609375,-0.2572021484375,0.0486602783203125
1761315120579539700,4.215539794921875,-0.9454498291015625,-0.2491607666015625,0.0445098876953125
1761315120589586700,4.225586669921875,-0.9490814208984375,-0.2392730712890625,0.0422515869140625
1761315120599634700,4.235634765625,-0.9547576904296875,-0.2323455810546875,0.0428009033203125
1761315120609682000,4.245681884765625,-0.9554443359375,-0.2308502197265625,0.044830322265625
1761315120619729700,4.255729736328125,-0.953857421875,-0.2349700927734375,0.0477447509765625
1761315120629776600,4.265776611328125,-0.9515380859375,-0.23974609375,0.04901123046875
1761315120639825000,4.275824951171875,-0.947998046875,-0.244171142578125,0.0474395751953125
1761315120649872000,4.285871826171875,-0.9431915283203125,-0.249237060546875,0.0467681884765625
1761315120659919600,4.295919677734375,-0.9412384033203125,-0.25299072265625,0.0451507568359375
1761315120669966600,4.305966552734375,-0.937164306640625,-0.2560882568359375,0.0391998291015625
1761315120680014800,4.316014892578125,-0.93585205078125,-0.25579833984375,0.0375823974609375
1761315120690061800,4.326061767578125,-0.943359375,-0.2574310302734375,0.038604736328125
1761315120700109800,4.33610986328125,-0.9488372802734375,-0.258636474609375,0.0405731201171875
1761315120710156800,4.34615673828125,-0.955535888671875,-0.256195068359375,0.04058837890625
1761315120720204800,4.356204833984375,-0.9639129638671875,-0.25164794921875,0.038177490234375
1761315120730251800,4.366251708984375,-0.969329833984375,-0.2429656982421875,0.039337158203125
1761315120740299800,4.3762998046875,-0.97882080078125,-0.240478515625,0.043731689453125
1761315120750346800,4.3863466796875,-0.9796905517578125,-0.2412261962890625,0.0476837158203125
1761315120760394800,4.396394775390625,-0.9755859375,-0.240753173828125,0.050384521484375
1761315120770441700,4.406441650390625,-0.971923828125,-0.23797607421875,0.05059814453125
1761315120780489700,4.41648974609375,-0.9666900634765625,-0.236663818359375,0.0508880615234375
1761315120790536700,4.42653662109375,-0.9660186767578125,-0.2370147705078125,0.05291748046875
1761315120800584700,4.436584716796875,-0.9691009521484375,-0.2403411865234375,0.0558319091796875
1761315120810631700,4.446631591796875,-0.9634246826171875,-0.2421417236328125,0.0578765869140625
1761315120820679700,4.4566796875,-0.960540771484375,-0.24005126953125,0.0581817626953125
1761315120830727000,4.466726806640625,-0.9589691162109375,-0.238067626953125,0.0564422607421875
1761315120840774700,4.476774658203125,-0.9550933837890625,-0.2367706298828125,0.054229736328125
1761315120850821600,4.486821533203125,-0.9508819580078125,-0.2386016845703125,0.0558624267578125
1761315120860869600,4.49686962890625,-0.94769287109375,-0.2455902099609375,0.056610107421875
1761315120870916900,4.506916748046875,-0.9437408447265625,-0.2500762939453125,0.0555572509765625
1761315120880964900,4.51696484375,-0.9406585693359375,-0.2516021728515625,0.0522613525390625
1761315120891011800,4.52701171875,-0.9412384033203125,-0.251953125,0.048828125
1761315120901059800,4.537059814453125,-0.9431610107421875,-0.247894287109375,0.0467071533203125
1761315120911106800,4.54710693359375,-0.9462127685546875,-0.244873046875,0.0444488525390625
1761315120921154800,4.55715478515625,-0.949310302734375,-0.2437896728515625,0.0430145263671875
1761315120931201800,4.567201904296875,-0.9527435302734375,-0.2444000244140625,0.0428619384765625
1761315120941249800,4.577249755859375,-0.955841064453125,-0.2443084716796875,0.0433349609375
1761315120951296800,4.587296875,-0.9598236083984375,-0.24395751953125,0.0432891845703125
1761315120961344800,4.5973447265625,-0.9611968994140625,-0.243438720703125,0.041717529296875
1761315120971391700,4.607391845703125,-0.961395263671875,-0.2432098388671875,0.043792724609375
1761315120981439700,4.617439697265625,-0.9620361328125,-0.243621826171875,0.04656982421875
1761315120991486700,4.62748681640625,-0.9596710205078125,-0.24591064453125,0.0467529296875
1761315121001534700,4.63753466796875,-0.956878662109375,-0.2489471435546875,0.04705810546875
1761315121011581700,4.647581787109375,-0.9567718505859375,-0.24810791015625,0.04669189453125
1761315121021629700,4.657629638671875,-0.9555816650390625,-0.2475128173828125,0.0474090576171875
1761315121031676700,4.6676767578125,-0.9547271728515625,-0.2468109130859375,0.0503387451171875
1761315121041724700,4.677724609375,-0.9521026611328125,-0.245391845703125,0.0518035888671875
1761315121051771600,4.687771728515625,-0.95111083984375,-0.24261474609375,0.055755615234375
1761315121061820000,4.69781982421875,-0.9519195556640625,-0.2431640625,0.059661865234375
1761315121071866600,4.70786669921875,-0.948486328125,-0.24652099609375,0.056793212890625
1761315121081914600,4.71791455078125,-0.9498443603515625,-0.2480926513671875,0.0559234619140625
1761315121091961900,4.7279619140625,-0.95379638671875,-0.2474212646484375,0.054290771484375
1761315121102009900,4.738009765625,-0.9531707763671875,-0.2436981201171875,0.052581787109375
1761315121112056800,4.748056884765625,-0.9540252685546875,-0.2443389892578125,0.053680419921875
1761315121122104600,4.7581044921875,-0.955291748046875,-0.2456512451171875,0.0554962158203125
1761315121132151800,4.76815185546875,-0.9509124755859375,-0.2463226318359375,0.05584716796875
1761315121142199800,4.77819970703125,-0.9469757080078125,-0.2460784912109375,0.0571746826171875
1761315121152246800,4.788246826171875,-0.9478302001953125,-0.24639892578125,0.05908203125
1761315121162294800,4.798294677734375,-0.9491119384765625,-0.2480926513671875,0.0590362548828125
1761315121172341800,4.808341796875,-0.94818115234375,-0.245086669921875,0.0548858642578125
1761315121182389800,4.8183896484375,-0.9489288330078125,-0.2398834228515625,0.0525360107421875
1761315121192436700,4.828436767578125,-0.958038330078125,-0.2390899658203125,0.05352783203125
1761315121202484700,4.838484619140625,-0.9616851806640625,-0.2400970458984375,0.05328369140625
1761315121212532200,4.8485322265625,-0.9631805419921875,-0.2385406494140625,0.0507965087890625
1761315121222580200,4.858580322265625,-0.96746826171875,-0.2384796142578125,0.051025390625
1761315121232627200,4.868627197265625,-0.9654083251953125,-0.2411651611328125,0.050506591796875
1761315121242675200,4.87867529296875,-0.959381103515625,-0.2442779541015625,0.0489959716796875
1761315121252722200,4.88872216796875,-0.953643798828125,-0.2471771240234375,0.0490875244140625
1761315121262770200,4.898770263671875,-0.9519805908203125,-0.252166748046875,0.0499114990234375
1761315121272817200,4.908817138671875,-0.94952392578125,-0.255706787109375,0.0477142333984375
1761315121282865400,4.918865478515625,-0.946380615234375,-0.256011962890625,0.0447235107421875
1761315121292912000,4.928912109375,-0.9480133056640625,-0.254974365234375,0.0445098876953125
1761315121302960000,4.938960205078125,-0.951751708984375,-0.2545928955078125,0.043212890625
1761315121313007400,4.94900732421875,-0.95355224609375,-0.2509613037109375,0.042327880859375
1761315121323055400,4.959055419921875,-0.9542388916015625,-0.2494354248046875,0.0423431396484375
1761315121333102300,4.969102294921875,-0.9535369873046875,-0.246673583984375,0.04364013671875
1761315121343150000,4.979150146484375,-0.95098876953125,-0.246063232421875,0.04730224609375
1761315121353197300,4.989197265625,-0.9521636962890625,-0.2484130859375,0.052581787109375
1761315121363245300,4.999245361328125,-0.95391845703125,-0.24798583984375,0.0547943115234375
1761315121373292300,5.009292236328125,-0.9559326171875,-0.2466278076171875,0.0561370849609375
1761315121383340300,5.01934033203125,-0.96002197265625,-0.2447052001953125,0.058349609375
1761315121393387300,5.02938720703125,-0.9598236083984375,-0.244903564453125,0.05755615234375
1761315121403435300,5.039435302734375,-0.9574737548828125,-0.245758056640625,0.0577239990234375
1761315121413482200,5.049482177734375,-0.95953369140625,-0.247406005859375,0.0576629638671875
1761315121423530200,5.0595302734375,-0.9586334228515625,-0.2504730224609375,0.0572662353515625
1761315121433577200,5.0695771484375,-0.955780029296875,-0.2541046142578125,0.057098388671875
1761315121443625200,5.079625244140625,-0.955963134765625,-0.2578125,0.0589141845703125
1761315121453672200,5.089672119140625,-0.954254150390625,-0.2606201171875,0.0605926513671875
1761315121463720400,5.099720458984375,-0.9503631591796875,-0.263153076171875,0.0595245361328125
1761315121473767200,5.10976708984375,-0.94921875,-0.26318359375,0.0587615966796875
1761315121483815200,5.119815185546875,-0.9508056640625,-0.2596435546875,0.0556488037109375
1761315121493862100,5.129862060546875,-0.948638916015625,-0.255950927734375,0.056182861328125
1761315121503910400,5.139910400390625,-0.94757080078125,-0.255462646484375,0.058441162109375
1761315121513957400,5.149957275390625,-0.94854736328125,-0.2547454833984375,0.0578155517578125
1761315121524005000,5.160005126953125,-0.9476776123046875,-0.25146484375,0.0552978515625
1761315121534052000,5.170052001953125,-0.949493408203125,-0.2483978271484375,0.052490234375
1761315121544100400,5.180100341796875,-0.9521331787109375,-0.244415283203125,0.0467681884765625
1761315121554147300,5.190147216796875,-0.9525299072265625,-0.2407379150390625,0.043487548828125
1761315121564195000,5.200195068359375,-0.9529876708984375,-0.243011474609375,0.0404205322265625
1761315121574242300,5.2102421875,-0.949005126953125,-0.246185302734375,0.03887939453125
1761315121584290300,5.220290283203125,-0.9446563720703125,-0.2495880126953125,0.039306640625
1761315121594337300,5.230337158203125,-0.943084716796875,-0.2526397705078125,0.0430450439453125
1761315121604385000,5.240385009765625,-0.942779541015625,-0.253997802734375,0.0452880859375
1761315121614432300,5.250432373046875,-0.9429473876953125,-0.25115966796875,0.04461669921875
1761315121624478500,5.260478515625,-0.9447021484375,-0.2453765869140625,0.044891357421875
1761315121634525200,5.270525146484375,-0.9478607177734375,-0.24176025390625,0.045379638671875
1761315121644573200,5.2805732421875,-0.9510650634765625,-0.2418212890625,0.0439300537109375
1761315121654620200,5.2906201171875,-0.9543304443359375,-0.2438812255859375,0.0426025390625
1761315121664668400,5.30066845703125,-0.95758056640625,-0.248199462890625,0.0439910888671875
1761315121674715400,5.31071533203125,-0.9593505859375,-0.2519683837890625,0.0462646484375
1761315121684763100,5.32076318359375,-0.9571990966796875,-0.2552490234375,0.0467681884765625
1761315121694810000,5.33081005859375,-0.9547576904296875,-0.256439208984375,0.0474395751953125
1761315121704858400,5.3408583984375,-0.955322265625,-0.2576904296875,0.048797607421875
1761315121714905300,5.3509052734375,-0.9568328857421875,-0.2581634521484375,0.0500946044921875
1761315121724953000,5.360953125,-0.9538726806640625,-0.2566986083984375,0.048309326171875
1761315121735000000,5.371,-0.952606201171875,-0.2536468505859375,0.048187255859375
1761315121745048300,5.38104833984375,-0.95819091796875,-0.2530059814453125,0.0505523681640625
1761315121755095300,5.39109521484375,-0.9583587646484375,-0.24993896484375,0.050811767578125
1761315121765143000,5.40114306640625,-0.95709228515625,-0.245635986328125,0.0491180419921875
1761315121775190300,5.411190185546875,-0.95294189453125,-0.243377685546875,0.0505828857421875
1761315121785238300,5.42123828125,-0.9560699462890625,-0.244354248046875,0.0548095703125
1761315121795285200,5.43128515625,-0.96295166015625,-0.246490478515625,0.0547943115234375
1761315121805332200,5.441332275390625,-0.9591522216796875,-0.2437744140625,0.05218505859375
1761315121815380200,5.451380126953125,-0.9559173583984375,-0.2404327392578125,0.050537109375
1761315121825427200,5.46142724609375,-0.9575958251953125,-0.2435150146484375,0.0521392822265625
1761315121835475200,5.47147509765625,-0.9540252685546875,-0.247772216796875,0.05413818359375
1761315121845522200,5.481522216796875,-0.9496612548828125,-0.2494049072265625,0.0523834228515625
1761315121855570400,5.4915703125,-0.9449310302734375,-0.248291015625,0.0513916015625
1761315121865617200,5.5016171875,-0.9407501220703125,-0.2513275146484375,0.052978515625
1761315121875665200,5.5116650390625,-0.9385223388671875,-0.2561187744140625,0.053924560546875
1761315121885712100,5.521712158203125,-0.9388275146484375,-0.256927490234375,0.0549163818359375
1761315121895760400,5.531760498046875,-0.9429168701171875,-0.2549591064453125,0.0529022216796875
1761315121905807400,5.541807373046875,-0.9475860595703125,-0.250701904296875,0.0505523681640625
1761315121915855000,5.551855224609375,-0.9509735107421875,-0.247344970703125,0.0462799072265625
1761315121925902300,5.56190234375,-0.9586944580078125,-0.24530029296875,0.0446319580078125
1761315121935950300,5.571950439453125,-0.9621124267578125,-0.2447052001953125,0.0439605712890625
1761315121945997300,5.581997314453125,-0.9645843505859375,-0.2464599609375,0.04638671875
1761315121956045000,5.592045166015625,-0.96405029296875,-0.2485198974609375,0.049774169921875
1761315121966092300,5.60209228515625,-0.9612579345703125,-0.249725341796875,0.05291748046875
1761315121976140300,5.612140380859375,-0.9579925537109375,-0.24945068359375,0.05377197265625
1761315121986187300,5.622187255859375,-0.9554901123046875,-0.249603271484375,0.0551910400390625
1761315121996235000,5.632235107421875,-0.9535675048828125,-0.2497100830078125,0.0544586181640625
1761315122006282200,5.6422822265625,-0.951690673828125,-0.24761962890625,0.052825927734375
1761315122016330200,5.652330322265625,-0.9515838623046875,-0.2472686767578125,0.0518646240234375
1761315122026377200,5.662377197265625,-0.9545135498046875,-0.2472381591796875,0.0505828857421875
1761315122036425500,5.672425537109375,-0.953857421875,-0.245361328125,0.0485992431640625
1761315122046472200,5.68247216796875,-0.954376220703125,-0.245361328125,0.047393798828125
1761315122056520200,5.692520263671875,-0.9568939208984375,-0.2470855712890625,0.04864501953125
1761315122066567200,5.702567138671875,-0.9560546875,-0.2481842041015625,0.047698974609375
1761315122076615400,5.712615478515625,-0.9525604248046875,-0.247528076171875,0.0460662841796875
1761315122086662400,5.722662353515625,-0.950042724609375,-0.2481231689453125,0.0456085205078125
1761315122096710100,5.732710205078125,-0.94921875,-0.247772216796875,0.0477447509765625
1761315122106757000,5.742757080078125,-0.947540283203125,-0.24688720703125,0.049468994140625
1761315122116805400,5.752805419921875,-0.9461517333984375,-0.2476348876953125,0.050872802734375
1761315122126852400,5.762852294921875,-0.943389892578125,-0.24822998046875,0.0506439208984375
1761315122136900000,5.772900146484375,-0.9432373046875,-0.24896240234375,0.0508270263671875
1761315122146947000,5.782947021484375,-0.945159912109375,-0.2490081787109375,0.0491485595703125
1761315122156995300,5.792995361328125,-0.9443511962890625,-0.2488555908203125,0.04852294921875
1761315122167042300,5.803042236328125,-0.947357177734375,-0.248565673828125,0.0485992431640625
1761315122177090000,5.813090087890625,-0.950927734375,-0.2481842041015625,0.0507354736328125
1761315122187137300,5.82313720703125,-0.951629638671875,-0.2458343505859375,0.0478057861328125
1761315122197185300,5.833185302734375,-0.954742431640625,-0.2408905029296875,0.04541015625
1761315122207232300,5.843232177734375,-0.9593353271484375,-0.2400360107421875,0.0461273193359375
1761315122217280000,5.853280029296875,-0.961822509765625,-0.2441864013671875,0.0467987060546875
1761315122227327000,5.863326904296875,-0.9608306884765625,-0.24639892578125,0.04656982421875
1761315122237374700,5.873374755859375,-0.9579620361328125,-0.2501220703125,0.0469970703125
1761315122247422000,5.883421875,-0.95849609375,-0.252777099609375,0.0503082275390625
1761315122257470000,5.893469970703125,-0.9589080810546875,-0.2554168701171875,0.0510406494140625
1761315122267517000,5.903516845703125,-0.957916259765625,-0.252410888671875,0.0472869873046875
1761315122277564700,5.913564697265625,-0.9560699462890625,-0.248809814453125,0.0461883544921875
1761315122287612000,5.92361181640625,-0.9555816650390625,-0.24810791015625,0.04669189453125
1761315122297660000,5.933659912109375,-0.9510955810546875,-0.248382568359375,0.045928955078125
1761315122307707000,5.943706787109375,-0.949371337890625,-0.2466278076171875,0.0463409423828125
1761315122317753900,5.95375390625,-0.9499969482421875,-0.245269775390625,0.0483245849609375
1761315122327801900,5.9638017578125,-0.9530181884765625,-0.24639892578125,0.050262451171875
1761315122337848800,5.973848876953125,-0.9561309814453125,-0.2457733154296875,0.0507354736328125
1761315122347896800,5.983896728515625,-0.9586181640625,-0.2402801513671875,0.0518035888671875
1761315122357943800,5.99394384765625,-0.958587646484375,-0.2367706298828125,0.0517120361328125
1761315122367991800,6.00399169921875,-0.9593353271484375,-0.23895263671875,0.05267333984375
1761315122378038800,6.014038818359375,-0.9586944580078125,-0.2426910400390625,0.053955078125
1761315122388086800,6.024086669921875,-0.9561767578125,-0.2460479736328125,0.051666259765625
1761315122398133800,6.0341337890625,-0.9542388916015625,-0.246917724609375,0.0507965087890625
1761315122408182000,6.04418212890625,-0.9517059326171875,-0.2489776611328125,0.050079345703125
1761315122418229000,6.05422900390625,-0.9502105712890625,-0.2504425048828125,0.0479888916015625
1761315122428276700,6.06427685546875,-0.94775390625,-0.25042724609375,0.046142578125
1761315122438324000,6.074323974609375,-0.949554443359375,-0.250579833984375,0.044830322265625
1761315122448372000,6.0843720703125,-0.949554443359375,-0.250213623046875,0.0438232421875
1761315122458419000,6.0944189453125,-0.9475555419921875,-0.2503814697265625,0.0430145263671875
1761315122468466700,6.104466796875,-0.9484710693359375,-0.249664306640625,0.045989990234375
1761315122478514000,6.114513916015625,-0.951629638671875,-0.2504425048828125,0.050323486328125
1761315122488562000,6.12456201171875,-0.9542388916015625,-0.249908447265625,0.05029296875
1761315122498609000,6.13460888671875,-0.952789306640625,-0.2463531494140625,0.0497283935546875
1761315122508657000,6.144656982421875,-0.954010009765625,-0.24468994140625,0.05078125
1761315122518703900,6.154703857421875,-0.95587158203125,-0.243988037109375,0.0531005859375
1761315122528751900,6.164751953125,-0.95587158203125,-0.2456512451171875,0.0532684326171875
1761315122538798800,6.174798828125,-0.956573486328125,-0.246978759765625,0.0543975830078125
1761315122548846800,6.184846923828125,-0.961334228515625,-0.2470245361328125,0.0552520751953125
1761315122558893800,6.194893798828125,-0.96160888671875,-0.245391845703125,0.0538787841796875
1761315122568941800,6.20494189453125,-0.957672119140625,-0.2447967529296875,0.051025390625
1761315122578988800,6.21498876953125,-0.9559173583984375,-0.246124267578125,0.0494842529296875
1761315122589037000,6.225037109375,-0.9594268798828125,-0.24908447265625,0.0492706298828125
1761315122599083800,6.235083740234375,-0.958831787109375,-0.2501983642578125,0.0477142333984375
1761315122609131800,6.2451318359375,-0.9552154541015625,-0.250762939453125,0.04534912109375
1761315122619178800,6.2551787109375,-0.954864501953125,-0.25244140625,0.045806884765625
1761315122629227000,6.26522705078125,-0.9546661376953125,-0.2521514892578125,0.04449462890625
1761315122639274000,6.27527392578125,-0.94842529296875,-0.249542236328125,0.0443267822265625
1761315122649321700,6.28532177734375,-0.9455108642578125,-0.248809814453125,0.04376220703125
1761315122659369000,6.295368896484375,-0.945220947265625,-0.2484283447265625,0.0438995361328125
1761315122669416000,6.305416015625,-0.9438629150390625,-0.249420166015625,0.0447540283203125
1761315122679464000,6.3154638671875,-0.9419097900390625,-0.2518157958984375,0.0446014404296875
1761315122689511000,6.325510986328125,-0.9444122314453125,-0.2530364990234375,0.0433197021484375
1761315122699559000,6.335558837890625,-0.948150634765625,-0.25067138671875,0.0411529541015625
1761315122709606000,6.34560595703125,-0.9526519775390625,-0.24652099609375,0.0423126220703125
1761315122719654000,6.35565380859375,-0.956146240234375,-0.2443084716796875,0.0472564697265625
1761315122729700900,6.365700927734375,-0.9553680419921875,-0.2436676025390625,0.050567626953125
1761315122739748900,6.375748779296875,-0.9545745849609375,-0.2423858642578125,0.05230712890625
1761315122749795800,6.3857958984375,-0.9561920166015625,-0.241058349609375,0.052764892578125
1761315122759843800,6.39584375,-0.9586639404296875,-0.23974609375,0.054962158203125
1761315122769890800,6.405890869140625,-0.9605712890625,-0.23828125,0.056182861328125
1761315122779938800,6.415938720703125,-0.9606170654296875,-0.2374725341796875,0.0558624267578125
1761315122789985800,6.42598583984375,-0.962921142578125,-0.2374114990234375,0.0571441650390625
1761315122800033800,6.43603369140625,-0.96246337890625,-0.240203857421875,0.058929443359375
1761315122810080800,6.446080810546875,-0.96063232421875,-0.2430419921875,0.0609283447265625
1761315122820129000,6.45612890625,-0.9559478759765625,-0.2460479736328125,0.0629425048828125
1761315122830176000,6.466176025390625,-0.9534454345703125,-0.248443603515625,0.062591552734375
1761315122840223700,6.4762236328125,-0.954010009765625,-0.2525634765625,0.061798095703125
1761315122850271000,6.48627099609375,-0.95538330078125,-0.2533416748046875,0.0596771240234375
1761315122860319000,6.496319091796875,-0.9497833251953125,-0.2506103515625,0.0534515380859375
1761315122870366000,6.506365966796875,-0.94976806640625,-0.250335693359375,0.0499725341796875
1761315122880413700,6.51641357421875,-0.952056884765625,-0.2518157958984375,0.04754638671875
1761315122890461000,6.5264609375,-0.9523468017578125,-0.2519073486328125,0.044921875
1761315122900509000,6.536509033203125,-0.9524688720703125,-0.2507476806640625,0.04266357421875
1761315122910556000,6.546555908203125,-0.9551544189453125,-0.2480926513671875,0.0413970947265625
1761315122920604000,6.55660400390625,-0.95947265625,-0.2478790283203125,0.04046630859375
1761315122930651000,6.56665087890625,-0.958587646484375,-0.2480316162109375,0.0383453369140625
1761315122940699000,6.576698974609375,-0.958404541015625,-0.24676513671875,0.0382537841796875
1761315122950745900,6.586745849609375,-0.957611083984375,-0.2449798583984375,0.0384063720703125
1761315122960793900,6.5967939453125,-0.9553375244140625,-0.2443084716796875,0.040069580078125
1761315122970840800,6.6068408203125,-0.9514923095703125,-0.24554443359375,0.042449951171875
1761315122980888800,6.616888916015625,-0.9499969482421875,-0.246612548828125,0.0435943603515625
1761315122990935800,6.626935791015625,-0.9486846923828125,-0.2472381591796875,0.0450439453125
1761315123000982800,6.636982666015625,-0.9491119384765625,-0.244659423828125,0.0436248779296875
1761315123011031000,6.647031005859375,-0.9510040283203125,-0.2428131103515625,0.0417022705078125
1761315123021077800,6.657077880859375,-0.9514312744140625,-0.2412567138671875,0.0413055419921875
1761315123031125800,6.667125732421875,-0.951324462890625,-0.2418365478515625,0.0413055419921875
1761315123041173000,6.677173095703125,-0.951904296875,-0.24420166015625,0.0424652099609375
1761315123051221000,6.687220947265625,-0.9510040283203125,-0.2477569580078125,0.0445709228515625
1761315123061268000,6.69726806640625,-0.9527740478515625,-0.2501678466796875,0.046661376953125
1761315123071315700,6.707315673828125,-0.953857421875,-0.2518310546875,0.0467376708984375
1761315123081363000,6.717363037109375,-0.952362060546875,-0.25048828125,0.0451812744140625
1761315123091411000,6.727410888671875,-0.9503326416015625,-0.2480926513671875,0.044036865234375
1761315123101458000,6.7374580078125,-0.9541015625,-0.2478485107421875,0.0445556640625
1761315123111506000,6.747505859375,-0.9573974609375,-0.248626708984375,0.0447998046875
1761315123121553000,6.757552978515625,-0.9575958251953125,-0.24798583984375,0.0446014404296875
1761315123131601000,6.767600830078125,-0.9602813720703125,-0.2443389892578125,0.0438690185546875
1761315123141648000,6.77764794921875,-0.9622039794921875,-0.24188232421875,0.043426513671875
1761315123151696000,6.78769580078125,-0.96136474609375,-0.2410888671875,0.0435943603515625
1761315123161742800,6.797742919921875,-0.96246337890625,-0.24261474609375,0.0450592041015625
1761315123171790800,6.807790771484375,-0.9611358642578125,-0.2440948486328125,0.0467529296875
1761315123181837800,6.817837890625,-0.957611083984375,-0.243499755859375,0.049285888671875
1761315123191885800,6.8278857421875,-0.95343017578125,-0.24359130859375,0.0507659912109375
1761315123201932800,6.837932861328125,-0.9548187255859375,-0.243072509765625,0.0511474609375
1761315123211981000,6.84798095703125,-0.9503326416015625,-0.2442169189453125,0.0491180419921875
1761315123222028000,6.858028076171875,-0.94915771484375,-0.245330810546875,0.0465087890625
1761315123232076300,6.868076171875,-0.9490509033203125,-0.2442779541015625,0.0417938232421875
1761315123242123000,6.878123046875,-0.946319580078125,-0.2440032958984375,0.0394439697265625
1761315123252171000,6.8881708984375,-0.9488983154296875,-0.2475738525390625,0.040435791015625
1761315123262218200,6.89821826171875,-0.9512939453125,-0.249420166015625,0.04241943359375
1761315123272266200,6.908266357421875,-0.9527587890625,-0.2518463134765625,0.043609619140625
1761315123282313200,6.918313232421875,-0.952972412109375,-0.25042724609375,0.043365478515625
1761315123292360200,6.928360107421875,-0.95404052734375,-0.2477569580078125,0.0435028076171875
1761315123302408200,6.938408203125,-0.955841064453125,-0.2448883056640625,0.042266845703125
1761315123312455200,6.948455078125,-0.9559783935546875,-0.2432861328125,0.0393524169921875
1761315123322503200,6.958503173828125,-0.9570770263671875,-0.2443389892578125,0.0400390625
1761315123332550100,6.968550048828125,-0.9611358642578125,-0.2451019287109375,0.04052734375
1761315123342598100,6.97859814453125,-0.9599761962890625,-0.2464752197265625,0.037994384765625
1761315123352645000,6.98864501953125,-0.958038330078125,-0.246673583984375,0.0383148193359375
1761315123362693000,6.998693115234375,-0.95556640625,-0.2475128173828125,0.041748046875
1761315123372740000,7.008739990234375,-0.9505615234375,-0.25079345703125,0.04510498046875
1761315123382788000,7.0187880859375,-0.95025634765625,-0.2541351318359375,0.04425048828125
1761315123392835000,7.0288349609375,-0.9506072998046875,-0.2507171630859375,0.0389251708984375
1761315123402883000,7.038883056640625,-0.947418212890625,-0.2497406005859375,0.04071044921875
1761315123412930000,7.048929931640625,-0.95135498046875,-0.2501373291015625,0.04083251953125
1761315123422978000,7.05897802734375,-0.9495849609375,-0.2510833740234375,0.0389251708984375
1761315123433025000,7.06902490234375,-0.9501800537109375,-0.2501983642578125,0.0399627685546875
1761315123443073000,7.079072998046875,-0.954010009765625,-0.24932861328125,0.042236328125
1761315123453120300,7.089120361328125,-0.956146240234375,-0.2484588623046875,0.04302978515625
1761315123463168300,7.099168212890625,-0.9529571533203125,-0.2493743896484375,0.0410614013671875
1761315123473215000,7.109215087890625,-0.955108642578125,-0.250091552734375,0.0402984619140625
1761315123483263000,7.119262939453125,-0.954925537109375,-0.2486114501953125,0.03936767578125
1761315123493310200,7.129310302734375,-0.9532623291015625,-0.2483367919921875,0.040252685546875
1761315123503358200,7.139358154296875,-0.9534912109375,-0.2500457763671875,0.04150390625
1761315123513405200,7.1494052734375,-0.9526519775390625,-0.2515716552734375,0.042144775390625
1761315123523453200,7.159453125,-0.952301025390625,-0.2510528564453125,0.041717529296875
1761315123533500200,7.169500244140625,-0.95269775390625,-0.250640869140625,0.040679931640625
1761315123543547100,7.179547119140625,-0.9522552490234375,-0.2486419677734375,0.0404052734375
1761315123553595100,7.18959521484375,-0.953826904296875,-0.2484588623046875,0.03759765625
1761315123563642000,7.19964208984375,-0.949737548828125,-0.248565673828125,0.0368804931640625
1761315123573690000,7.209690185546875,-0.9495697021484375,-0.2491455078125,0.037811279296875
1761315123583737000,7.219737060546875,-0.95416259765625,-0.2509307861328125,0.0387420654296875
1761315123593785000,7.22978515625,-0.9552001953125,-0.2503814697265625,0.0399169921875
1761315123603832000,7.23983203125,-0.9539337158203125,-0.2482452392578125,0.0386810302734375
1761315123613880000,7.249880126953125,-0.9535064697265625,-0.2470703125,0.0383758544921875
1761315123623927000,7.259927001953125,-0.953826904296875,-0.246307373046875,0.03948974609375
1761315123633975000,7.26997509765625,-0.95452880859375,-0.2464447021484375,0.041748046875
1761315123644022300,7.280022216796875,-0.9540252685546875,-0.248199462890625,0.04180908203125
1761315123654070000,7.290070068359375,-0.954315185546875,-0.2486724853515625,0.0406646728515625
1761315123664117000,7.300116943359375,-0.9565277099609375,-0.24725341796875,0.040740966796875
1761315123674165000,7.3101650390625,-0.9579620361328125,-0.24517822265625,0.038055419921875
1761315123684212200,7.320212158203125,-0.9594879150390625,-0.2449798583984375,0.03619384765625
1761315123694260200,7.33026025390625,-0.9604034423828125,-0.244293212890625,0.034942626953125
1761315123704307200,7.34030712890625,-0.9607391357421875,-0.2456512451171875,0.035186767578125
1761315123714355200,7.350355224609375,-0.9608001708984375,-0.2472076416015625,0.0348052978515625
1761315123724402200,7.360402099609375,-0.958221435546875,-0.2491302490234375,0.037567138671875
1761315123734450200,7.3704501953125,-0.9575653076171875,-0.2504730224609375,0.0374908447265625
1761315123744497200,7.3804970703125,-0.9544525146484375,-0.2509613037109375,0.0376739501953125
1761315123754545200,7.390545166015625,-0.9505615234375,-0.2508392333984375,0.036285400390625
1761315123764592000,7.400592041015625,-0.94952392578125,-0.2526397705078125,0.0363006591796875
1761315123774640000,7.41064013671875,-0.944854736328125,-0.2509918212890625,0.03485107421875
1761315123784687000,7.42068701171875,-0.943084716796875,-0.248382568359375,0.033660888671875
1761315123794734300,7.430734375,-0.94189453125,-0.24951171875,0.0366668701171875
1761315123804782000,7.440781982421875,-0.9427642822265625,-0.25054931640625,0.037933349609375
1761315123814829000,7.4508291015625,-0.9427642822265625,-0.251068115234375,0.038482666015625
1761315123824877000,7.460876953125,-0.94842529296875,-0.247833251953125,0.0407257080078125
1761315123834924300,7.47092431640625,-0.953460693359375,-0.2432861328125,0.040496826171875
1761315123844972000,7.480971923828125,-0.95391845703125,-0.238525390625,0.0383453369140625
1761315123855019000,7.49101904296875,-0.9550628662109375,-0.234283447265625,0.03790283203125
1761315123865067000,7.50106689453125,-0.955810546875,-0.234039306640625,0.0371856689453125
1761315123875114200,7.5111142578125,-0.9556884765625,-0.239532470703125,0.0405426025390625
1761315123885162200,7.521162353515625,-0.958038330078125,-0.245025634765625,0.0424346923828125
1761315123895209000,7.531208984375,-0.954742431640625,-0.249420166015625,0.041748046875
1761315123905257200,7.54125732421875,-0.9515380859375,-0.252105712890625,0.0396575927734375
1761315123915304200,7.55130419921875,-0.95391845703125,-0.255767822265625,0.0408782958984375
1761315123925352200,7.561352294921875,-0.9546661376953125,-0.2577056884765625,0.0404052734375
1761315123935399200,7.571399169921875,-0.95465087890625,-0.25445556640625,0.036834716796875
1761315123945447200,7.581447265625,-0.95416259765625,-0.2507171630859375,0.034393310546875
1761315123955494100,7.591494140625,-0.9559326171875,-0.24798583984375,0.0325469970703125
1761315123965542100,7.601542236328125,-0.9608612060546875,-0.2490692138671875,0.0338897705078125
1761315123975589000,7.611589111328125,-0.9609832763671875,-0.249298095703125,0.0363616943359375
1761315123985637000,7.62163720703125,-0.9595184326171875,-0.24908447265625,0.0382080078125
1761315123995684000,7.63168408203125,-0.957275390625,-0.2501983642578125,0.0406036376953125
1761315124005731000,7.64173095703125,-0.9578094482421875,-0.2525177001953125,0.0468597412109375
1761315124015779000,7.651779052734375,-0.9560394287109375,-0.2522125244140625,0.0476226806640625
1761315124025826300,7.661826416015625,-0.953826904296875,-0.24896240234375,0.045379638671875
1761315124035874000,7.6718740234375,-0.9525604248046875,-0.247039794921875,0.0444793701171875
1761315124045921000,7.681921142578125,-0.9502716064453125,-0.2473297119140625,0.043853759765625
1761315124055969300,7.69196923828125,-0.9514923095703125,-0.2491607666015625,0.0438385009765625
1761315124066016300,7.702016357421875,-0.9513702392578125,-0.2504425048828125,0.0439910888671875
1761315124076064000,7.71206396484375,-0.951324462890625,-0.24969482421875,0.0413665771484375
1761315124086111000,7.722111083984375,-0.9510345458984375,-0.24896240234375,0.039642333984375
1761315124096159200,7.7321591796875,-0.9532928466796875,-0.2486572265625,0.039306640625
1761315124106206200,7.742206298828125,-0.9522247314453125,-0.247314453125,0.0368499755859375
1761315124116254200,7.752254150390625,-0.9519805908203125,-0.2480010986328125,0.0367431640625
1761315124126301000,7.762301025390625,-0.9532623291015625,-0.249725341796875,0.03717041015625
1761315124136349200,7.77234912109375,-0.953216552734375,-0.2515716552734375,0.035675048828125
1761315124146396200,7.782396240234375,-0.9510955810546875,-0.25103759765625,0.0357818603515625
1761315124156444200,7.792444091796875,-0.9483184814453125,-0.2505950927734375,0.03643798828125
1761315124166491100,7.8024912109375,-0.9480743408203125,-0.2501220703125,0.039276123046875
1761315124176539100,7.8125390625,-0.9493255615234375,-0.2497406005859375,0.0412445068359375
1761315124186586000,7.822586181640625,-0.9513397216796875,-0.246429443359375,0.03924560546875
1761315124196634000,7.832634033203125,-0.953460693359375,-0.2428131103515625,0.0375213623046875
1761315124206681000,7.84268115234375,-0.9576416015625,-0.2422027587890625,0.03887939453125
1761315124216728600,7.852728515625,-0.9643402099609375,-0.2437744140625,0.0396270751953125
1761315124226776600,7.862776611328125,-0.9595184326171875,-0.2426300048828125,0.032928466796875
1761315124236823600,7.872823486328125,-0.9579620361328125,-0.2400054931640625,0.03277587890625
1761315124246871600,7.88287158203125,-0.96343994140625,-0.244476318359375,0.0376739501953125
1761315124256918500,7.89291845703125,-0.9620513916015625,-0.2486724853515625,0.03857421875
1761315124266966500,7.902966552734375,-0.9590301513671875,-0.247833251953125,0.03631591796875
1761315124277013500,7.913013427734375,-0.958221435546875,-0.246337890625,0.03472900390625
1761315124287061500,7.9230615234375,-0.958038330078125,-0.2454681396484375,0.0375213623046875
1761315124297108500,7.9331083984375,-0.96044921875,-0.246917724609375,0.03668212890625
1761315124307156500,7.943156494140625,-0.9570465087890625,-0.2479705810546875,0.031280517578125
1761315124317203500,7.953203369140625,-0.9534149169921875,-0.24639892578125,0.03118896484375
1761315124327251500,7.96325146484375,-0.95489501953125,-0.2475128173828125,0.0347900390625
1761315124337298400,7.97329833984375,-0.95428466796875,-0.24798583984375,0.0357513427734375
1761315124347346400,7.983346435546875,-0.9510955810546875,-0.2485198974609375,0.034576416015625
1761315124357393400,7.993393310546875,-0.950531005859375,-0.2487640380859375,0.0332489013671875
1761315124367441400,8.00344140625,-0.952117919921875,-0.2471466064453125,0.0338134765625
1761315124377488600,8.013488525390626,-0.9554901123046875,-0.2452239990234375,0.032806396484375
1761315124387535600,8.02353564453125,-0.9533538818359375,-0.2420501708984375,0.0297393798828125
1761315124397583400,8.033583251953125,-0.95367431640625,-0.239410400390625,0.0313873291015625
1761315124407630300,8.04363037109375,-0.9561767578125,-0.23834228515625,0.0323638916015625
1761315124417678600,8.0536787109375,-0.952606201171875,-0.238861083984375,0.0338134765625
1761315124427725600,8.0637255859375,-0.9551544189453125,-0.2413330078125,0.0362091064453125
1761315124437773600,8.073773681640626,-0.9562835693359375,-0.24200439453125,0.037841796875
1761315124447820500,8.083820556640624,-0.9547882080078125,-0.24212646484375,0.03961181640625
1761315124457868500,8.09386865234375,-0.955108642578125,-0.242156982421875,0.0399932861328125
1761315124467915500,8.10391552734375,-0.955352783203125,-0.239990234375,0.0399169921875
1761315124477963500,8.113963623046875,-0.9542083740234375,-0.239959716796875,0.0420074462890625
1761315124488010500,8.124010498046875,-0.9555511474609375,-0.24139404296875,0.0443115234375
1761315124498058500,8.13405859375,-0.9552001953125,-0.2411651611328125,0.043609619140625
1761315124508105500,8.14410546875,-0.9573822021484375,-0.23980712890625,0.04449462890625
1761315124518153500,8.154153564453125,-0.9594879150390625,-0.2386627197265625,0.044830322265625
1761315124528200400,8.164200439453126,-0.960052490234375,-0.238128662109375,0.0440826416015625
1761315124538248400,8.17424853515625,-0.9627685546875,-0.2377471923828125,0.0437469482421875
1761315124548295400,8.18429541015625,-0.9633026123046875,-0.237457275390625,0.0428924560546875
1761315124558343400,8.194343505859376,-0.964141845703125,-0.2395477294921875,0.0440826416015625
1761315124568390700,8.204390625,-0.9648895263671875,-0.2406768798828125,0.04400634765625
1761315124578437600,8.214437744140625,-0.9627685546875,-0.2419586181640625,0.0437774658203125
1761315124588485400,8.2244853515625,-0.9601287841796875,-0.24365234375,0.043670654296875
1761315124598532400,8.234532470703124,-0.9607086181640625,-0.2446136474609375,0.0446624755859375
1761315124608580600,8.24458056640625,-0.958953857421875,-0.244171142578125,0.0438690185546875
1761315124618627600,8.254627685546875,-0.9573211669921875,-0.242645263671875,0.0436248779296875
1761315124628675600,8.264675537109374,-0.9572906494140625,-0.241363525390625,0.0422515869140625
1761315124638722300,8.274722412109375,-0.9560394287109375,-0.2406158447265625,0.0411529541015625
1761315124648770600,8.2847705078125,-0.95465087890625,-0.2399444580078125,0.0402374267578125
1761315124658817500,8.294817626953124,-0.9543609619140625,-0.240264892578125,0.039398193359375
1761315124668865500,8.304865478515625,-0.951446533203125,-0.240234375,0.0373382568359375
1761315124678912500,8.31491259765625,-0.951934814453125,-0.2403717041015625,0.03692626953125
1761315124688960500,8.32496044921875,-0.954803466796875,-0.240753173828125,0.0367279052734375
1761315124699007500,8.335007568359375,-0.9532318115234375,-0.2402496337890625,0.0361785888671875
1761315124709055500,8.345055419921875,-0.951568603515625,-0.2406005859375,0.0369415283203125
1761315124719102500,8.3551025390625,-0.9491119384765625,-0.24407958984375,0.037628173828125
1761315124729150500,8.365150390625,-0.94598388671875,-0.245819091796875,0.036041259765625
1761315124739197400,8.375197509765625,-0.94677734375,-0.2482452392578125,0.03546142578125
1761315124749244400,8.385244384765626,-0.9493255615234375,-0.2470245361328125,0.0348663330078125
1761315124759292700,8.395292724609375,-0.95013427734375,-0.243896484375,0.031036376953125
1761315124769339600,8.405339599609375,-0.9516754150390625,-0.241058349609375,0.0281829833984375
1761315124779387400,8.415387451171876,-0.956024169921875,-0.2404022216796875,0.0269622802734375
1761315124789434400,8.425434326171874,-0.9579315185546875,-0.2424774169921875,0.02813720703125
1761315124799482600,8.435482666015625,-0.955963134765625,-0.2451019287109375,0.0324249267578125
1761315124809529600,8.445529541015626,-0.957733154296875,-0.246612548828125,0.034881591796875
1761315124819577300,8.455577392578125,-0.958526611328125,-0.2447967529296875,0.0353240966796875
1761315124829624300,8.465624267578125,-0.9566192626953125,-0.2409515380859375,0.0359649658203125
1761315124839672600,8.475672607421876,-0.9546356201171875,-0.2386474609375,0.0376434326171875
1761315124849719600,8.485719482421874,-0.948944091796875,-0.2374725341796875,0.03863525390625
1761315124859767600,8.495767578125,-0.94598388671875,-0.239715576171875,0.03851318359375
1761315124869814300,8.505814208984376,-0.951904296875,-0.241363525390625,0.0396575927734375
1761315124879862500,8.515862548828125,-0.952423095703125,-0.240753173828125,0.040008544921875
1761315124889909500,8.525909423828125,-0.952667236328125,-0.2412261962890625,0.0394134521484375
1761315124899957500,8.53595751953125,-0.9531402587890625,-0.2394866943359375,0.03948974609375
1761315124910004700,8.546004638671874,-0.9486541748046875,-0.2351226806640625,0.038421630859375
1761315124920051500,8.556051513671875,-0.9488983154296875,-0.232635498046875,0.037872314453125
1761315124930099500,8.566099365234376,-0.9481201171875,-0.234130859375,0.0428314208984375
1761315124940146400,8.576146484375,-0.95550537109375,-0.233917236328125,0.0399932861328125
1761315124950194700,8.586194580078125,-0.952728271484375,-0.2332916259765625,0.0355987548828125
1761315124960241700,8.59624169921875,-0.9494171142578125,-0.234588623046875,0.03619384765625
1761315124970289400,8.606289306640624,-0.954071044921875,-0.2380218505859375,0.0350494384765625
1761315124980336400,8.61633642578125,-0.95892333984375,-0.23797607421875,0.0342559814453125
1761315124990384600,8.626384521484376,-0.96392822265625,-0.237274169921875,0.0323944091796875
1761315125000431600,8.636431640625,-0.970947265625,-0.2339324951171875,0.027984619140625
1761315125010479400,8.646479248046875,-0.9707489013671875,-0.2304229736328125,0.0253753662109375
1761315125020526300,8.6565263671875,-0.9734954833984375,-0.230621337890625,0.02685546875
1761315125030574600,8.66657470703125,-0.9750823974609375,-0.2346954345703125,0.0315399169921875
1761315125040621600,8.67662158203125,-0.9708251953125,-0.235443115234375,0.03521728515625
1761315125050669300,8.68666943359375,-0.9725341796875,-0.2368011474609375,0.040863037109375
1761315125060716300,8.69671630859375,-0.9722747802734375,-0.2354888916015625,0.043548583984375
1761315125070763500,8.706763427734375,-0.9621124267578125,-0.2284088134765625,0.042938232421875
1761315125080811500,8.7168115234375,-0.95989990234375,-0.2271270751953125,0.0439300537109375
1761315125090858500,8.7268583984375,-0.9595489501953125,-0.2306365966796875,0.0467071533203125
1761315125100906500,8.736906494140625,-0.9587554931640625,-0.2307891845703125,0.0452117919921875
1761315125110953500,8.746953369140625,-0.9515380859375,-0.2267608642578125,0.0396728515625
1761315125121001500,8.75700146484375,-0.948455810546875,-0.2276763916015625,0.046539306640625
1761315125131048400,8.76704833984375,-0.948516845703125,-0.2311859130859375,0.0506591796875
1761315125141096700,8.7770966796875,-0.9413604736328125,-0.2347564697265625,0.0498199462890625
1761315125151143400,8.787143310546876,-0.9365234375,-0.2382965087890625,0.0550079345703125
1761315125161191400,8.79719140625,-0.9307708740234375,-0.2410888671875,0.059600830078125
1761315125171238400,8.80723828125,-0.921875,-0.2413482666015625,0.064178466796875
1761315125181286700,8.81728662109375,-0.92010498046875,-0.2464752197265625,0.076385498046875
1761315125191333600,8.827333740234375,-0.9306488037109375,-0.2478790283203125,0.0787506103515625
1761315125201381400,8.83738134765625,-0.973297119140625,-0.224517822265625,0.043487548828125
1761315125211428400,8.847428466796876,-0.9733123779296875,-0.197265625,0.0076141357421875
1761315125221476600,8.8574765625,-0.9784088134765625,-0.17816162109375,-0.01806640625
1761315125231523600,8.867523681640625,-1.0012359619140625,-0.1788482666015625,-0.0284881591796875
1761315125241570600,8.877570556640626,-1.010162353515625,-0.2004547119140625,-0.0193023681640625
1761315125251618300,8.887618408203124,-1.0084381103515625,-0.2331390380859375,0.00103759765625
1761315125261665500,8.89766552734375,-1.0017852783203125,-0.25439453125,0.014739990234375
1761315125271713500,8.907713623046876,-0.9843902587890625,-0.25592041015625,0.028411865234375
1761315125281760500,8.917760498046874,-0.9660797119140625,-0.250823974609375,0.04248046875
1761315125291808500,8.92780859375,-0.9520721435546875,-0.245758056640625,0.0514984130859375
1761315125301855500,8.93785546875,-0.945556640625,-0.238922119140625,0.04644775390625
1761315125311903500,8.947903564453124,-0.943634033203125,-0.2261199951171875,0.03179931640625
1761315125321950500,8.957950439453125,-0.942718505859375,-0.2093048095703125,0.02288818359375
1761315125331998500,8.96799853515625,-0.945465087890625,-0.1978759765625,0.0204620361328125
1761315125342045400,8.97804541015625,-0.9489288330078125,-0.196990966796875,0.020904541015625
1761315125352093400,8.988093505859375,-0.9475555419921875,-0.2028350830078125,0.031402587890625
1761315125362140400,8.998140380859375,-0.9481964111328125,-0.2146759033203125,0.047027587890625
1761315125372187600,9.008187744140624,-0.946868896484375,-0.2264556884765625,0.0540008544921875
1761315125382235600,9.018235595703125,-0.9403839111328125,-0.2329254150390625,0.0544891357421875
1761315125392282400,9.028282470703125,-0.9467315673828125,-0.2327117919921875,0.047882080078125
1761315125402330400,9.038330322265624,-0.9527435302734375,-0.22698974609375,0.0342864990234375
1761315125412377600,9.048377685546875,-0.9578399658203125,-0.22247314453125,0.02105712890625
1761315125422425600,9.058425537109375,-0.9649200439453125,-0.2230224609375,0.0146026611328125
1761315125432472600,9.06847265625,-0.971221923828125,-0.2293853759765625,0.012451171875
1761315125442520300,9.078520263671875,-0.974456787109375,-0.2373504638671875,0.01788330078125
1761315125452567600,9.088567626953125,-0.9710540771484375,-0.2417755126953125,0.0224761962890625
1761315125462615600,9.098615478515624,-0.9629974365234375,-0.2391357421875,0.0237884521484375
1761315125472662500,9.10866259765625,-0.9559783935546875,-0.2330169677734375,0.0248870849609375
1761315125482710500,9.11871044921875,-0.953582763671875,-0.2271575927734375,0.0229949951171875
1761315125492757500,9.128757568359376,-0.952362060546875,-0.224090576171875,0.02685546875
1761315125502805500,9.138805419921875,-0.9575958251953125,-0.2276153564453125,0.03924560546875
1761315125512852500,9.1488525390625,-0.959930419921875,-0.2322540283203125,0.0504150390625
1761315125522899500,9.1588994140625,-0.9691314697265625,-0.224273681640625,0.0511322021484375
1761315125532947500,9.168947509765625,-0.970977783203125,-0.2130279541015625,0.047027587890625
1761315125542994400,9.178994384765625,-0.9683380126953125,-0.20355224609375,0.0432891845703125
1761315125553042400,9.18904248046875,-0.9658355712890625,-0.205413818359375,0.0405426025390625
1761315125563089700,9.199089599609374,-0.9603424072265625,-0.21417236328125,0.0399322509765625
1761315125573137400,9.209137451171875,-0.95635986328125,-0.2218780517578125,0.0366058349609375
1761315125583184400,9.219184326171876,-0.95648193359375,-0.2270965576171875,0.035614013671875
1761315125593232400,9.229232421875,-0.960113525390625,-0.2295684814453125,0.034881591796875
1761315125603279600,9.239279541015625,-0.9617919921875,-0.2310028076171875,0.033599853515625
1761315125613327600,9.24932763671875,-0.9647979736328125,-0.233917236328125,0.0330810546875
1761315125623374300,9.259374267578124,-0.9659423828125,-0.2354736328125,0.0325927734375
1761315125633422600,9.269422607421875,-0.96484375,-0.2345123291015625,0.03741455078125
1761315125643469600,9.279469482421876,-0.964447021484375,-0.2333221435546875,0.04364013671875
1761315125653517600,9.289517578125,-0.9598388671875,-0.232330322265625,0.0436859130859375
1761315125663564500,9.299564453125,-0.951904296875,-0.22955322265625,0.04254150390625
1761315125673611500,9.309611572265625,-0.95513916015625,-0.22869873046875,0.045013427734375
1761315125683659500,9.319659423828124,-0.959991455078125,-0.2259674072265625,0.0452117919921875
1761315125693706500,9.32970654296875,-0.956146240234375,-0.221588134765625,0.0408782958984375
1761315125703754500,9.33975439453125,-0.9562835693359375,-0.2192230224609375,0.03607177734375
1761315125713801500,9.349801513671874,-0.9586029052734375,-0.221343994140625,0.035247802734375
1761315125723849500,9.359849365234375,-0.9582977294921875,-0.223297119140625,0.04058837890625
1761315125733896400,9.369896484375,-0.954010009765625,-0.2234344482421875,0.04473876953125
1761315125743944400,9.3799443359375,-0.94537353515625,-0.2283935546875,0.0467376708984375
1761315125753991700,9.38999169921875,-0.9429779052734375,-0.23638916015625,0.0490570068359375
1761315125764039400,9.400039306640625,-0.9445037841796875,-0.241943359375,0.052215576171875
1761315125774086400,9.41008642578125,-0.9423828125,-0.237823486328125,0.049560546875
1761315125784134400,9.420134521484375,-0.9390869140625,-0.2297515869140625,0.0401763916015625
1761315125794181600,9.430181640625,-0.9492645263671875,-0.2171783447265625,0.0230865478515625
1761315125804229400,9.4402294921875,-0.9477386474609375,-0.205657958984375,0.0145721435546875
1761315125814276400,9.4502763671875,-0.9528961181640625,-0.20269775390625,0.006683349609375
1761315125824323300,9.4603232421875,-0.9555816650390625,-0.2094573974609375,0.00738525390625
1761315125834371600,9.47037158203125,-0.9636688232421875,-0.2226104736328125,0.02191162109375
1761315125844418600,9.48041845703125,-0.9774932861328125,-0.234619140625,0.0315704345703125
1761315125854466600,9.490466552734375,-0.97845458984375,-0.237091064453125,0.03057861328125
1761315125864513300,9.50051318359375,-0.976837158203125,-0.231231689453125,0.02587890625
1761315125874561500,9.5105615234375,-0.9787750244140625,-0.22210693359375,0.0285186767578125
1761315125884608500,9.5206083984375,-0.9804534912109375,-0.22308349609375,0.0308380126953125
1761315125894656500,9.530656494140626,-0.9784393310546875,-0.2239532470703125,0.0326080322265625
1761315125904703700,9.540703857421875,-0.9818878173828125,-0.216033935546875,0.036895751953125
1761315125914751500,9.55075146484375,-0.9783782958984375,-0.21002197265625,0.036651611328125
1761315125924798500,9.560798583984376,-0.971588134765625,-0.2097930908203125,0.034942626953125
1761315125934846500,9.570846435546875,-0.96966552734375,-0.2091064453125,0.0368194580078125
1761315125944893700,9.580893798828125,-0.9633026123046875,-0.2097625732421875,0.0380706787109375
1761315125954940700,9.590940673828126,-0.9566497802734375,-0.213226318359375,0.041778564453125
1761315125964988400,9.600988525390624,-0.9571533203125,-0.2176055908203125,0.0474090576171875
1761315125975035400,9.611035400390625,-0.956268310546875,-0.2199554443359375,0.0509033203125
1761315125985083600,9.621083740234376,-0.9503173828125,-0.21954345703125,0.0530853271484375
1761315125995130600,9.631130615234374,-0.9463958740234375,-0.21978759765625,0.049346923828125
1761315126005178400,9.641178466796875,-0.9458770751953125,-0.2176971435546875,0.044586181640625
1761315126015225300,9.651225341796875,-0.9602203369140625,-0.2171478271484375,0.0472564697265625
1761315126025273600,9.661273681640624,-0.9618682861328125,-0.21966552734375,0.0419921875
1761315126035320600,9.671320556640625,-0.9514617919921875,-0.2159271240234375,0.0273590087890625
1761315126045368300,9.681368408203125,-0.9503631591796875,-0.211090087890625,0.028411865234375
1761315126055415300,9.691415283203124,-0.9603729248046875,-0.217315673828125,0.031005859375
1761315126065463600,9.701463623046875,-0.9681549072265625,-0.2272491455078125,0.0347900390625
1761315126075510500,9.711510498046875,-0.9679107666015625,-0.22998046875,0.0284271240234375
1761315126085558500,9.72155859375,-0.9664459228515625,-0.2228851318359375,0.0271453857421875
1761315126095605500,9.73160546875,-0.95526123046875,-0.2118988037109375,0.0228118896484375
1761315126105653500,9.741653564453125,-0.9605865478515625,-0.1986541748046875,0.035430908203125
1761315126115700500,9.751700439453124,-0.97760009765625,-0.22113037109375,0.0417327880859375
1761315126125747500,9.76174755859375,-0.9595794677734375,-0.2366180419921875,0.042327880859375
1761315126135795700,9.771795654296875,-0.95245361328125,-0.24139404296875,0.043060302734375
1761315126145842400,9.781842529296876,-0.948760986328125,-0.2331085205078125,0.0388946533203125
1761315126155890400,9.791890380859375,-0.9480743408203125,-0.2260894775390625,0.02850341796875
1761315126165937400,9.8019375,-0.950836181640625,-0.2246246337890625,0.0244903564453125
1761315126175985700,9.811985595703124,-0.9675445556640625,-0.222320556640625,0.021331787109375
1761315126186032600,9.82203271484375,-0.974609375,-0.2171630859375,0.017333984375
1761315126196080400,9.832080322265625,-0.97381591796875,-0.208282470703125,0.0128326416015625
1761315126206127400,9.84212744140625,-0.9742584228515625,-0.207275390625,0.0129852294921875
1761315126216174800,9.8521748046875,-0.968170166015625,-0.2286376953125,0.018707275390625
