time,seconds_elapsed,z,y,x
1761315116431168500,0.06716845703125,0.017243169248104095,-0.023320235311985016,-0.09716463088989258
1761315116441216500,0.077216552734375,0.018859973177313805,-0.015497999265789986,-0.09858303517103195
1761315116451263500,0.087263427734375,0.02201741747558117,-0.01655740477144718,-0.10289309173822403
1761315116461311500,0.0973115234375,0.019993681460618973,-0.02526274509727955,-0.1095707044005394
1761315116471359500,0.107359375,0.015125690028071404,-0.04668441414833069,-0.12559467554092407
1761315116481407700,0.11740771484375,0.00749040674418211,-0.05495272949337959,-0.14160320162773132
1761315116491454700,0.127454833984375,0.006491188891232014,-0.03905605524778366,-0.14664669334888458
1761315116501502500,0.13750244140625,0.0041153826750814915,-0.020188892260193825,-0.13145816326141357
1761315116511549400,0.147549560546875,-0.008065116591751575,0.007364972028881311,-0.10446302592754364
1761315116521597700,0.15759765625,-0.024222515523433685,0.026555711403489113,-0.07598477602005005
1761315116531644700,0.167644775390625,-0.0423506535589695,0.03723977878689766,-0.045821815729141235
1761315116541692400,0.1776923828125,-0.04699280858039856,0.056413207203149796,-0.01056183036416769
1761315116551739400,0.187739501953125,-0.04574724659323692,0.07801757007837296,0.03151717782020569
1761315116561787600,0.19778759765625,-0.04458291456103325,0.08289541304111481,0.06526529043912888
1761315116571834600,0.207834716796875,-0.041365016251802444,0.06418031454086304,0.09300797432661057
1761315116581882400,0.21788232421875,-0.029884928837418556,0.018519088625907898,0.11288101226091385
1761315116591929300,0.227929443359375,-0.007844873704016209,-0.029382122680544853,0.1259688436985016
1761315116601977600,0.2379775390625,0.01763172447681427,-0.07502949982881546,0.12903335690498352
1761315116612024600,0.248024658203125,0.038493331521749496,-0.08508453518152237,0.1303127259016037
1761315116622072600,0.258072509765625,0.04801918938755989,-0.05416150391101837,0.12907250225543976
1761315116632119600,0.26811962890625,0.05077875778079033,-0.00839881133288145,0.11305171996355057
1761315116642167600,0.27816748046875,0.05025704577565193,0.024391358718276024,0.08679481595754623
1761315116652215600,0.288215576171875,0.048058073967695236,0.02863590605556965,0.06600911170244217
1761315116662262500,0.298262451171875,0.054660581052303314,0.018692195415496826,0.055392418056726456
1761315116672310500,0.308310546875,0.05717034637928009,0.005588909611105919,0.05296148359775543
1761315116682357500,0.318357421875,0.06649007648229599,-0.0010018812026828527,0.05004798620939255
1761315116692405500,0.328405517578125,0.0699886754155159,-0.026027338579297066,0.03454572707414627
1761315116702452500,0.338452392578125,0.07304544746875763,-0.06054217368364334,0.03421575948596001
1761315116712500500,0.34850048828125,0.07036790251731873,-0.06571163237094879,0.0407562181353569
1761315116722547500,0.35854736328125,0.069477878510952,-0.051121242344379425,0.04253228008747101
1761315116732595500,0.368595458984375,0.06413424760103226,-0.03875245526432991,0.025404158979654312
1761315116742642700,0.378642578125,0.054176151752471924,-0.035829901695251465,0.005742041394114494
1761315116752690400,0.3886904296875,0.04915183410048485,-0.023507989943027496,0.010032393969595432
1761315116762737400,0.3987373046875,0.04366545379161835,-0.0044381581246852875,0.030653249472379684
1761315116772785400,0.408785400390625,0.03803606703877449,0.012676114216446877,0.051355600357055664
1761315116782832600,0.41883251953125,0.03375902771949768,0.0015781891997903585,0.05562065169215202
1761315116792880600,0.428880615234375,0.03819612041115761,-0.024600951001048088,0.05512743443250656
1761315116802927600,0.438927734375,0.040469929575920105,-0.03422188758850098,0.06985471397638321
1761315116812975600,0.4489755859375,0.04031360149383545,-0.018571287393569946,0.08897195011377335
1761315116823022600,0.459022705078125,0.03292039781808853,-0.010014018043875694,0.09959130734205246
1761315116833070600,0.469070556640625,0.0349997952580452,-0.008413458243012428,0.10661672055721283
1761315116843117600,0.47911767578125,0.050818704068660736,0.008029164746403694,0.12012001872062683
1761315116853165600,0.48916552734375,0.05626087635755539,0.02184511162340641,0.1442304104566574
1761315116863212500,0.499212646484375,0.05170633643865585,0.038596127182245255,0.17681817710399628
1761315116873260500,0.509260498046875,0.02863457426428795,0.058090999722480774,0.21035803854465485
1761315116883308500,0.51930859375,0.012555738911032677,0.08766300976276398,0.23399145901203156
1761315116893355500,0.52935546875,0.01882801577448845,0.11626669019460678,0.2535635530948639
1761315116903403500,0.539403564453125,0.04099856689572334,0.12769778072834015,0.26288115978240967
1761315116913450500,0.549450439453125,0.06360507756471634,0.11230549961328506,0.26100096106529236
1761315116923498800,0.559498779296875,0.0636945590376854,0.07839201390743256,0.24449469149112701
1761315116933545500,0.56954541015625,0.05920713022351265,0.03867335990071297,0.22509649395942688
1761315116943593500,0.579593505859375,0.0441829077899456,0.021505292505025864,0.19981564581394196
1761315116953640400,0.589640380859375,0.03122583031654358,0.025439845398068428,0.1745252013206482
1761315116963688700,0.599688720703125,0.02106986567378044,0.03267166018486023,0.15208567678928375
1761315116973735700,0.609735595703125,0.011967979371547699,0.03929946944117546,0.13730113208293915
1761315116983783400,0.619783447265625,-0.001976065570488572,0.0512663833796978,0.13562600314617157
1761315116993830400,0.629830322265625,-0.0062605589628219604,0.05655728653073311,0.1341269165277481
1761315117003878700,0.639878662109375,-0.00833622645586729,0.06717131286859512,0.13163712620735168
1761315117013925600,0.649925537109375,0.0006889597862027586,0.08127754181623459,0.13766784965991974
1761315117023973400,0.659973388671875,0.009669405408203602,0.08337238430976868,0.1415262371301651
1761315117034020400,0.670020263671875,0.027539748698472977,0.07185155153274536,0.1346164047718048
1761315117044068600,0.680068603515625,0.04495282843708992,0.04333309456706047,0.10998455435037613
1761315117054115600,0.690115478515625,0.063491091132164,0.01630759984254837,0.09784720093011856
1761315117064163300,0.700163330078125,0.07398021966218948,0.01581571437418461,0.09618671983480453
1761315117074210600,0.71021044921875,0.06882913410663605,0.03603256866335869,0.09022150188684464
1761315117084258600,0.720258544921875,0.05944042280316353,0.056714944541454315,0.07493362575769424
1761315117094305500,0.730305419921875,0.04898485168814659,0.07152185589075089,0.05127890035510063
1761315117104353500,0.740353515625,0.03472921997308731,0.09706662595272064,0.03634548932313919
1761315117114401500,0.750401611328125,0.0144082335755229,0.12538109719753265,0.0339537039399147
1761315117124448500,0.760448486328125,-0.002784334821626544,0.14291667938232422,0.04934864118695259
1761315117134496500,0.77049658203125,-0.019761454313993454,0.16459454596042633,0.07776377350091934
1761315117144543700,0.780543701171875,-0.01949993148446083,0.204504132270813,0.10610432922840118
1761315117154591500,0.790591552734375,-0.010672084987163544,0.2379118949174881,0.13211515545845032
1761315117164638500,0.800638427734375,0.004524444229900837,0.2117260992527008,0.12986984848976135
1761315117174686500,0.8106865234375,0.030256172642111778,0.0685870498418808,0.07995209097862244
1761315117184733700,0.820733642578125,0.0447821170091629,0.008380968123674393,0.04430674389004707
1761315117194781400,0.830781494140625,0.02953791804611683,-0.005603556986898184,0.012547750025987625
1761315117204832500,0.84083251953125,-0.008921856060624123,-0.036366794258356094,-0.01625140756368637
1761315117214880800,0.850880859375,-0.057068876922130585,-0.05476204678416252,-0.036082904785871506
1761315117224927700,0.860927734375,-0.08269540965557098,-0.05097609758377075,-0.04433364048600197
1761315117234975500,0.8709755859375,-0.07026084512472153,-0.010815097019076347,-0.06420961022377014
1761315117245022500,0.8810224609375,-0.04345746338367462,0.004196343012154102,-0.081218421459198
1761315117255070700,0.89107080078125,-0.007397995330393314,-0.03844379633665085,-0.08690427243709564
1761315117265117700,0.90111767578125,0.03158801794052124,-0.08327731490135193,-0.09127531945705414
1761315117275165400,0.91116552734375,0.06283409148454666,-0.09208305180072784,-0.09282820671796799
1761315117285212400,0.92121240234375,0.08913706988096237,-0.09195282310247421,-0.08902335166931152
1761315117295260700,0.9312607421875,0.09719499200582504,-0.07718080282211304,-0.07457543164491653
1761315117305307600,0.9413076171875,0.08120617270469666,-0.04182201623916626,-0.05294204503297806
1761315117315355600,0.951355712890625,0.054125022143125534,-0.005786516238003969,-0.04163985326886177
1761315117325403600,0.961403564453125,0.02737436629831791,0.01774757169187069,-0.03350576385855675
1761315117335450600,0.97145068359375,0.015063105151057243,0.028142422437667847,-0.033364880830049515
1761315117345498600,0.98149853515625,0.017179252579808235,0.030469758436083794,-0.02273567207157612
1761315117355545600,0.991545654296875,0.023518109694123268,0.02165336348116398,-0.004367318004369736
1761315117365593600,1.001593505859375,0.03428154066205025,0.0007443535141646862,0.022349780425429344
1761315117375640600,1.011640625,0.039868853986263275,-0.003952929750084877,0.05987398698925972
1761315117385688600,1.0216884765625,0.03701341152191162,0.005966546013951302,0.0948181226849556
1761315117395735800,1.03173583984375,0.03161092475056648,0.012529374100267887,0.11851013451814651
1761315117405783600,1.041783447265625,0.027540015056729317,0.018387529999017715,0.14255741238594055
1761315117415830500,1.05183056640625,0.03050491213798523,0.02454395964741707,0.1596067100763321
1761315117425878500,1.06187841796875,0.030591199174523354,0.03706054762005806,0.17019890248775482
1761315117435925800,1.07192578125,0.03302000090479851,0.06431107968091965,0.17933966219425201
1761315117445973800,1.081973876953125,0.043349336832761765,0.10105417668819427,0.17368283867835999
1761315117456020500,1.0920205078125,0.05652053281664848,0.14789971709251404,0.16950461268424988
1761315117466068500,1.102068359375,0.06528286635875702,0.1853879690170288,0.16516445577144623
1761315117476115700,1.11211572265625,0.07362096011638641,0.2081950157880783,0.16550427675247192
1761315117486163700,1.122163818359375,0.07957951724529266,0.21913954615592957,0.16929954290390015
1761315117496210700,1.132210693359375,0.08347412198781967,0.20468230545520782,0.1674334704875946
1761315117506258700,1.1422587890625,0.08414656668901443,0.1721094399690628,0.16041524708271027
1761315117516305700,1.1523056640625,0.08403551578521729,0.14027082920074463,0.15790946781635284
1761315117526353700,1.162353759765625,0.10606944561004639,0.14524774253368378,0.151675283908844
1761315117536400600,1.172400634765625,0.13937759399414062,0.19392207264900208,0.1117667481303215
1761315117546448600,1.18244873046875,0.18232133984565735,0.020959610119462013,0.01142789050936699
1761315117556496600,1.19249658203125,0.20332755148410797,-0.1212068498134613,-0.07492537051439285
1761315117566543600,1.202543701171875,0.17666904628276825,-0.12693718075752258,-0.11603392660617828
1761315117576591600,1.212591552734375,0.11526107788085938,-0.09531693160533905,-0.14724697172641754
1761315117586638600,1.222638671875,0.0501723550260067,-0.057550378143787384,-0.16339904069900513
1761315117596686600,1.2326865234375,0.003641073824837804,-0.049851179122924805,-0.16299797594547272
1761315117606733600,1.242733642578125,-0.02851073630154133,0.005972937680780888,-0.14648078382015228
1761315117616781800,1.25278173828125,-0.05411090701818466,0.04567987099289894,-0.14644163846969604
1761315117626828500,1.26282861328125,-0.05814852565526962,-0.009516806341707706,-0.1571723073720932
1761315117636876500,1.27287646484375,-0.033849842846393585,-0.07854913920164108,-0.15852226316928864
1761315117646923500,1.282923583984375,0.0037465349305421114,-0.11481766402721405,-0.1561129093170166
1761315117656971800,1.2929716796875,0.03899267315864563,-0.13734693825244904,-0.15732517838478088
1761315117667018800,1.303018798828125,0.0683220624923706,-0.15112747251987457,-0.15243135392665863
1761315117677066500,1.31306640625,0.08170844614505768,-0.13582414388656616,-0.14159627258777618
1761315117687113500,1.323113525390625,0.08215638995170593,-0.11018376052379608,-0.13235430419445038
1761315117697161700,1.33316162109375,0.07174662500619888,-0.07506226003170013,-0.11863716691732407
1761315117707208700,1.343208740234375,0.05810964107513428,-0.03196991607546806,-0.10597170889377594
1761315117717256400,1.35325634765625,0.044195156544446945,0.003242931328713894,-0.08503712713718414
1761315117727303400,1.363303466796875,0.0368107445538044,0.02129676565527916,-0.05831097811460495
1761315117737351700,1.3733515625,0.03790157660841942,0.011998073197901249,-0.024834776297211647
1761315117747398700,1.383398681640625,0.04001373052597046,0.0062456452287733555,0.010399111546576023
1761315117757446400,1.3934462890625,0.03506451100111008,0.006698915269225836,0.043308060616254807
1761315117767493600,1.40349365234375,0.03172703832387924,0.00036671728594228625,0.06289587169885635
1761315117777541600,1.413541748046875,0.02280518040060997,-0.012741361744701862,0.07539089769124985
1761315117787588600,1.423588623046875,0.012989568524062634,-0.008842759765684605,0.08542381972074509
1761315117797636600,1.43363671875,-0.000669252360239625,0.010756507515907288,0.09661362320184708
1761315117807684600,1.4436845703125,-0.01828606240451336,0.01194028276950121,0.09554356336593628
1761315117817731600,1.453731689453125,-0.029869748279452324,-0.0044051348231732845,0.10053645819425583
1761315117827779600,1.463779541015625,-0.03196831792593002,-0.007797469384968281,0.11379687488079071
1761315117837826800,1.473826904296875,-0.0312266293913126,0.015780560672283173,0.13081367313861847
1761315117847874600,1.48387451171875,-0.026549052447080612,0.011580489575862885,0.13073058426380157
1761315117857921500,1.493921630859375,-0.017174726352095604,-0.010868626646697521,0.11688214540481567
1761315117867969500,1.503969482421875,-0.0021174794528633356,-0.014641260728240013,0.11422058194875717
1761315117878016800,1.514016845703125,0.012205533683300018,-0.009520800784230232,0.11105994135141373
1761315117888064500,1.524064453125,0.020965736359357834,-0.012062788009643555,0.09279970824718475
1761315117898111500,1.534111572265625,0.02347123809158802,-0.0422971248626709,0.05079979822039604
1761315117908159700,1.54415966796875,0.027604728937149048,-0.05108262598514557,0.003468234557658434
1761315117918206700,1.554206787109375,0.023972710594534874,-0.044648427516222,-0.027356524020433426
1761315117928254700,1.564254638671875,0.010187123902142048,-0.023727433755993843,-0.04939577728509903
1761315117938301400,1.574301513671875,-0.008954878896474838,-0.006744455546140671,-0.0641787201166153
1761315117948349700,1.584349609375,-0.01677764765918255,-0.009316003881394863,-0.07714378833770752
1761315117958396700,1.594396728515625,-0.016469521448016167,-0.01449798233807087,-0.07340577244758606
1761315117968444700,1.604444580078125,-0.01404497865587473,-0.010818825103342533,-0.057424142956733704
1761315117978491600,1.61449169921875,-0.01623889058828354,-0.004457599017769098,-0.036791570484638214
1761315117988539600,1.62453955078125,-0.016413860023021698,-0.011407650075852871,-0.022071480751037598
1761315117998586600,1.634586669921875,-0.020134029909968376,-0.013141102157533169,-0.01667271926999092
1761315118008634600,1.644634521484375,-0.01369024533778429,-0.0011672634864225984,-0.011372230015695095
1761315118018681600,1.654681640625,-0.009245962835848331,0.013856959529221058,0.0015299860388040543
1761315118028729600,1.6647294921875,-0.0070424629375338554,0.011773834936320782,-0.0011912320042029023
1761315118038777600,1.674777587890625,-0.004260791465640068,-0.00035899411886930466,-0.0034298852551728487
1761315118048824600,1.684824462890625,-0.004081560764461756,-0.009672600775957108,0.0024676851462572813
1761315118058872600,1.69487255859375,-0.00030599720776081085,-0.01130751520395279,0.007723433431237936
1761315118068919600,1.70491943359375,-0.004670917987823486,-0.004618720151484013,0.010610033757984638
1761315118078967600,1.714967529296875,-0.011803396046161652,0.002430400811135769,0.024701884016394615
1761315118089014500,1.7250146484375,-0.016865532845258713,0.0035446672700345516,0.025193503126502037
1761315118099062800,1.735062744140625,-0.016227439045906067,0.001279116258956492,0.026672357693314552
1761315118109109800,1.74510986328125,-0.01853932999074459,0.002382996492087841,0.03370416909456253
1761315118119157500,1.755157470703125,-0.018123077228665352,0.003724697045981884,0.03678251430392265
1761315118129204500,1.76520458984375,-0.014907044358551502,0.0007329019135795534,0.04198899492621422
1761315118139252700,1.775252685546875,-0.015450062230229378,-0.004384894855320454,0.037816088646650314
1761315118149299700,1.7852998046875,-0.021255221217870712,-0.0038983351550996304,0.026389796286821365
1761315118159347500,1.795347412109375,-0.022763635963201523,-0.012761068530380726,0.015964850783348083
1761315118169394700,1.805394775390625,-0.024693362414836884,-0.018380338326096535,0.0057135457172989845
1761315118179442700,1.815442626953125,-0.01751108281314373,-0.02051912248134613,0.000026897927455138415
1761315118189489700,1.82548974609375,-0.011726696975529194,-0.017060475423932076,-0.0073258234187960625
1761315118199537400,1.835537353515625,-0.0037875475827604532,-0.012716860510408878,-0.01044545043259859
1761315118209580500,1.84558056640625,0.0008602010202594101,-0.008489624597132206,-0.01375149842351675
1761315118219628500,1.855628662109375,0.008382831700146198,-0.009414806962013245,-0.02081233821809292
1761315118229675500,1.865675537109375,0.0062243398278951645,-0.012596751563251019,-0.023743413388729095
1761315118239723500,1.8757236328125,0.006208094768226147,-0.01696992851793766,-0.027482757344841957
1761315118249770800,1.885770751953125,0.01437867246568203,-0.019833892583847046,-0.02539617009460926
1761315118259818500,1.895818603515625,0.018984610214829445,-0.027037210762500763,-0.023432355374097824
1761315118269865500,1.905865478515625,0.021701566874980927,-0.03319390490651131,-0.0205707885324955
1761315118279913500,1.91591357421875,0.018760638311505318,-0.027276095002889633,-0.013727529905736446
1761315118289960700,1.925960693359375,0.016108661890029907,-0.02431625872850418,-0.009938917122781277
1761315118300008400,1.936008544921875,0.014403440058231354,-0.022602513432502747,-0.011855327524244785
1761315118310056400,1.946056396484375,0.015254586935043335,-0.025404958054423332,-0.013010340742766857
1761315118320103700,1.956103759765625,0.01510118879377842,-0.0299600288271904,-0.016102271154522896
1761315118330151700,1.966151611328125,0.025346901267766953,-0.03427887707948685,-0.01990792714059353
1761315118340198400,1.976198486328125,0.032964076846838,-0.02616742253303528,-0.005555354058742523
1761315118350246400,1.986246337890625,0.038542065769433975,-0.011516307480633259,0.011189271695911884
1761315118360293600,1.996293701171875,0.027836425229907036,0.0038991342298686504,0.02829102613031864
1761315118370341600,2.006341552734375,0.012940033338963985,0.021521802991628647,0.03544401004910469
1761315118380388600,2.016388671875,-0.0009872338268905878,0.022788936272263527,0.03298138454556465
1761315118390436600,2.0264365234375,-0.011897938326001167,0.012446549721062183,0.02833576686680317
1761315118400483600,2.036483642578125,-0.011491539888083935,0.005370797123759985,0.02124776504933834
1761315118410531600,2.046531494140625,-0.011294200085103512,-0.00526533555239439,0.013205550611019135
1761315118420578600,2.05657861328125,-0.003968908917158842,-0.01654462143778801,-0.00567013630643487
1761315118430626600,2.06662646484375,0.0031193606555461884,-0.02581801451742649,-0.0287602748721838
1761315118440673500,2.076673583984375,0.006287456955760717,-0.023809725418686867,-0.04650465026497841
1761315118450721500,2.086721435546875,0.01696353778243065,-0.020865600556135178,-0.06168706715106964
1761315118460768500,2.0967685546875,0.017374197021126747,-0.013369068503379822,-0.05807235836982727
1761315118470816500,2.10681640625,0.015800001099705696,0.0023851271253079176,-0.038307175040245056
1761315118480863500,2.116863525390625,0.010912036523222923,0.014448980800807476,-0.015574431978166103
1761315118490911500,2.126911376953125,0.005498894955962896,0.0016383767360821366,-0.004332962911576033
1761315118500958500,2.13695849609375,0.005264270585030317,-0.009221727959811687,0.007328220177441835
1761315118511006700,2.1470068359375,0.008357532322406769,-0.00823902152478695,0.018731875345110893
1761315118521053400,2.157053466796875,0.010000968351960182,-0.004223773255944252,0.0187811441719532
1761315118531101400,2.167101318359375,0.007240069564431906,-0.005547098349779844,0.009818541817367077
1761315118541148400,2.1771484375,0.004709267523139715,-0.006641923915594816,-0.004162254277616739
1761315118551196700,2.18719677734375,0.004535629414021969,-0.015246064402163029,-0.015017831698060036
1761315118561243600,2.19724365234375,-0.0018745990237221122,-0.016160860657691956,-0.018080467358231544
1761315118571291400,2.20729150390625,-0.0046512107364833355,-0.015803996473550797,-0.022099442780017853
1761315118581338600,2.217338623046875,-0.007236607372760773,-0.028592761605978012,-0.027995148673653603
1761315118591386600,2.22738671875,-0.00977353472262621,-0.026164492592215538,-0.017715614289045334
1761315118601434400,2.237434326171875,-0.005079979542642832,-0.0035294874105602503,-0.0018956380663439631
1761315118611481300,2.2474814453125,-0.002170742489397526,0.016411198303103447,0.0052179316990077496
1761315118621529600,2.257529541015625,-0.002721750643104315,0.019299661740660667,0.015506521798670292
1761315118631576600,2.26757666015625,0.005246427375823259,0.028968269005417824,0.0214749313890934
1761315118641624600,2.27762451171875,0.012955479323863983,0.01647990755736828,0.018744925037026405
1761315118651671600,2.287671630859375,0.01781734637916088,-0.00529463030397892,0.01239248737692833
1761315118661719600,2.297719482421875,0.02497246116399765,-0.015844210982322693,0.008707204833626747
1761315118671766500,2.3077666015625,0.023965520784258842,-0.014466024935245514,0.0005518069956451654
1761315118681814500,2.317814453125,0.026619626209139824,-0.023621439933776855,-0.01016608439385891
1761315118691861500,2.327861572265625,0.02913391776382923,-0.019827499985694885,-0.01647884212434292
1761315118701909500,2.337909423828125,0.026559971272945404,-0.004312190227210522,-0.011797803454101086
1761315118711956500,2.34795654296875,0.019238941371440887,0.007149255834519863,-0.009076851420104504
1761315118722004700,2.358004638671875,0.015037006698548794,0.003941744565963745,0.000401604687795043
1761315118732051700,2.3680517578125,0.012001534923911095,0.007027016952633858,0.012509932741522789
1761315118742099500,2.378099365234375,0.012309662997722626,0.005008873529732227,0.024176975712180138
1761315118752146400,2.388146484375,0.014258031733334064,-0.0023853934835642576,0.028739502653479576
1761315118762194700,2.398194580078125,0.015078552067279816,-0.008170045912265778,0.021266939118504524
1761315118772241700,2.40824169921875,0.015520104207098484,-0.013539244420826435,0.015460981987416744
1761315118782289400,2.418289306640625,0.009290437214076519,-0.022791864350438118,0.007410245481878519
1761315118792336400,2.42833642578125,0.004305799026042223,-0.021519672125577927,0.008664860390126705
1761315118802384600,2.438384521484375,0.0031401331070810556,-0.006341785658150911,0.01471582893282175
1761315118812431600,2.448431640625,-0.0018588864477351308,0.0002687129599507898,0.02040061354637146
1761315118822479400,2.458479248046875,-0.004249073565006256,0.0017393104499205947,0.02039661817252636
1761315118832526300,2.4685263671875,-0.003867176128551364,-0.0046791741624474525,0.02599458210170269
1761315118842574600,2.47857470703125,-0.0010128001449629664,-0.00039414784987457097,0.0329933688044548
1761315118852621600,2.48862158203125,0.0012309130979701877,-0.0006578007596544921,0.03140399605035782
1761315118862669600,2.498669677734375,0.00321843009442091,-0.008274707943201065,0.030000243335962296
1761315118872717600,2.508717529296875,0.006216084118932486,-0.017173394560813904,0.020019780844449997
1761315118882764500,2.5187646484375,0.0044983453117311,-0.011185809038579464,0.018847988918423653
1761315118892812500,2.5288125,0.00012010856153210625,-0.008347944356501102,0.018571820110082626
1761315118902859500,2.538859619140625,-0.003754258155822754,-0.003230947069823742,0.027453195303678513
1761315118912907500,2.548907470703125,-0.004613660275936127,0.006953780073672533,0.027941619977355003
1761315118922954500,2.55895458984375,-0.0023917849175632,0.0029313412960618734,0.022232068702578545
1761315118933002500,2.56900244140625,0.004554538056254387,-0.005739644635468721,0.014178137294948101
1761315118943049500,2.579049560546875,0.006135656964033842,-0.013314207084476948,0.013135775923728943
1761315118953097500,2.589097412109375,0.007526359520852566,-0.015474030748009682,0.013552294112741947
1761315118963144400,2.59914453125,0.0011398328933864832,-0.022999325767159462,0.009965282864868641
1761315118973192400,2.6091923828125,0.0029731530230492353,-0.02569444477558136,0.005124454386532307
1761315118983239700,2.61923974609375,0.008146610110998154,-0.028265725821256638,0.00170761882327497
1761315118993287700,2.62928759765625,0.010911503806710243,-0.033659692853689194,0.0016892430139705539
1761315119003334400,2.63933447265625,0.006885603070259094,-0.0255128163844347,0.005468801129609346
1761315119013382400,2.64938232421875,0.0029997846577316523,-0.006969758775085211,0.014418354257941246
1761315119023429600,2.6594296875,-0.004351338837295771,0.0029177593532949686,0.02418736182153225
1761315119033477600,2.6694775390625,-0.014427941292524338,0.004246410448104143,0.03127270191907883
1761315119043524600,2.679524658203125,-0.016956079751253128,0.003477022983133793,0.04496507719159126
1761315119053572600,2.689572509765625,-0.016381103545427322,-0.006274673622101545,0.05085013061761856
1761315119063619600,2.69961962890625,-0.012988769449293613,-0.013667342253029346,0.05046769976615906
1761315119073667600,2.70966748046875,-0.006494384724646807,-0.01392779964953661,0.046899598091840744
1761315119083714600,2.719714599609375,-0.009211075492203236,-0.009929862804710865,0.04168672487139702
1761315119093762600,2.729762451171875,-0.018000837415456772,-0.015281218104064465,0.03415743634104729
1761315119103809500,2.7398095703125,-0.022590529173612595,-0.022553779184818268,0.02599298395216465
1761315119113857500,2.749857421875,-0.02304087020456791,-0.01943202130496502,0.02004401572048664
1761315119123904500,2.759904541015625,-0.019625632092356682,-0.014128602109849453,0.014072941616177559
1761315119133952500,2.769952392578125,-0.008250739425420761,-0.016028767451643944,0.014941665343940258
1761315119143999500,2.77999951171875,0.0021579593885689974,-0.012999688275158405,0.01848047412931919
1761315119154047500,2.790047607421875,0.011477957479655743,-0.003576359013095498,0.018094049766659737
1761315119164094500,2.800094482421875,0.020145747810602188,0.00045566685730591416,0.014094513840973377
1761315119174142700,2.810142822265625,0.03056376799941063,-0.007515440694987774,0.015117167495191097
1761315119184190500,2.8201904296875,0.03477901965379715,-0.011715778149664402,0.02371331863105297
1761315119194237400,2.830237548828125,0.03217418119311333,-0.010044910944998264,0.02882552333176136
1761315119204286500,2.840286376953125,0.029626868665218353,-0.01672997698187828,0.03151478245854378
1761315119214333400,2.85033349609375,0.028435369953513145,-0.018222946673631668,0.03416968882083893
1761315119224381700,2.860381591796875,0.021468007937073708,-0.01167716272175312,0.029939256608486176
1761315119234428700,2.8704287109375,0.013127253390848637,-0.004742024466395378,0.019990218803286552
1761315119244476700,2.8804765625,0.004391552414745092,-0.005642439238727093,0.000835966260638088
1761315119254523400,2.8905234375,0.005471464246511459,-0.013449229300022125,-0.018747055903077126
1761315119264571600,2.900571533203125,0.0055817193351686,-0.016682839021086693,-0.018873289227485657
1761315119274618600,2.91061865234375,0.002377403900027275,-0.001832787413150072,-0.005885319784283638
1761315119284666600,2.92066650390625,0.0011765845119953156,0.004746818449348211,0.005787848029285669
1761315119294713900,2.9307138671875,0.00007829693640815094,0.001939580193720758,0.02141953818500042
1761315119304761600,2.94076171875,0.0030362699180841446,0.001502555445767939,0.02756478264927864
1761315119314808600,2.95080859375,0.006314354948699474,-0.0018666095566004515,0.03063966892659664
1761315119324856600,2.960856689453125,0.017172595486044884,-0.01570013351738453,0.028733644634485245
1761315119334903800,2.97090380859375,0.02606009691953659,-0.03033100813627243,0.01986691541969776
1761315119344951600,2.98095166015625,0.03758678957819939,-0.04844183474779129,0.016470851376652718
1761315119354998500,2.99099853515625,0.057805776596069336,-0.06717344373464584,0.027642279863357544
1761315119365046800,3.001046875,0.07797043025493622,-0.07384706288576126,0.060262806713581085
1761315119375093800,3.01109375,0.08962549269199371,-0.06363170593976974,0.09583385288715363
1761315119385141500,3.0211416015625,0.09406018257141113,-0.0316506028175354,0.12103800475597382
1761315119395188500,3.0311884765625,0.09200023114681244,0.009329319931566715,0.13232874870300293
1761315119405236700,3.04123681640625,0.07757601886987686,0.03629622235894203,0.13024002313613892
1761315119415283700,3.05128369140625,0.06752311438322067,0.028551749885082245,0.10741620510816574
1761315119425331700,3.061331787109375,0.05397961288690567,0.005686647724360228,0.07445745915174484
1761315119435378400,3.07137841796875,0.053340453654527664,-0.017607223242521286,0.03906857222318649
1761315119445426700,3.0814267578125,0.05987691506743431,-0.02792271040380001,0.012865997850894928
1761315119455473700,3.0914736328125,0.052980661392211914,-0.02142326720058918,-0.010778078809380531
1761315119465521700,3.101521728515625,0.0487867146730423,-0.009941580705344677,-0.03359471261501312
1761315119475568600,3.111568603515625,0.038786277174949646,0.00546240946277976,-0.05048554390668869
1761315119485616600,3.12161669921875,0.02466566488146782,0.01218582596629858,-0.06341572105884552
1761315119495664600,3.13166455078125,0.016206400468945503,0.009078183211386204,-0.07060626149177551
1761315119505711600,3.141711669921875,0.016717195510864258,0.007340470794588327,-0.07131598889827728
1761315119515759600,3.151759521484375,0.019509252160787582,0.010063020512461662,-0.06969492882490158
1761315119525806600,3.161806640625,0.02051805891096592,0.009443568997085094,-0.06556063145399094
1761315119535854600,3.1718544921875,0.019120164215564728,0.0059961071237921715,-0.06646184623241425
1761315119545901600,3.181901611328125,0.014240987598896027,0.0003025351034011692,-0.06669913232326508
1761315119555949600,3.191949462890625,0.014421283267438412,-0.0070706927217543125,-0.06842432916164398
1761315119565996500,3.20199658203125,0.01865038275718689,-0.015254586935043335,-0.07205075770616531
1761315119576044500,3.21204443359375,0.021451229229569435,-0.019244534894824028,-0.06483705341815948
1761315119586091500,3.222091552734375,0.019838951528072357,-0.010582869872450829,-0.04746339097619057
1761315119596139800,3.232139892578125,0.009971673600375652,0.007640076335519552,-0.020168917253613472
1761315119606186800,3.242186767578125,0.0017382452497258782,0.013786652125418186,0.0021920478902757168
1761315119616234500,3.252234375,-0.00392736354842782,0.00891200266778469,0.01398798730224371
1761315119626281700,3.26228173828125,-0.0006956176948733628,-0.0017366473330184817,0.026009496301412582
1761315119636329700,3.272329833984375,0.00443922309204936,-0.002132392954081297,0.04453470930457115
1761315119646376700,3.282376708984375,0.015594139695167542,-0.009275523945689201,0.05168343335390091
1761315119656424400,3.292424560546875,0.022599585354328156,-0.009417736902832985,0.06210864335298538
1761315119666471700,3.3024716796875,0.032048746943473816,-0.0060235378332436085,0.06561150401830673
1761315119676519700,3.312519775390625,0.033310286700725555,-0.006453904323279858,0.057915497571229935
1761315119686566700,3.322566650390625,0.033063411712646484,-0.010282198898494244,0.046056706458330154
1761315119696614700,3.33261474609375,0.02731231413781643,-0.008080030791461468,0.03214675188064575
1761315119706661600,3.34266162109375,0.024820394814014435,-0.010146377608180046,0.01512941811233759
1761315119716709600,3.352709716796875,0.026134131476283073,-0.02124163880944252,-0.0008380967774428427
1761315119726756600,3.362756591796875,0.02642335183918476,-0.01835743524134159,-0.008914132602512836
1761315119736804600,3.3728046875,0.023739418014883995,-0.01020017359405756,-0.020319119095802307
1761315119746851600,3.3828515625,0.014757107943296432,-0.006196110509335995,-0.03646240383386612
1761315119756899600,3.392899658203125,0.0027204190846532583,-0.019287411123514175,-0.048047687858343124
1761315119766946600,3.402946533203125,-0.007574030198156834,-0.028850557282567024,-0.05103015899658203
1761315119776994800,3.412994873046875,-0.016158197075128555,-0.024380706250667572,-0.04345346614718437
1761315119787041800,3.423041748046875,-0.027354126796126366,-0.022668028250336647,-0.036139097064733505
1761315119797089500,3.433089599609375,-0.0287616066634655,-0.01818219944834709,-0.027756797149777412
1761315119807136500,3.443136474609375,-0.02846280112862587,-0.014736868441104889,-0.015231417492032051
1761315119817184800,3.453184814453125,-0.025547437369823456,-0.014968296512961388,-0.009309878572821617
1761315119827231700,3.463231689453125,-0.02424515224993229,-0.01236612256616354,0.0025478461757302284
1761315119837279500,3.473279541015625,-0.02431386150419712,-0.0010905644157901406,0.012004464864730835
1761315119847326500,3.483326416015625,-0.016801882535219193,0.009181514382362366,0.019062107428908348
1761315119857374700,3.493374755859375,-0.017664214596152306,0.0018442390719428658,0.02082192525267601
1761315119867421700,3.503421630859375,-0.013013802468776703,-0.003948935307562351,0.021577997133135796
1761315119877469400,3.513469482421875,-0.00914209894835949,-0.009252354502677917,0.015863118693232536
1761315119887517700,3.523517578125,-0.00746244378387928,-0.02412797324359417,0.0034679684322327375
1761315119897564700,3.533564697265625,-0.0000774979853304103,-0.030235400423407555,-0.013556554913520813
1761315119907612700,3.54361279296875,0.008537028916180134,-0.016985641792416573,-0.013371998444199562
1761315119917659600,3.55365966796875,0.004312722943723202,-0.0038192393258213997,-0.016053801402449608
1761315119927707600,3.563707763671875,-0.0005036037764512002,-0.0049375006929039955,-0.022482406347990036
1761315119937754600,3.573754638671875,-0.0029502499382942915,-0.0037939392495900393,-0.018881812691688538
1761315119947802600,3.583802734375,0.0032812808640301228,0.002523345174267888,-0.009667274542152882
1761315119957849900,3.593849853515625,0.008654740639030933,0.002291117561981082,-0.00047697214176878333
1761315119967897600,3.603897705078125,0.010273143649101257,-0.007154582068324089,0.0033835461363196373
1761315119977944600,3.613944580078125,0.015777630731463432,-0.013018064200878143,0.011334946379065514
1761315119987992600,3.62399267578125,0.017100157216191292,-0.0046970173716545105,0.014376009814441204
1761315119998039800,3.634039794921875,0.015246597118675709,-0.0021252024453133345,0.009156746789813042
1761315120008087600,3.644087646484375,0.00714792450889945,-0.00256409146822989,-0.009147957898676395
1761315120018134500,3.654134521484375,0.002508964156731963,-0.006875216495245695,-0.025251293554902077
1761315120028182500,3.6641826171875,-0.0006114617572166026,-0.016148610040545464,-0.03786003217101097
1761315120038229800,3.674229736328125,0.00276196445338428,-0.016998158767819405,-0.048894573003053665
1761315120048277500,3.684277587890625,0.010113886557519436,-0.018488196656107903,-0.05576552823185921
1761315120058324500,3.694324462890625,0.01751348003745079,-0.013945110142230988,-0.05392208695411682
1761315120068372700,3.704372802734375,0.025077389553189278,-0.011570636183023453,-0.048296958208084106
1761315120078419700,3.714419677734375,0.029681729152798653,-0.007274956908077002,-0.043246541172266006
1761315120088467700,3.7244677734375,0.03241945803165436,-0.0031230889726430178,-0.03894713148474693
1761315120098514400,3.734514404296875,0.022767629474401474,-0.0028700886759907007,-0.03759850934147835
1761315120108562700,3.744562744140625,0.013052418828010559,0.006136455573141575,-0.030179474502801895
1761315120118609700,3.754609619140625,-0.0010439591715112329,0.010436395183205605,-0.01985786110162735
1761315120128657700,3.76465771484375,-0.009999637492001057,0.006616623606532812,-0.004494084510952234
1761315120138704600,3.77470458984375,-0.012284362688660622,0.00532552320510149,0.013924870640039444
1761315120148752600,3.784752685546875,-0.007060572504997253,0.0018804579740390182,0.025403359904885292
1761315120158799600,3.794799560546875,-0.006666691042482853,0.0016506272368133068,0.03470604866743088
1761315120168847600,3.80484765625,-0.0027358653023838997,0.0058669438585639,0.042878489941358566
1761315120178894600,3.81489453125,0.0013677994720637798,0.00077631144085899,0.03780996426939964
1761315120188942600,3.824942626953125,0.005720470100641251,-0.013273727148771286,0.03092649020254612
1761315120198989600,3.834989501953125,0.016333699226379395,-0.01816835068166256,0.030284136533737183
1761315120209036800,3.845036865234375,0.021654162555933,-0.003334810258820653,0.030168822035193443
1761315120219083800,3.855083740234375,0.018306037411093712,0.009380185976624489,0.024999359622597694
1761315120229131800,3.8651318359375,0.013626329600811005,0.002412024885416031,0.01588868536055088
1761315120239178800,3.8751787109375,0.019110044464468956,-0.006370014976710081,0.008249141275882721
1761315120249226800,3.885226806640625,0.02629605308175087,-0.005983057431876659,0.004714594222605228
1761315120259273700,3.895273681640625,0.025478994473814964,-0.003371029393747449,-0.0013872405979782343
1761315120269321700,3.90532177734375,0.02557380311191082,-0.0067724185064435005,-0.0028509139083325863
1761315120279368700,3.91536865234375,0.024441160261631012,-0.002936135046184063,0.002986735198646784
1761315120289416700,3.925416748046875,0.01649375632405281,-0.002089249901473522,0.006224073935300112
1761315120299463700,3.935463623046875,0.00672208471223712,-0.0030328077264130116,0.010812966153025627
1761315120309511700,3.94551171875,0.0011033476330339909,-0.00014700648898724467,0.006637129932641983
1761315120319559000,3.955558837890625,0.00012543488992378116,-0.0033047166652977467,0.001838912721723318
1761315120329606700,3.965606689453125,-0.0012905678013339639,-0.016437828540802002,-0.002931075170636177
1761315120339653600,3.975653564453125,0.0007920240750536323,-0.020329773426055908,-0.00589597225189209
1761315120349701600,3.98570166015625,0.005075985100120306,-0.024698155000805855,0.0001627191377338022
1761315120359748900,3.995748779296875,0.005498095881193876,-0.019893547520041466,0.012675048783421516
1761315120369796900,4.005796875,0.005048820748925209,-0.004486627411097288,0.02991475537419319
1761315120379843600,4.015843505859375,0.0020722055342048407,0.0029025792609900236,0.047329165041446686
1761315120389891800,4.025891845703125,0.0057383133098483086,-0.0033995250705629587,0.04185929894447327
1761315120399938800,4.035938720703125,0.00586641114205122,-0.012850284576416016,0.029393840581178665
1761315120409986800,4.04598681640625,0.009583384729921818,-0.018394187092781067,0.009140768088400364
1761315120420033800,4.05603369140625,0.018635204061865807,-0.014184794388711452,-0.011591408401727676
1761315120430081800,4.066081787109375,0.03209295496344566,-0.010241718962788582,-0.023481624200940132
1761315120440129800,4.0761298828125,0.04096287861466408,-0.006870422977954149,-0.026585005223751068
1761315120450176800,4.0861767578125,0.04879896342754364,-0.004507666453719139,-0.020078636705875397
1761315120460224800,4.096224853515625,0.054549526423215866,-0.009781790897250175,-0.014683072455227375
1761315120470271700,4.106271728515625,0.055958341807127,-0.015484949573874474,-0.0047028763219714165
1761315120480319700,4.11631982421875,0.05751815438270569,-0.009978864341974258,0.010476343333721161
1761315120490366700,4.12636669921875,0.048288434743881226,-0.0006644586683250964,0.02303820662200451
1761315120500415000,4.1364150390625,0.03902942314743996,0.013093697838485241,0.03236459568142891
1761315120510461700,4.146461669921875,0.02334447018802166,0.029267340898513794,0.03605866804718971
1761315120520509700,4.156509765625,0.010683536529541016,0.03484639897942543,0.043890759348869324
1761315120530556700,4.166556640625,0.004259193316102028,0.009825466200709343,0.040707483887672424
1761315120540605000,4.17660498046875,0.0018777948571369052,-0.007568437606096268,0.033666349947452545
1761315120550652000,4.18665185546875,0.002764627570286393,-0.020810473710298538,0.010374610312283039
1761315120560699600,4.19669970703125,0.00526586826890707,-0.03760383278131485,-0.01847727783024311
1761315120570746600,4.20674658203125,0.0043864925391972065,-0.032596293836832047,-0.04063264653086662
1761315120580795000,4.216794921875,0.004263720940798521,-0.011460380628705025,-0.04556615278124809
1761315120590841900,4.226841796875,-0.0028826056513935328,0.01173069141805172,-0.03918042406439781
1761315120600889600,4.2368896484375,-0.004760134033858776,0.024864070117473602,-0.02425127662718296
1761315120610936600,4.2469365234375,0.00011691277177305892,0.032406676560640335,-0.01200766023248434
1761315120620984800,4.25698486328125,0.01014051865786314,0.03338032588362694,-0.003479952458292246
1761315120631031800,4.26703173828125,0.02069009840488434,0.034377146512269974,-0.004002731293439865
1761315120641079600,4.27707958984375,0.024226509034633636,0.03248071298003197,-0.008422513492405415
1761315120651126800,4.287126708984375,0.024505343288183212,0.028674788773059845,-0.022845394909381866
1761315120661174800,4.2971748046875,0.018607240170240402,0.027044134214520454,-0.04122679680585861
1761315120671221800,4.3072216796875,0.00321869645267725,0.03460484743118286,-0.06891381740570068
1761315120681269800,4.317269775390625,-0.012330436147749424,0.024228906258940697,-0.09634491056203842
1761315120691316700,4.327316650390625,-0.027482490986585617,0.01176371518522501,-0.1249411329627037
1761315120701364700,4.33736474609375,-0.03592018410563469,-0.0015704660909250379,-0.1371796876192093
1761315120711411700,4.34741162109375,-0.03399232029914856,0.0010839065071195364,-0.13072845339775085
1761315120721460000,4.3574599609375,-0.033609092235565186,0.004559065215289593,-0.10414078086614609
1761315120731507000,4.3675068359375,-0.034867703914642334,0.00014434332842938602,-0.0740385428071022
1761315120741554700,4.3775546875,-0.031150195747613907,-0.005764412228018045,-0.04435068741440773
1761315120751601700,4.3876015625,-0.02630404196679592,-0.007663778495043516,-0.01636938564479351
1761315120761650000,4.39764990234375,-0.023381222039461136,-0.00535588338971138,0.005359611473977566
1761315120771697000,4.40769677734375,-0.0223870649933815,0.002112952060997486,0.02058064192533493
1761315120781744600,4.41774462890625,-0.023134347051382065,0.003709516953676939,0.025201493874192238
1761315120791791600,4.42779150390625,-0.02714054100215435,-0.011079016141593456,0.029411152005195618
1761315120801839900,4.43783984375,-0.020434968173503876,-0.02027357928454876,0.03677532449364662
1761315120811886800,4.447886962890625,-0.011577825993299484,-0.02098996937274933,0.04307796061038971
1761315120821934600,4.4579345703125,-0.007109308615326881,-0.012153335846960545,0.04542287439107895
1761315120831981600,4.467981689453125,0.005707953125238419,-0.003192064817994833,0.05534634739160538
1761315120842029800,4.47802978515625,0.00939083844423294,0.0051537491381168365,0.058277953416109085
1761315120852076800,4.488076904296875,0.017348097637295723,-0.0007709851488471031,0.05302593484520912
1761315120862124800,4.498124755859375,0.025477129966020584,-0.013486780226230621,0.03916178271174431
1761315120872171500,4.508171630859375,0.03211053088307381,-0.02521480992436409,0.023750336840748787
1761315120882219800,4.5182197265625,0.03381628543138504,-0.03402294963598251,0.009409747086465359
1761315120892266800,4.528266845703125,0.027415646240115166,-0.030724622309207916,-0.003910585772246122
1761315120902314800,4.538314697265625,0.020773189142346382,-0.028867067769169807,-0.015415707603096962
1761315120912362000,4.548362060546875,0.017827732488512993,-0.020366789773106575,-0.01792067661881447
1761315120922409700,4.55840966796875,0.012124041095376015,-0.018015485256910324,-0.017175259068608284
1761315120932456700,4.568456787109375,0.012044412083923817,-0.01582716591656208,-0.012470251880586147
1761315120942504700,4.578504638671875,0.002882871776819229,-0.014619954861700535,-0.004078897647559643
1761315120952552000,4.588552001953125,-0.004987568128854036,-0.00811837986111641,0.003853061469271779
1761315120962599700,4.598599609375,-0.013830062001943588,0.003704989794641733,0.0166772473603487
1761315120972646700,4.608646728515625,-0.013902499340474606,0.0036996633280068636,0.02520868368446827
1761315120982695000,4.61869482421875,-0.0190794188529253,0.002918291836977005,0.02809768170118332
1761315120992742000,4.628741943359375,-0.022833677008748055,0.0080350236967206,0.029283853247761726
1761315121002789600,4.63878955078125,-0.029415680095553398,0.006972688250243664,0.029709959402680397
1761315121012836600,4.648836669921875,-0.03478487953543663,0.007683219853788614,0.02917679399251938
1761315121022884900,4.658884765625,-0.03963209688663483,0.0028599686920642853,0.028779983520507812
1761315121032931800,4.668931884765625,-0.0323675274848938,0.005372128449380398,0.02425766922533512
1761315121042979800,4.678979736328125,-0.025502430275082588,0.003418167121708393,0.025973277166485786
1761315121053026600,4.689026611328125,-0.021033113822340965,-0.005738579668104649,0.014396250247955322
1761315121063074800,4.69907470703125,-0.01136903464794159,-0.011553858406841755,0.004071174189448357
1761315121073121800,4.709121826171875,-0.0021971079986542463,-0.01034638099372387,-0.003126551164314151
1761315121083169800,4.719169677734375,0.0015190670965239406,-0.01092455256730318,0.0004985437262803316
1761315121093216800,4.729216796875,0.002522812457755208,-0.006609166972339153,0.0037526602391153574
1761315121103264800,4.7392646484375,0.0017150756902992725,-0.0036477316170930862,0.005905559752136469
1761315121113311700,4.749311767578125,0.0035140409599989653,-0.009533051401376724,0.011518171988427639
1761315121123359700,4.75935986328125,0.008555138483643532,-0.014087056741118431,0.016166985034942627
1761315121133406700,4.76940673828125,0.014600780792534351,-0.012270781211555004,0.01667804643511772
1761315121143454700,4.779454833984375,0.018372615799307823,-0.019271697849035263,0.0034525219816714525
1761315121153501700,4.789501708984375,0.026251576840877533,-0.027228157967329025,-0.012594621628522873
1761315121163549700,4.7995498046875,0.03062075935304165,-0.01732625998556614,-0.03145379573106766
1761315121173597000,4.809596923828125,0.03245248273015022,-0.0032170985359698534,-0.04280285909771919
1761315121183644700,4.819644775390625,0.029827138409018517,0.00003941478280466981,-0.045589055866003036
1761315121193691600,4.829691650390625,0.025645175948739052,-0.001110005541704595,-0.04068591073155403
1761315121203739600,4.83973974609375,0.0329933688044548,-0.0002644518972374499,-0.0224379301071167
1761315121213787400,4.849787353515625,0.03297233209013939,-0.005307679995894432,-0.003481017891317606
1761315121223835100,4.859835205078125,0.03798413276672363,-0.008770854212343693,0.017491908743977547
1761315121233882000,4.869882080078125,0.03729943558573723,-0.0021960425656288862,0.03339444100856781
1761315121243930400,4.879930419921875,0.03424106165766716,0.00005326322207110934,0.03858867287635803
1761315121253977300,4.889977294921875,0.03308019042015076,-0.0036573191173374653,0.03068946860730648
1761315121264025000,4.900025146484375,0.0306367389857769,-0.011531220749020576,0.018220549449324608
1761315121274072000,4.910072021484375,0.023690681904554367,-0.013697968795895576,0.00971601065248251
1761315121284120300,4.920120361328125,0.013848704285919666,-0.01689749024808407,-0.0012964267516508698
1761315121294167300,4.930167236328125,0.0071095749735832214,-0.017590977251529694,-0.009621734730899334
1761315121304215300,4.94021533203125,0.001829591696150601,-0.017974473536014557,-0.01110511552542448
1761315121314262300,4.95026220703125,-0.007107710465788841,-0.009997772984206676,-0.004276770167052746
1761315121324310300,4.960310302734375,-0.017780860885977745,-0.00032890037982724607,-0.006494917441159487
1761315121334357200,4.970357177734375,-0.020048808306455612,0.00930055696517229,-0.002579005202278495
1761315121344405200,4.9804052734375,-0.01842161826789379,0.008576976135373116,-0.004767857491970062
1761315121354452200,4.9904521484375,-0.011956527829170227,-0.0019923108629882336,-0.005318332463502884
1761315121364500200,5.000500244140625,-0.007191067561507225,-0.004890096373856068,-0.005854959599673748
1761315121374547200,5.010547119140625,-0.005431250669062138,-0.015162440948188305,-0.00797190610319376
1761315121384595200,5.02059521484375,-0.00030067088664509356,-0.01865224726498127,-0.006990797817707062
1761315121394642400,5.030642333984375,0.003977430984377861,-0.011020426638424397,-0.006798251066356897
1761315121404690200,5.040690185546875,0.006494384724646807,-0.004277835600078106,-0.0018767296569421887
1761315121414737200,5.050737060546875,0.00771890627220273,-0.0001978728687390685,0.008045409806072712
1761315121424785200,5.06078515625,0.008256065659224987,0.003175020683556795,0.018161693587899208
1761315121434832400,5.070832275390625,0.009826531633734703,-0.00010998855577781796,0.02442598156630993
1761315121444880100,5.080880126953125,0.007102117873728275,-0.0037790255155414343,0.02480042167007923
1761315121454927000,5.090927001953125,0.009030778892338276,-0.010614028200507164,0.030839672312140465
1761315121464975400,5.100975341796875,0.012770922854542732,-0.00567040266469121,0.03263304382562637
1761315121475022300,5.111022216796875,0.014856976456940174,-0.004677309654653072,0.033491648733615875
1761315121485070300,5.1210703125,0.019813651219010353,-0.001472728094086051,0.03328338637948036
1761315121495117300,5.131117431640625,0.021807294338941574,0.000051399008953012526,0.03483574464917183
1761315121505165300,5.141165283203125,0.035286352038383484,-0.006132194772362709,0.032217856496572495
1761315121515212300,5.15121240234375,0.04477013275027275,-0.005654956214129925,0.02279852330684662
1761315121525260300,5.16126025390625,0.05155666917562485,-0.0032522522378712893,0.020489828661084175
1761315121535307300,5.171307373046875,0.05819353088736534,-0.003165433183312416,0.02375699393451214
1761315121545355300,5.181355224609375,0.055988166481256485,0.008854744024574757,0.030238863080739975
1761315121555402200,5.19140234375,0.05082669481635094,0.013367203995585442,0.034153178334236145
1761315121565450200,5.2014501953125,0.045043107122182846,0.019637083634734154,0.032040756195783615
1761315121575497200,5.211497314453125,0.03744218125939369,0.02190743014216423,0.023187611252069473
1761315121585545200,5.221545166015625,0.027187146246433258,0.004966795444488525,0.0008343683439306915
1761315121595592200,5.23159228515625,0.02166827768087387,-0.015621836297214031,-0.020319385454058647
1761315121605640200,5.24164013671875,0.019657058641314507,-0.02726464346051216,-0.0379716157913208
1761315121615687200,5.251687255859375,0.02058863267302513,-0.024146614596247673,-0.04193945974111557
1761315121625734400,5.261734375,0.021274928003549576,-0.016449280083179474,-0.050520166754722595
1761315121635781400,5.271781494140625,0.02057984285056591,-0.011066765524446964,-0.05062802508473396
1761315121645829000,5.2818291015625,0.021629128605127335,0.00019254654762335122,-0.047986432909965515
1761315121655876000,5.2918759765625,0.02057718113064766,0.0075671058148145676,-0.04114503785967827
1761315121665924400,5.30192431640625,0.016340358182787895,0.005708219483494759,-0.030101176351308823
1761315121675971300,5.311971435546875,0.020605675876140594,0.006677609868347645,-0.019268769770860672
1761315121686019000,5.32201904296875,0.019996345043182373,0.006333263125270605,-0.010542655363678932
1761315121696066000,5.332066162109375,0.018618691712617874,-0.0023667511995881796,-0.0060946443118155
1761315121706113300,5.34211328125,0.01410703081637621,-0.016573917120695114,-0.005630721338093281
1761315121716161300,5.352161376953125,0.012377041392028332,-0.0229167677462101,-0.007198790553957224
1761315121726208300,5.362208251953125,0.00487331859767437,-0.02063896507024765,-0.009429721161723137
1761315121736256300,5.37225634765625,-0.002109489869326353,-0.019992349669337273,-0.014842329546809196
1761315121746303200,5.38230322265625,-0.004446413833647966,-0.015263108536601067,-0.013963486067950726
1761315121756351200,5.392351318359375,-0.003082342678681016,-0.0046964846551418304,-0.011598599143326283
1761315121766398200,5.402398193359375,-0.0024897893890738487,0.008051268756389618,-0.005114334635436535
1761315121776446500,5.412446533203125,0.0006926882197149098,0.007349259220063686,-0.003599262097850442
1761315121786493200,5.4224931640625,0.0018964370246976614,-0.009397762827575207,0.001404018490575254
1761315121796541200,5.432541259765625,0.011128284968435764,-0.009850233793258667,0.016948357224464417
1761315121806588200,5.442588134765625,0.01625593565404415,0.0000756337758502923,0.032812539488077164
1761315121816636400,5.452636474609375,0.01423246506601572,-0.0001395496365148574,0.03955300152301788
1761315121826683400,5.462683349609375,0.019625898450613022,-0.006422212813049555,0.04255757853388786
1761315121836731100,5.472731201171875,0.024765267968177795,0.0007198524544946849,0.04717816412448883
1761315121846778000,5.482778076171875,0.02713201940059662,0.005624063778668642,0.042938943952322006
1761315121856826400,5.492826416015625,0.022937273606657982,0.002507898723706603,0.027368241921067238
1761315121866873300,5.502873291015625,0.017951836809515953,-0.00469435378909111,0.0014799186028540134
1761315121876921000,5.512921142578125,0.01677658222615719,-0.012051869183778763,-0.02245097979903221
1761315121886968000,5.522968017578125,0.026392990723252296,-0.02142113633453846,-0.0440063402056694
1761315121897016300,5.533016357421875,0.02883084863424301,-0.023449931293725967,-0.05318066477775574
1761315121907063300,5.543063232421875,0.026430008932948112,-0.016710003837943077,-0.05194016173481941
1761315121917111000,5.553111083984375,0.01882615126669407,-0.002484462922438979,-0.04073517769575119
1761315121927158300,5.563158203125,0.011930429376661777,0.0041529336012899876,-0.022974558174610138
1761315121937206300,5.573206298828125,0.004450674634426832,0.008133560419082642,-0.004863997455686331
1761315121947253200,5.583253173828125,-0.0046120621263980865,0.007053914945572615,0.009311743080615997
1761315121957301200,5.59330126953125,-0.0020940436515957117,0.0008159925346262753,0.019242137670516968
1761315121967348200,5.60334814453125,0.003019758267328143,-0.00691942498087883,0.02286297082901001
1761315121977396200,5.613396240234375,0.0072986590676009655,-0.014997324906289577,0.02304060384631157
1761315121987443200,5.623443115234375,0.011534683406352997,-0.017189905047416687,0.020957479253411293
1761315121997491500,5.633491455078125,0.01974574103951454,-0.019869312644004822,0.012598349712789059
1761315122007538400,5.643538330078125,0.01495018694549799,-0.017674867063760757,0.003954527899622917
1761315122017586200,5.653586181640625,0.01480557769536972,-0.014693458564579487,0.009593239054083824
1761315122027633200,5.663633056640625,0.013657755218446255,-0.00893836747854948,0.015965117141604424
1761315122037681400,5.673681396484375,0.012499013915657997,-0.0009195895399898291,0.0174437053501606
1761315122047728400,5.683728271484375,0.009257148019969463,-0.0036541232839226723,0.02213779278099537
1761315122057776000,5.693776123046875,0.01293577253818512,-0.00475374236702919,0.030240992084145546
1761315122067823000,5.703822998046875,0.012916331179440022,-0.005939115304499865,0.0341169573366642
1761315122077871400,5.713871337890625,0.009312807582318783,-0.0020397149492055178,0.03141917660832405
1761315122087918300,5.72391845703125,0.0031907332595437765,-0.003716174978762865,0.021644309163093567
1761315122097966000,5.733966064453125,0.0022807312197983265,-0.0039015309885144234,0.01434964407235384
1761315122108013000,5.744012939453125,0.004960670135915279,-0.0064837317913770676,0.007472297176718712
1761315122118061300,5.754061279296875,0.010949320159852505,-0.008505071513354778,-0.0007869640830904245
1761315122128108300,5.7641083984375,0.017405355349183083,-0.004970257636159658,-0.0142918536439538
1761315122138156300,5.77415625,0.017824536189436913,-0.012007128447294235,-0.0172591470181942
1761315122148203000,5.784203125,0.015562980435788631,-0.014167217537760735,-0.021224329248070717
1761315122158251300,5.794251220703125,0.011484615504741669,-0.015808524563908577,-0.030494259670376778
1761315122168298200,5.80429833984375,0.007339405361562967,-0.022815033793449402,-0.0379021093249321
1761315122178346200,5.81434619140625,0.006220878101885319,-0.012804478406906128,-0.04068883880972862
1761315122188393500,5.8243935546875,0.0062885223887860775,-0.003967044875025749,-0.03837908059358597
1761315122198441200,5.834441162109375,0.004808337427675724,0.0017664746847003698,-0.03235580772161484
1761315122208488000,5.844488037109375,-0.000107858024421148,0.006403304636478424,-0.02538631670176983
1761315122218536000,5.854535888671875,0.003254382871091366,0.00797270517796278,-0.01444019190967083
1761315122228586000,5.8645859375,-0.0004625910660251975,0.010595119558274746,-0.004975583869963884
1761315122238633000,5.874633056640625,0.0016508935950696468,0.0014330470003187656,0.0006266417913138866
1761315122248680700,5.8846806640625,0.005216599907726049,-0.01739630103111267,0.006659234408289194
1761315122258727700,5.894727783203125,0.008417187258601189,-0.020315125584602356,0.013233779929578304
1761315122268776000,5.90477587890625,0.008313856087625027,-0.021311679854989052,0.017797905951738358
1761315122278823000,5.914822998046875,0.0034043188206851482,-0.02472851611673832,0.019338810816407204
1761315122288871000,5.924870849609375,-0.00001944107498275116,-0.011535482481122017,0.01654249057173729
1761315122298918000,5.93491796875,-0.002255431143566966,-0.010310960933566093,0.00936074461787939
1761315122308966000,5.9449658203125,-0.006691458635032177,-0.005225121974945068,0.00004820321555598639
1761315122319012900,5.955012939453125,-0.012060125358402729,-0.007364439312368631,-0.011333081871271133
1761315122329060900,5.965060791015625,-0.015184013172984123,-0.008284827694296837,-0.013374661095440388
1761315122339108000,5.975108154296875,-0.008921056985855103,-0.0031997880432754755,-0.007637945935130119
1761315122349155800,5.98515576171875,-0.004777977243065834,0.0005182511522434652,0.002546780975535512
1761315122359202800,5.995202880859375,0.0016370450612157583,-0.004428037907928228,0.009305351413786411
1761315122369250800,6.005250732421875,0.00936207640916109,-0.008697617799043655,0.016753945499658585
1761315122379298000,6.015298095703125,0.02106906659901142,-0.011543737724423409,0.020421918481588364
1761315122389345800,6.025345703125,0.021412881091237068,-0.013049488887190819,0.02461160346865654
1761315122399392800,6.035392822265625,0.023144999518990517,-0.019641878083348274,0.026497654616832733
1761315122409440800,6.045440673828125,0.021046696230769157,-0.022893331944942474,0.019665047526359558
1761315122419488000,6.055488037109375,0.017888719215989113,-0.020146813243627548,0.015916649252176285
1761315122429535700,6.06553564453125,0.015217302367091179,-0.018026137724518776,0.01507216040045023
1761315122439582700,6.075582763671875,0.011168232187628746,-0.014767494052648544,0.004293282050639391
1761315122449631000,6.085630859375,0.004262655507773161,-0.005892510060220957,-0.005687446799129248
1761315122459678000,6.095677978515625,0.00021678130724467337,0.0016652746126055717,-0.009343966841697693
1761315122469726000,6.105725830078125,-0.0037025928031653166,-0.0017246630741283298,-0.0159523356705904
1761315122479773000,6.11577294921875,-0.0046821036376059055,-0.008886436000466347,-0.020113524049520493
1761315122489819600,6.125819580078125,-0.0032408006954938173,-0.011507784947752953,-0.015711585059762
1761315122499868000,6.135867919921875,0.0027595674619078636,-0.011195928789675236,-0.01474485732614994
1761315122509915000,6.145914794921875,0.0006980145117267966,-0.010370615869760513,-0.01587989740073681
1761315122519963000,6.155962890625,0.002448244020342827,-0.018565693870186806,-0.011636150069534779
1761315122530010000,6.166010009765625,0.004171575419604778,-0.016755543649196625,-0.010507501661777496
1761315122540057900,6.176057861328125,0.00860440731048584,-0.017479391768574715,-0.0057007623836398125
1761315122550104800,6.186104736328125,0.013107280246913433,-0.02153458632528782,0.005857090000063181
1761315122560152800,6.19615283203125,0.01919659785926342,-0.013800500892102718,0.012532569468021393
1761315122570200000,6.206199951171875,0.02443397045135498,-0.009678193368017673,0.01492089219391346
1761315122580247800,6.216247802734375,0.022176675498485565,-0.008132761344313622,0.014890266582369804
1761315122590294800,6.226294677734375,0.027666248381137848,-0.018251441419124603,0.019407253712415695
1761315122600343000,6.236343017578125,0.024876320734620094,-0.018141720443964005,0.021495705470442772
1761315122610390000,6.24639013671875,0.02340838685631752,-0.016202138736844063,0.02449522353708744
1761315122620437800,6.256437744140625,0.02094709314405918,-0.025180187076330185,0.024804947897791862
1761315122630484700,6.266484619140625,0.018275143578648567,-0.023842748254537582,0.02172473631799221
1761315122640533000,6.276532958984375,0.015074556693434715,-0.016931844875216484,0.02058224007487297
1761315122650580000,6.286580078125,0.004451207350939512,-0.015078285709023476,0.012485431507229805
1761315122660628000,6.2966279296875,0.0038434739690274,-0.010214287787675858,0.006352438125759363
1761315122670674700,6.3066748046875,0.00797510240226984,-0.007771104108542204,-0.0027084348257631063
1761315122680723000,6.316722900390625,0.010209494270384312,-0.0008053398923948407,-0.01293550617992878
1761315122690770000,6.32677001953125,0.01082521677017212,0.006712763570249081,-0.01756807416677475
1761315122700818000,6.33681787109375,0.004849616438150406,0.0016815199051052332,-0.022423284128308296
1761315122710865000,6.346864990234375,-0.0065375277772545815,-0.015208248049020767,-0.035824310034513474
1761315122720913000,6.356912841796875,-0.01044465135782957,-0.02201741747558117,-0.03785976395010948
1761315122730960000,6.3669599609375,-0.00199364242143929,-0.02022404596209526,-0.03440750762820244
1761315122741008000,6.3770078125,0.009680590592324734,-0.013981595635414124,-0.03976738452911377
1761315122751054800,6.387054931640625,0.01489106472581625,-0.01324230246245861,-0.04814063012599945
1761315122761102800,6.397102783203125,0.02292209304869175,-0.01053519919514656,-0.04460794851183891
1761315122771149800,6.40714990234375,0.026808977127075195,0.00018908442871179432,-0.03902889043092728
1761315122781197800,6.41719775390625,0.02917679399251938,0.010204967111349106,-0.03380376845598221
1761315122791245000,6.4272451171875,0.03274063766002655,0.01859632134437561,-0.020374780520796776
1761315122801292800,6.437292724609375,0.04135889187455177,0.016829846426844597,-0.0059750680811703205
1761315122811339800,6.44733984375,0.053215816617012024,0.01600266806781292,0.007288006599992514
1761315122821387800,6.4573876953125,0.06174219399690628,0.003291400847956538,0.013500628992915154
1761315122831435000,6.46743505859375,0.07589982450008392,-0.012347213923931122,0.011737083084881306
1761315122841482800,6.477482666015625,0.0844578891992569,-0.026202043518424034,0.010164487175643444
1761315122851529700,6.48752978515625,0.09478962421417236,-0.02526460960507393,0.00965795386582613
1761315122861576700,6.49757666015625,0.09631109237670898,-0.017012538388371468,0.0046847667545080185
1761315122871625000,6.507625,0.09497098624706268,-0.011488344520330429,-0.0009081379394046962
1761315122881672000,6.517671875,0.08417613059282303,-0.01034611463546753,-0.006847519893199205
1761315122891720000,6.527719970703125,0.07655709236860275,-0.003028546692803502,-0.006969492416828871
1761315122901766700,6.5377666015625,0.06456514447927475,-0.004762797150760889,-0.008900018408894539
1761315122911815000,6.54781494140625,0.057383399456739426,-0.009365804493427277,-0.010033725760877132
1761315122921862000,6.55786181640625,0.04555203765630722,-0.007031810469925404,-0.0002668487431947142
1761315122931910000,6.567909912109375,0.03899746760725975,-0.002606435678899288,0.012634835205972195
1761315122941956900,6.577956787109375,0.03879613056778908,-0.000006924218723725062,0.02588059939444065
1761315122952004900,6.5880048828125,0.031444475054740906,-0.000940095866099,0.03422002121806145
1761315122962051800,6.5980517578125,0.02731044963002205,-0.0048946235328912735,0.03303251788020134
1761315122972099800,6.608099853515625,0.02785959467291832,-0.011983958072960377,0.028451083227992058
1761315122982147000,6.61814697265625,0.02990703284740448,-0.02195563167333603,0.013876667246222496
1761315122992194800,6.62819482421875,0.03134673833847046,-0.026917368173599243,0.0005419532535597682
1761315123002241800,6.63824169921875,0.029460687190294266,-0.020309265702962875,-0.006307963281869888
1761315123012289800,6.648289794921875,0.026924291625618935,-0.008314388804137707,-0.00945129245519638
1761315123022337000,6.6583369140625,0.026078738272190094,0.00449914438650012,-0.00640809815376997
1761315123032384800,6.668384765625,0.027635889127850533,0.0070581757463514805,-0.007455253042280674
1761315123042431700,6.678431640625,0.02881966345012188,0.011514975689351559,-0.00632021389901638
1761315123052480000,6.68847998046875,0.030475085601210594,0.0026527747977524996,-0.011326423846185207
1761315123062527000,6.69852685546875,0.028307005763053894,-0.015415174886584282,-0.014791196212172508
1761315123072575000,6.708574951171875,0.031627967953681946,-0.021979067474603653,-0.01471769344061613
1761315123082621700,6.71862158203125,0.027815386652946472,-0.021086109802126884,-0.010803379118442535
1761315123092670000,6.728669921875,0.030661772936582565,-0.019215239211916924,-0.015596802346408367
1761315123102717000,6.738717041015625,0.025913622230291367,-0.017480723559856415,-0.018734538927674294
1761315123112765000,6.748764892578125,0.025141306221485138,-0.01312112808227539,-0.015335813164710999
1761315123122812000,6.75881201171875,0.019391806796193123,-0.006491455249488354,-0.0076217008754611015
1761315123132860000,6.76885986328125,0.010666758753359318,-0.0031398669816553593,0.0012114719720557332
1761315123142907000,6.778906982421875,0.005286907311528921,0.0011182613670825958,0.00990136619657278
1761315123152953900,6.788953857421875,0.004137753508985043,0.005937783978879452,0.019215771928429604
1761315123163001900,6.799001953125,0.006351372692734003,0.0030389330349862576,0.022335398942232132
1761315123173049000,6.809049072265625,0.012901417911052704,-0.0018988338997587562,0.029448969289660454
1761315123183096800,6.819096923828125,0.01901150867342949,-0.006624612957239151,0.03214195743203163
1761315123193143800,6.829143798828125,0.025887789204716682,-0.024443024769425392,0.028619660064578056
1761315123203191800,6.83919189453125,0.03545572981238365,-0.037097834050655365,0.028614601120352745
1761315123213239300,6.8492392578125,0.048710014671087265,-0.03062661923468113,0.02732270024716854
1761315123223287000,6.859287109375,0.05116038769483566,-0.02250291220843792,0.02780473232269287
1761315123233334000,6.869333984375,0.04789721965789795,-0.011025220155715942,0.025175128132104874
1761315123243382300,6.87938232421875,0.03449006751179695,-0.0092334458604455,0.016595488414168358
1761315123253429200,6.88942919921875,0.024329308420419693,-0.014574681408703327,0.003153715282678604
1761315123263477000,6.89947705078125,0.015136076137423515,-0.027905933558940887,-0.005470931995660067
1761315123273524000,6.90952392578125,0.01876995898783207,-0.029225263744592667,-0.01050590444356203
1761315123283572200,6.919572265625,0.02039182372391224,-0.03206632286310196,-0.013756291940808296
1761315123293619200,6.929619140625,0.023086410015821457,-0.029384786263108253,-0.014890266582369804
1761315123303667000,6.9396669921875,0.02485874481499195,-0.025318672880530357,-0.014818627387285233
1761315123313714000,6.9497138671875,0.022234465926885605,-0.018819760531187057,-0.008891495876014233
1761315123323762200,6.95976220703125,0.018210163339972496,-0.014673750847578049,-0.0031254857312887907
1761315123333809200,6.96980908203125,0.014278272166848183,-0.01565219648182392,0.009270197711884975
1761315123343857200,6.979857177734375,0.013191435486078262,-0.011872904375195503,0.01906530372798443
1761315123353904000,6.989904052734375,0.00953677948564291,-0.013192234560847282,0.028110729530453682
1761315123363952000,6.9999521484375,0.01744929701089859,-0.01853107288479805,0.03244289383292198
1761315123373999000,7.0099990234375,0.02822524681687355,-0.0242006778717041,0.029350165277719498
1761315123384047000,7.020047119140625,0.036544959992170334,-0.03642325475811958,0.021866949275135994
1761315123394094300,7.03009423828125,0.03254010155797005,-0.026806313544511795,0.017953168600797653
1761315123404142000,7.04014208984375,0.025465678423643112,-0.028799690306186676,0.013373595662415028
1761315123414189000,7.05018896484375,0.016682041808962822,-0.025239842012524605,0.0005081311101093888
1761315123424236000,7.060236083984375,0.014934474602341652,-0.017606690526008606,-0.010070211254060268
1761315123434284300,7.0702841796875,0.0155517952516675,-0.014139254577457905,-0.013862019404768944
1761315123444331300,7.080331298828125,0.013399961404502392,-0.024057932198047638,-0.011395399458706379
1761315123454379000,7.09037890625,0.016284164041280746,-0.02472745068371296,-0.0008293083519674838
1761315123464426000,7.100426025390625,0.01840856857597828,-0.02423902601003647,0.011289938353002071
1761315123474474200,7.11047412109375,0.01667538285255432,-0.0277357567101717,0.016355004161596298
1761315123484521200,7.120521240234375,0.01942616142332554,-0.02755679376423359,0.02111087739467621
1761315123494569000,7.13056884765625,0.02257055602967739,-0.02599564753472805,0.013954698108136654
1761315123504616000,7.140615966796875,0.02269066497683525,-0.02653174288570881,0.009859820827841759
1761315123514664200,7.150664306640625,0.024890169501304626,-0.024941835552453995,0.0014333132421597838
1761315123524711200,7.160711181640625,0.02310025878250599,-0.024576449766755104,-0.005817142780870199
1761315123534759200,7.17075927734375,0.02099822647869587,-0.019057048484683037,-0.00974716991186142
1761315123544806100,7.18080615234375,0.018400313332676888,-0.015248727984726429,-0.009819873608648777
1761315123554854100,7.190854248046875,0.01672651618719101,-0.0068150293081998825,-0.007858987897634506
1761315123564901000,7.200901123046875,0.019388612359762192,0.004542820155620575,-0.004947354551404715
1761315123574949000,7.21094921875,0.02070634439587593,-0.0003733751946128905,-0.0067636300809681416
1761315123584996000,7.22099609375,0.019094066694378853,-0.0037172401789575815,-0.0011110707418993115
1761315123595044000,7.231044189453125,0.01504126749932766,-0.006641124840825796,-0.0002921487612184137
1761315123605091000,7.241091064453125,0.014267352409660816,-0.0009843043517321348,0.005863215308636427
1761315123615139000,7.25113916015625,0.014662299305200577,0.0012623383663594723,0.002088983543217182
1761315123625186300,7.261186279296875,0.015026886016130447,-0.0041100564412772655,0.0011824434623122215
1761315123635234000,7.271234130859375,0.022011825814843178,-0.013918745331466198,-0.0008647284121252596
1761315123645281000,7.281281005859375,0.0280955508351326,-0.02070501260459423,-0.002174737397581339
1761315123655329300,7.291329345703125,0.03134940192103386,-0.02479402907192707,-0.0008154599345289171
1761315123665376300,7.301376220703125,0.02869715914130211,-0.021040836349129677,-0.00583791546523571
1761315123675423200,7.31142333984375,0.026024410501122475,-0.01595419831573963,-0.0030091057997196913
1761315123685471000,7.321470947265625,0.02532799355685711,-0.0003731088654603809,0.005352687556296587
1761315123695518000,7.33151806640625,0.025974608957767487,0.005419532768428326,0.01731906831264496
1761315123705566200,7.341566162109375,0.029530728235840797,0.0034621094819158316,0.03194941207766533
1761315123715613200,7.35161328125,0.026575684547424316,-0.0022208099253475666,0.04159271717071533
1761315123725661000,7.361660888671875,0.022607574239373207,-0.01221805065870285,0.04466200992465019
1761315123735708200,7.371708251953125,0.022241922095417976,-0.017589112743735313,0.042752791196107864
1761315123745756200,7.381756103515625,0.019768377766013145,-0.018275409936904907,0.03960573300719261
1761315123755803100,7.39180322265625,0.020564131438732147,-0.012627111747860909,0.029756298288702965
1761315123765851100,7.40185107421875,0.018984077498316765,-0.0022101574577391148,0.023439811542630196
1761315123775898000,7.411898193359375,0.017114272341132164,0.004255465231835842,0.01452780980616808
1761315123785946000,7.421946044921875,0.008245146833360195,-0.0010040117194876075,0.0021824603900313377
1761315123795993000,7.4319931640625,-0.0016319850692525506,-0.008776713162660599,-0.014523016288876534
1761315123806041300,7.442041259765625,-0.006095442920923233,-0.01631638966500759,-0.028006333857774734
1761315123816088300,7.45208837890625,-0.006975085008889437,-0.024262461811304092,-0.04015354439616203
1761315123826136000,7.462135986328125,-0.006195311434566975,-0.025047829374670982,-0.04495282843708992
1761315123836183000,7.47218310546875,-0.00029587719473056495,-0.010656372644007206,-0.03988589718937874
1761315123846231300,7.482231201171875,0.0036751623265445232,0.009958891198039055,-0.03634069859981537
1761315123856278300,7.4922783203125,0.01251312904059887,0.02762390486896038,-0.02299399860203266
1761315123866326000,7.502325927734375,0.02082325704395771,0.03778945654630661,-0.008794556371867657
1761315123876373000,7.512373046875,0.03009611740708351,0.026158366352319717,0.0016996293561533093
1761315123886420000,7.522419921875,0.03611619397997856,0.011698467656970024,0.0073316823691129684
1761315123896468200,7.53246826171875,0.03894926235079765,-0.0006101301987655461,0.014269749633967876
1761315123906515200,7.54251513671875,0.031010646373033524,-0.021973742172122,0.00222027744166553
1761315123916563000,7.55256298828125,0.020908743143081665,-0.040821198374032974,-0.015211443416774273
1761315123926610200,7.562610107421875,0.015805594623088837,-0.036082103848457336,-0.025240108370780945
1761315123936658200,7.572658203125,0.01398718822747469,-0.018882878124713898,-0.028444690629839897
1761315123946705200,7.582705078125,0.011873703449964523,0.000014381069377122913,-0.032171253114938736
1761315123956753000,7.5927529296875,0.0065106297843158245,0.010097907856106758,-0.028732312843203545
1761315123966800100,7.602800048828125,-0.0014138722326606512,0.01498347707092762,-0.016153935343027115
1761315123976848100,7.61284814453125,-0.006381732877343893,0.015136076137423515,-0.000035420041967881843
1761315123986895000,7.62289501953125,-0.009586314670741558,0.016092151403427124,0.01423326414078474
1761315123996943400,7.632943359375,-0.008408931083977222,0.0006474144756793976,0.011994078755378723
1761315124006990000,7.642989990234375,-0.004012851044535637,-0.00990109983831644,0.012291020713746548
1761315124017038000,7.6530380859375,0.002490854589268565,-0.011329886503517628,0.018804047256708145
1761315124027085000,7.6630849609375,0.003847202518954873,-0.008224107325077057,0.013817811384797096
1761315124037133300,7.67313330078125,0.005676527973264456,-0.003251719754189253,0.01137010008096695
1761315124047180300,7.68318017578125,-0.0006061354652047157,-0.0038029940333217382,0.004062385763972998
1761315124057228000,7.69322802734375,0.0027454528026282787,-0.007121292874217033,-0.0016905746888369322
1761315124067275000,7.70327490234375,0.004828311037272215,-0.006129265297204256,-0.007129015866667032
1761315124077323300,7.7133232421875,0.011405253782868385,-0.0011030812747776508,-0.011906993575394154
1761315124087370200,7.723370361328125,0.01624182052910328,-0.003757720347493887,-0.012309130281209946
1761315124097417200,7.733417236328125,0.01991645060479641,-0.00484322477132082,-0.006803577765822411
1761315124107465000,7.74346484375,0.026403378695249557,-0.006202502176165581,-0.0011179950088262558
1761315124117512200,7.75351220703125,0.02413756027817726,-0.01028592698276043,0.00014194648247212172
1761315124127560200,7.763560302734375,0.018622420728206635,-0.01715262234210968,0.002573146251961589
1761315124137607200,7.773607177734375,0.014197844080626965,-0.012773319147527218,0.0012311793398112059
1761315124147655000,7.783655029296875,0.005309810396283865,-0.011451326310634613,-0.010073140263557434
1761315124157702100,7.7937021484375,0.0027300063520669937,-0.010930411517620087,-0.026929086074233055
1761315124167750100,7.803750244140625,0.0010748518398031592,-0.01008033100515604,-0.04396958649158478
1761315124177797000,7.813797119140625,0.006055495701730251,-0.00884728692471981,-0.050339069217443466
1761315124187845000,7.82384521484375,0.010087521746754646,-0.002808036981150508,-0.05410877615213394
1761315124197892000,7.83389208984375,0.010178068652749062,-0.003123888047412038,-0.05010258033871651
1761315124207940600,7.843940673828125,0.011475827544927597,-0.007165501359850168,-0.03976046293973923
1761315124217987600,7.853987548828125,0.008233162574470043,0.0003789678157772869,-0.031980302184820175
1761315124228035300,7.864035400390625,0.004614725708961487,0.011039335280656815,-0.020077571272850037
1761315124238082300,7.874082275390625,0.00018881811411119998,0.0007017429452389479,-0.011185542680323124
1761315124248130600,7.884130615234375,0.0013688647886738181,-0.009807090274989605,-0.009256615303456783
1761315124258177500,7.894177490234375,0.004745486658066511,-0.01763997972011566,-0.0018461032304912806
1761315124268225500,7.9042255859375,0.003820038167759776,-0.017116669565439224,0.002545981900766492
1761315124278272500,7.9142724609375,-0.0016250609187409282,-0.020687967538833618,0.005545233841985464
1761315124288320500,7.924320556640625,-0.009520534425973892,-0.02443024143576622,-0.00041199102997779846
1761315124298367500,7.934367431640625,-0.009121060371398926,-0.02183791995048523,-0.0029284118209034204
1761315124308414500,7.94441455078125,-0.009607353247702122,-0.009941580705344677,0.0016857809387147427
1761315124318462700,7.954462646484375,-0.010981278494000435,-0.009929862804710865,0.005854959599673748
1761315124328509700,7.964509765625,-0.018993664532899857,-0.02178945206105709,0.005825398489832878
1761315124338557400,7.974557373046875,-0.027546672150492668,-0.032648224383592606,-0.0029619678389281034
1761315124348604400,7.9846044921875,-0.030960045754909515,-0.03996765613555908,-0.012034025974571705
1761315124358652700,7.994652587890625,-0.033132120966911316,-0.04779495298862457,-0.017235711216926575
1761315124368699600,8.00469970703125,-0.03494999557733536,-0.04363136738538742,-0.0153752276673913
1761315124378747400,8.014747314453125,-0.03641340136528015,-0.035531360656023026,-0.009922139346599579
1761315124388794400,8.02479443359375,-0.043708864599466324,-0.023802002891898155,-0.00475427508354187
1761315124398842600,8.034842529296874,-0.04855528473854065,-0.017401626333594322,-0.006620618514716625
1761315124408889600,8.0448896484375,-0.05318013206124306,-0.010339190252125263,-0.01104625966399908
1761315124418937300,8.054937255859375,-0.05776449665427208,-0.00336144189350307,-0.011439608410000801
1761315124428984300,8.064984375,-0.057739194482564926,-0.006899451371282339,-0.019234415143728256
1761315124439032600,8.075032470703125,-0.05722254142165184,-0.0062800003215670586,-0.017848504707217216
1761315124449079600,8.08507958984375,-0.05679403990507126,-0.01227424293756485,-0.0181752759963274
1761315124459127600,8.09512744140625,-0.0513332299888134,-0.013725931756198406,-0.017524931579828262
1761315124469174300,8.10517431640625,-0.05085465684533119,-0.016993097960948944,-0.021089039742946625
1761315124479221500,8.115221435546875,-0.046536874026060104,-0.02238227054476738,-0.022238992154598236
1761315124489269500,8.12526953125,-0.04370060935616493,-0.0223215501755476,-0.026026807725429535
1761315124499316500,8.13531640625,-0.0417541041970253,-0.023363113403320312,-0.02449868433177471
1761315124509364500,8.145364501953125,-0.0387420691549778,-0.01918701082468033,-0.02586275525391102
1761315124519411500,8.155411376953126,-0.033739056438207626,-0.01974307745695114,-0.02334420382976532
1761315124529459500,8.16545947265625,-0.03567730262875557,-0.014887070283293724,-0.01721334084868431
1761315124539506400,8.17550634765625,-0.031439680606126785,-0.011189005337655544,-0.008505870588123798
1761315124549554700,8.1855546875,-0.029511285945773125,-0.004964132327586412,-0.0017177389236167073
1761315124559601700,8.1956015625,-0.02419881336390972,-0.0028666264843195677,0.012413792312145233
1761315124569649400,8.2056494140625,-0.016583770513534546,-0.003546531544998288,0.0215377826243639
1761315124579696400,8.2156962890625,-0.011026818305253983,-0.008806806989014149,0.03003113530576229
1761315124589744600,8.22574462890625,-0.0052027516067028046,-0.015728896483778954,0.02907186560332775
1761315124599791600,8.23579150390625,-0.000040480048483004794,-0.019934825599193573,0.023863254114985466
1761315124609839400,8.24583935546875,0.003061037277802825,-0.024816133081912994,0.02045760490000248
1761315124619886300,8.25588623046875,0.004260258749127388,-0.023636354133486748,0.017619740217924118
1761315124629934600,8.2659345703125,0.011064901947975159,-0.019219500944018364,0.012523248791694641
1761315124639981600,8.275981689453126,0.011709386482834816,-0.010431868024170399,0.013413011096417904
1761315124650028500,8.286028564453124,0.012613263912498951,-0.008016647771000862,0.010586597956717014
1761315124660076300,8.296076171875,0.01435310672968626,-0.005934055428951979,0.013096360489726067
1761315124670123500,8.30612353515625,0.016112657263875008,-0.005347893573343754,0.010584467090666294
1761315124680171500,8.316171630859374,0.013173325918614864,-0.0031558459158986807,0.017892714589834213
1761315124690218500,8.326218505859375,0.014023141004145145,-0.004989964887499809,0.02311224304139614
1761315124700266500,8.3362666015625,0.013531787320971489,-0.005614209920167923,0.02341637574136257
1761315124710313500,8.3463134765625,0.016743293032050133,-0.008227037265896797,0.020801950246095657
1761315124720361500,8.356361572265625,0.01919926144182682,-0.011086206883192062,0.013272928074002266
1761315124730408400,8.366408447265625,0.01980619505047798,-0.013815414160490036,-0.0013076120521873236
1761315124740456700,8.376456787109374,0.014394652098417282,-0.020506607368588448,-0.011503257788717747
1761315124750503400,8.38650341796875,0.011358382180333138,-0.020954815670847893,-0.017106814309954643
1761315124760551400,8.396551513671875,0.008506402373313904,-0.017069531604647636,-0.01853613369166851
1761315124770598400,8.406598388671876,-0.0006527407676912844,-0.005356681998819113,-0.016991766169667244
1761315124780646700,8.416646728515625,-0.009915214963257313,0.0043532028794288635,-0.013287842273712158
1761315124790693600,8.426693603515625,-0.016229037195444107,0.007121559232473373,-0.01010909304022789
1761315124800741400,8.436741455078124,-0.013226056471467018,0.002275138394907117,-0.010117349214851856
1761315124810788400,8.446788330078125,-0.0073351445607841015,-0.006679208017885685,-0.007646734360605478
1761315124820836600,8.456836669921875,0.0012282498646527529,-0.01044252049177885,-0.0060946443118155
1761315124830883600,8.466883544921876,0.006992129608988762,-0.009411345236003399,-0.00358781055547297
1761315124840930600,8.4769306640625,0.01067847665399313,-0.008758870884776115,-0.004509264137595892
1761315124850978600,8.486978515625,0.013716344721615314,-0.0023547669406980276,-0.009869941510260105
1761315124861025500,8.497025634765626,0.018933210521936417,-0.006619553081691265,-0.016996027901768684
1761315124871073500,8.507073486328125,0.014984807930886745,-0.022960176691412926,-0.027121631428599358
1761315124881120500,8.51712060546875,0.011504323221743107,-0.029823409393429756,-0.03387301042675972
1761315124891168500,8.52716845703125,0.012130964547395706,-0.03045431151986122,-0.05148769170045853
1761315124901215500,8.537215576171874,0.015051387250423431,-0.017304155975580215,-0.06877081096172333
1761315124911263500,8.547263427734375,0.022409169003367424,-0.005816343706101179,-0.08556549996137619
1761315124921310500,8.557310546875,0.027284884825348854,0.010008159093558788,-0.09454168379306793
1761315124931358500,8.5673583984375,0.02684279903769493,0.006502640433609486,-0.10544893145561218
1761315124941405400,8.577405517578125,0.025839585810899734,-0.0009448895580135286,-0.1037714034318924
1761315124951453400,8.587453369140626,0.02496607042849064,0.004628840368241072,-0.09969756752252579
1761315124961500400,8.59750048828125,0.027722707018256187,0.0043987431563436985,-0.10025549679994583
1761315124971548700,8.607548583984375,0.028779450803995132,-0.0054328483529388905,-0.09416831284761429
1761315124981595400,8.617595458984376,0.025953570380806923,-0.01128088403493166,-0.08398065716028214
1761315124991643400,8.627643310546874,0.02280491404235363,-0.018017882481217384,-0.05740736797451973
1761315125001690400,8.6376904296875,0.013715012930333614,-0.007965780794620514,-0.02961062267422676
1761315125011737600,8.647737548828125,0.0016247945604845881,0.0012684636749327183,-0.011011905036866665
1761315125021785600,8.65778564453125,-0.011128284968435764,0.007447530049830675,0.003522296901792288
1761315125031832600,8.66783251953125,-0.01774464175105095,0.006579605862498283,0.015308116562664509
1761315125041880600,8.677880615234375,-0.018979283049702644,0.006213154643774033,0.026568492874503136
1761315125051927600,8.687927490234374,-0.019230686128139496,-0.0027662254869937897,0.03122609667479992
1761315125061975600,8.6979755859375,-0.01684902049601078,0.004769188817590475,0.04289979487657547
1761315125072022500,8.7080224609375,-0.01230593491345644,0.007446997333317995,0.04122520238161087
1761315125082070500,8.718070556640624,-0.007090666331350803,0.00155288923997432,0.03465251997113228
1761315125092117500,8.728117431640625,-0.007181746419519186,-0.011196994222700596,0.036077309399843216
1761315125102165500,8.73816552734375,0.007836883887648582,-0.0049673281610012054,0.033254627138376236
1761315125112212500,8.74821240234375,0.02148984558880329,0.0029230855870991945,0.03507835790514946
1761315125122260500,8.758260498046875,0.03050304763019085,-0.0012351741315796971,0.019829630851745605
1761315125132307500,8.768307373046875,0.04043370857834816,-0.0065108961425721645,-0.0025776736438274384
1761315125142355500,8.77835546875,0.05354471877217293,-0.011297129094600677,-0.033730264753103256
1761315125152402400,8.78840234375,0.0691593661904335,-0.02755439653992653,-0.07811690866947174
1761315125162449700,8.79844970703125,0.09539362788200378,-0.04753875732421875,-0.13514503836631775
1761315125172497400,8.808497314453126,0.13001872599124908,-0.0948234498500824,-0.2141178846359253
1761315125182544400,8.81854443359375,0.17715853452682495,-0.15415281057357788,-0.3011949956417084
1761315125192592400,8.82859228515625,0.21599461138248444,-0.24187441170215607,-0.35405340790748596
1761315125202639600,8.8386396484375,0.21679408848285675,-0.2318686544895172,-0.3010543882846832
1761315125212687600,8.8486875,0.16599136590957642,-0.10677225142717361,-0.17261065542697906
1761315125222734300,8.858734375,0.08475963026285172,0.021891450509428978,-0.049368347972631454
1761315125232782600,8.868782470703126,0.0018346516881138086,0.09567192941904068,0.028509939089417458
1761315125242829600,8.87882958984375,-0.05732747167348862,0.119117870926857,0.07823328673839569
1761315125252877600,8.888877685546875,-0.07388487458229065,0.0997319221496582,0.11504882574081421
1761315125262924500,8.898924560546876,-0.051660798490047455,0.054556719958782196,0.14280907809734344
1761315125272972500,8.90897265625,-0.013423130847513676,-0.008015582337975502,0.14448128640651703
1761315125283019500,8.91901953125,0.024519991129636765,-0.0621776208281517,0.11429248750209808
1761315125293067500,8.929067626953126,0.05023041367530823,-0.09927572309970856,0.06721498817205429
1761315125303114500,8.939114501953124,0.06202608719468117,-0.1063312366604805,0.03122210130095482
1761315125313161700,8.94916162109375,0.038780685514211655,-0.08388291299343109,0.022973492741584778
1761315125323209500,8.95920947265625,0.002101234160363674,-0.027605794370174408,0.032579779624938965
1761315125333256400,8.96925634765625,-0.03187191113829613,0.029746975749731064,0.04114264249801636
1761315125343304400,8.979304443359375,-0.045704104006290436,0.0624798908829689,0.05060378834605217
1761315125353351700,8.9893515625,-0.03856390342116356,0.058643873780965805,0.044498227536678314
1761315125363399400,8.9993994140625,-0.011935222893953323,0.027243072167038918,0.01979474350810051
1761315125373446400,9.0094462890625,0.022948458790779114,-0.004424575716257095,-0.010262757539749146
1761315125383494700,9.01949462890625,0.05886784568428993,-0.037582527846097946,-0.04162866994738579
1761315125393541600,9.029541748046874,0.0782812237739563,-0.04765167459845543,-0.05686195194721222
1761315125403589400,9.03958935546875,0.07401856780052185,-0.025548236444592476,-0.043598610907793045
1761315125413636400,9.04963623046875,0.05159315466880798,0.010237989947199821,-0.029456425458192825
1761315125423684600,9.0596845703125,0.019950006157159805,0.026799390092492104,-0.02100887894630432
1761315125433731600,9.069731689453125,-0.009311210364103317,0.028239626437425613,-0.01017087884247303
1761315125443779600,9.079779541015625,-0.021271999925374985,0.02172340452671051,-0.003777960315346718
1761315125453826300,9.089826416015624,-0.01842348277568817,0.020318321883678436,0.003778493031859398
1761315125463873300,9.099873291015625,-0.01888926886022091,0.03886990249156952,-0.0027502465527504683
1761315125473921500,9.109921630859375,-0.015980031341314316,0.0646013617515564,-0.0181739442050457
1761315125483968500,9.119968505859376,-0.01648283563554287,0.0718851089477539,-0.03139733895659447
1761315125494016500,9.1300166015625,-0.013788250274956226,0.06131928414106369,-0.04007817804813385
1761315125504063500,9.1400634765625,0.008536496199667454,0.05934454873204231,-0.03351880982518196
1761315125514111500,9.150111572265626,0.04224146157503128,0.034633345901966095,-0.0178154818713665
1761315125524158500,9.160158447265625,0.06177521497011185,0.017669275403022766,0.009680856950581074
1761315125534206500,9.17020654296875,0.06822086870670319,0.010631605051457882,0.040220122784376144
1761315125544253700,9.180253662109376,0.06699181348085403,0.004235757514834404,0.05115453153848648
1761315125554301400,9.190301513671875,0.05764704942703247,-0.0004756405542138964,0.05096251517534256
1761315125564348400,9.200348388671875,0.045885201543569565,0.0005512743373401463,0.03964781016111374
1761315125574396700,9.210396728515626,0.03597264736890793,0.001241033081896603,0.023571372032165527
1761315125584443600,9.220443603515625,0.018912704661488533,0.0004884237423539162,0.016919061541557312
1761315125594490600,9.23049072265625,0.002043976215645671,0.00001944107498275116,0.007017695810645819
1761315125604538400,9.240538330078126,-0.005673332139849663,0.007877363823354244,0.005539108533412218
1761315125614585300,9.25058544921875,-0.010192183777689934,0.00771624268963933,0.011896872892975807
1761315125624630500,9.260630615234374,-0.010113087482750416,0.0051745218224823475,0.020264791324734688
1761315125634678500,9.270678466796875,-0.007016630377620459,-0.0067820060066878796,0.02967160940170288
1761315125644725500,9.2807255859375,-0.003349723992869258,-0.022052038460969925,0.030311565846204758
1761315125654773500,9.2907734375,0.007209709845483303,-0.02425394020974636,0.02592294290661812
1761315125664820500,9.300820556640625,0.01323777437210083,-0.025236913934350014,0.017304955050349236
1761315125674867500,9.310867431640625,0.023672040551900864,-0.03140133246779442,0.00851359311491251
1761315125684915500,9.32091552734375,0.026034263893961906,-0.028840169310569763,0.007000918034464121
1761315125694962400,9.33096240234375,0.024343423545360565,-0.014958709478378296,0.0007238471880555153
1761315125705010400,9.341010498046876,0.022164424881339073,-0.0013938985066488385,0.0025997778866440058
1761315125715057700,9.3510576171875,0.02455487847328186,0.0026988473255187273,0.006951382849365473
1761315125725105400,9.36110546875,0.028730981051921844,-0.006977482233196497,0.0018817896489053965
1761315125735152400,9.37115234375,0.036551088094711304,-0.011216701939702034,-0.011119229719042778
1761315125745200400,9.381200439453124,0.03936817869544029,-0.008924785070121288,-0.05038407817482948
1761315125755247600,9.39124755859375,0.05402115732431412,-0.01119166798889637,-0.09507910907268524
1761315125765295600,9.401295654296876,0.06807918846607208,-0.021756427362561226,-0.1407315582036972
1761315125775342600,9.411342529296874,0.0906638577580452,-0.031613051891326904,-0.18208937346935272
1761315125785390600,9.421390625,0.10901650041341782,-0.05584462359547615,-0.19713543355464935
1761315125795437600,9.4314375,0.0964445173740387,-0.04914863780140877,-0.1568966656923294
1761315125805484500,9.441484619140626,0.07027682662010193,-0.01369450706988573,-0.0992051437497139
1761315125815532500,9.451532470703125,0.03448234498500824,0.02263127639889717,-0.057676877826452255
1761315125825579500,9.46157958984375,0.0023406522814184427,0.03509833291172981,-0.03831969201564789
1761315125835627500,9.47162744140625,-0.021885590627789497,0.020971860736608505,-0.04478291794657707
1761315125845674500,9.481674560546875,-0.02647155523300171,0.007662447169423103,-0.04393922910094261
1761315125855722500,9.491722412109375,-0.014629542827606201,0.017287377268075943,-0.036142293363809586
1761315125865769500,9.50176953125,-0.006487460341304541,0.028978122398257256,-0.02382250875234604
1761315125875817500,9.5118173828125,-0.008441155776381493,0.028434837237000465,-0.012219914235174656
1761315125885864400,9.521864501953125,-0.0022485069930553436,0.02281157299876213,0.0041161817498505116
1761315125895912400,9.531912353515626,0.003753991797566414,0.01173069141805172,0.023083215579390526
1761315125905959700,9.541959716796875,-0.0016258598770946264,0.0008183894096873701,0.03506850451231003
1761315125916007400,9.55200732421875,-0.004419249482452869,-0.0007411577389575541,0.05211832746863365
1761315125926054400,9.562054443359376,-0.009347163140773773,0.00555295730009675,0.0658772811293602
1761315125936102400,9.572102294921875,-0.009667540900409222,0.009396164678037167,0.07899921387434006
1761315125946149600,9.582149658203125,-0.006715693045407534,0.013968013226985931,0.08270313590765
1761315125956196600,9.592196533203126,0.0019068233668804169,0.001216265605762601,0.07139082252979279
1761315125966244400,9.602244384765624,0.012703278101980686,-0.02111194282770157,0.054073888808488846
1761315125976291300,9.612291259765625,0.029734991490840912,-0.03635374829173088,0.030014092102646828
1761315125986339600,9.622339599609376,0.04340233653783798,-0.02791552059352398,0.006128466222435236
1761315125996386600,9.632386474609374,0.05041550472378731,-0.01444179005920887,-0.01691613346338272
1761315126006434600,9.6424345703125,0.06354142725467682,-0.008798019029200077,-0.0362355038523674
1761315126016481300,9.652481201171875,0.04892093688249588,-0.020199811086058617,-0.0363638661801815
1761315126026529500,9.662529541015624,0.07615042477846146,0.0013558153295889497,-0.026575950905680656
1761315126036576500,9.672576416015625,0.06666957587003708,0.013911820948123932,-0.011976235546171665
1761315126046624500,9.68262451171875,0.06528579443693161,0.015381086617708206,-0.009557552635669708
1761315126056671500,9.69267138671875,0.05523955449461937,-0.01004970446228981,-0.01817634142935276
1761315126066719500,9.702719482421875,0.053469881415367126,-0.010549846105277538,-0.011699000373482704
1761315126076766500,9.712766357421875,0.057261958718299866,-0.0006572681595571339,0.0007094661123119295
1761315126086813400,9.7228134765625,0.027057716622948647,0.029323000460863113,0.02593865618109703
1761315126096861700,9.73286181640625,0.013678527437150478,0.04248274490237236,0.08329568803310394
1761315126106908700,9.74290869140625,-0.021582789719104767,0.0001304948964389041,0.08923959732055664
1761315126116956400,9.752956298828124,0.037578798830509186,-0.04007551446557045,0.07760291546583176
1761315126127003400,9.76300341796875,0.036250680685043335,-0.04868578165769577,0.053213153034448624
1761315126137051600,9.7730517578125,0.0866297036409378,-0.0608883835375309,0.0170905701816082
1761315126147098600,9.7830986328125,0.03905605524778366,-0.051774512976408005,-0.023315442726016045
1761315126157146400,9.793146484375,0.08269727975130081,-0.02948225848376751,-0.06354914605617523
1761315126167193300,9.803193359375,0.02027278020977974,0.005824599415063858,-0.08242270350456238
1761315126177241600,9.81324169921875,0.06597741693258286,0.026644660159945488,-0.08783930540084839
1761315126187288600,9.82328857421875,-0.015799203887581825,0.06977108865976334,-0.07200148701667786
1761315126197336300,9.83333642578125,0.0048767803236842155,0.07496079057455063,-0.03179468214511871
1761315126207383300,9.84338330078125,-0.08327970653772354,0.08287783712148666,0.02052631415426731
