time,seconds_elapsed,z,y,x
1761330858601499000,0.059498779296875,0.023832321166992188,0.010196685791015625,0.0018086433410644531
1761330858620199700,0.07819970703125,0.1745891571044922,-0.0038442611694335938,-0.04956655204296112
1761330858638900700,0.096900634765625,0.16023826599121094,-0.1324458122253418,0.1117897778749466
1761330858657601500,0.1156015625,0.11568355560302734,-0.2463998794555664,-0.010556921362876892
1761330858676302300,0.13430224609375,0.07121467590332031,-0.1105031967163086,0.00849151611328125
1761330858695003400,0.15300341796875,0.18033790588378906,-0.13693857192993164,-0.006291717290878296
1761330858713704200,0.1717041015625,0.01685810089111328,-0.12211132049560547,0.02654320001602173
1761330858732405000,0.190405029296875,-0.3360099792480469,-0.0032205581665039062,0.011649012565612793
1761330858751106000,0.20910595703125,-0.4310035705566406,-0.024071216583251953,-0.005038738250732422
1761330858769806800,0.227806884765625,-0.6000947952270508,0.16414213180541992,0.22275951504707336
1761330858788507600,0.246507568359375,-0.3924684524536133,0.14785194396972656,0.034109681844711304
1761330858807208700,0.265208740234375,0.15565776824951172,0.08571052551269531,0.26643091440200806
1761330858825909500,0.283909423828125,0.28281497955322266,-0.07556676864624023,0.474643737077713
1761330858844610300,0.3026103515625,0.2233104705810547,-0.17075061798095703,0.7104842066764832
1761330858863311400,0.321311279296875,0.41313838958740234,0.004511833190917969,0.16365733742713928
1761330858882012200,0.34001220703125,0.4981069564819336,0.18853187561035156,0.4188586175441742
1761330858900713000,0.358712890625,0.3376493453979492,0.33013296127319336,0.8696013689041138
1761330858919414000,0.3774140625,-0.029912948608398438,0.3194410800933838,1.3272149562835693
1761330858938114800,0.39611474609375,0.12186145782470703,0.4136948585510254,1.3201234340667725
1761330858956815600,0.414815673828125,0.20300769805908203,0.4154329299926758,0.8975160121917725
1761330858975516700,0.4335166015625,-0.096893310546875,0.4505939483642578,0.44418734312057495
1761330858994217500,0.452217529296875,0.02055644989013672,0.6811456680297852,0.3638104796409607
1761330859012918300,0.470918212890625,-0.013615608215332031,0.8163800239562988,0.3359936475753784
1761330859031619300,0.489619384765625,-0.014109611511230469,0.8345522880554199,0.2819005250930786
1761330859050320100,0.508320068359375,0.07501029968261719,0.8935565948486328,0.19550246000289917
1761330859069021000,0.52702099609375,0.09752559661865234,0.8938999176025391,0.15261030197143555
1761330859087722000,0.545721923828125,-0.5719690322875977,0.5575122833251953,0.5051990151405334
1761330859106422800,0.5644228515625,-1.1914830207824707,0.21613168716430664,1.0552186965942383
1761330859125123600,0.58312353515625,-1.6612958908081055,0.17848730087280273,1.1988438367843628
1761330859143824600,0.60182470703125,-1.776301383972168,0.14971542358398438,1.064764142036438
1761330859162525400,0.620525390625,-1.8593463897705078,0.05063486099243164,0.9849720597267151
1761330859181226200,0.639226318359375,-1.7018404006958008,-0.002048015594482422,1.0022984743118286
1761330859199927300,0.65792724609375,-1.2181081771850586,0.04574918746948242,0.6796525716781616
1761330859218628000,0.676628173828125,-0.5063495635986328,0.1818082332611084,0.07289808988571167
1761330859237329000,0.695328857421875,-0.06753349304199219,0.2592644691467285,-0.28116726875305176
1761330859256030000,0.714030029296875,-0.21663761138916016,0.27558445930480957,-0.35433730483055115
1761330859274730800,0.732730712890625,-0.43228626251220703,0.5991039276123047,-0.47060590982437134
1761330859293431600,0.751431640625,-0.3793220520019531,0.8597948551177979,-0.4598011374473572
1761330859312132600,0.770132568359375,-0.3970918655395508,0.8167705535888672,-0.6982498168945312
1761330859330833400,0.78883349609375,-0.16214942932128906,0.7552046775817871,-1.1661255359649658
1761330859349534200,0.8075341796875,0.25370311737060547,0.8347828388214111,-1.2784944772720337
1761330859368235300,0.8262353515625,0.8870115280151367,0.8483142852783203,-1.4144244194030762
1761330859386936000,0.84493603515625,1.5343904495239258,0.7062718868255615,-2.108501672744751
1761330859405636900,0.863636962890625,2.0887298583984375,1.5514633655548096,-1.8266232013702393
1761330859424338000,0.882337890625,2.32155704498291,2.3183109760284424,-0.40496134757995605
1761330859443038700,0.901038818359375,3.1886348724365234,2.5008294582366943,0.006549477577209473
1761330859461739500,0.919739501953125,4.8989410400390625,2.2750394344329834,-0.707858681678772
1761330859480440600,0.938440673828125,5.394528388977051,1.457711935043335,-1.1753828525543213
1761330859499141400,0.957141357421875,4.781390190124512,0.2516608238220215,-1.3815158605575562
1761330859517842200,0.97584228515625,3.8390254974365234,-0.5468752384185791,-0.8148179054260254
1761330859536543200,0.994543212890625,2.6290855407714844,-0.9942111968994141,-0.36574530601501465
1761330859555244000,1.013244140625,1.6230506896972656,-1.4697256088256836,-0.30824410915374756
1761330859573944800,1.03194482421875,1.4392051696777344,-1.9480743408203125,-0.3891338109970093
1761330859592646000,1.05064599609375,1.3773174285888672,-2.2277588844299316,-0.31889116764068604
1761330859611346700,1.0693466796875,0.7307748794555664,-2.5288844108581543,0.008223414421081543
1761330859630047500,1.088047607421875,-0.38268470764160156,-2.651090145111084,-0.22052037715911865
1761330859648748500,1.10674853515625,-1.2402658462524414,-2.530454635620117,-0.616417646408081
1761330859667449300,1.125449462890625,-2.084911346435547,-2.119239330291748,-0.5598702430725098
1761330859686150100,1.144150146484375,-2.8276166915893555,-1.872532844543457,-0.4329643249511719
1761330859704851200,1.162851318359375,-2.729602813720703,-1.808427333831787,-0.7922666072845459
1761330859723552000,1.181552001953125,-1.739710807800293,-1.9113576412200928,-0.6853519082069397
1761330859742252800,1.200252685546875,-1.22548246383667,-1.8604841232299805,-0.16357427835464478
1761330859760953900,1.218953857421875,-1.0412168502807617,-1.405515193939209,0.300336092710495
1761330859779654700,1.237654541015625,-1.1919360160827637,-1.1146059036254883,-0.10870033502578735
1761330859798355500,1.25635546875,-1.8033366203308105,-1.0469555854797363,-1.3031532764434814
1761330859817056500,1.275056396484375,-2.6956748962402344,-1.3074219226837158,-1.7886340618133545
1761330859835757300,1.29375732421875,-3.0726423263549805,-1.2269048690795898,-1.790052890777588
1761330859854458000,1.3124580078125,-3.0213913917541504,-1.139634609222412,-1.7222986221313477
1761330859873159200,1.3311591796875,-2.6797027587890625,-1.1932153701782227,-1.562456727027893
1761330859891860000,1.34985986328125,-2.1777687072753906,-1.0828330516815186,-1.2710574865341187
1761330859910560800,1.368560791015625,-1.7263808250427246,-0.6770963668823242,-0.34750592708587646
1761330859929261800,1.38726171875,-1.5225410461425781,-0.35306787490844727,0.432027131319046
1761330859947962600,1.405962646484375,-1.681941032409668,-0.3343205451965332,-0.02876661717891693
1761330859966663700,1.42466357421875,-1.778799057006836,-0.3916301727294922,-1.0372552871704102
1761330859985364500,1.443364501953125,-1.7427210807800293,-0.29153013229370117,-1.2714526653289795
1761330860004065300,1.462065185546875,-1.5480561256408691,0.04984426498413086,-0.9405388236045837
1761330860022766000,1.48076611328125,-1.0911779403686523,0.5483860969543457,-0.3604258894920349
1761330860041467100,1.499467041015625,-0.24321651458740234,1.2111802101135254,0.2639216482639313
1761330860060168000,1.51816796875,0.8946847915649414,1.865429401397705,0.6376018524169922
1761330860078869000,1.536868896484375,1.7447843551635742,2.172072172164917,0.663866400718689
1761330860097569800,1.55556982421875,2.109501838684082,1.547273874282837,0.612800121307373
1761330860116270600,1.5742705078125,3.100214958190918,1.5595858097076416,0.34594371914863586
1761330860134971600,1.5929716796875,4.2361907958984375,1.1487183570861816,0.9470765590667725
1761330860153672400,1.61167236328125,4.785944938659668,0.6674537658691406,1.4569859504699707
1761330860172373200,1.630373291015625,4.610608100891113,-0.0531306266784668,1.3307197093963623
1761330860191074300,1.64907421875,3.763880729675293,-0.3531033992767334,0.9782193899154663
1761330860209775000,1.667775146484375,2.769815444946289,-0.9430942535400391,0.5863933563232422
1761330860228476000,1.686475830078125,2.50927734375,-1.837343454360962,0.35826367139816284
1761330860247177000,1.705177001953125,2.640045166015625,-2.148495674133301,-0.10746651887893677
1761330860265877800,1.723877685546875,2.1910314559936523,-3.0000321865081787,-0.18511810898780823
1761330860284578600,1.74257861328125,1.2275981903076172,-2.6920218467712402,-0.07453468441963196
1761330860303279600,1.761279541015625,0.31923484802246094,-2.393097162246704,0.17897719144821167
1761330860321980400,1.77998046875,0.4702920913696289,-1.8748130798339844,0.07409271597862244
1761330860340681500,1.798681396484375,0.5112113952636719,-1.3925442695617676,0.22675862908363342
1761330860359382300,1.81738232421875,0.16588687896728516,-1.1978721618652344,0.721637487411499
1761330860378083000,1.8360830078125,-0.6626272201538086,-1.5540924072265625,1.1651771068572998
1761330860396783900,1.854783935546875,-1.6116504669189453,-2.0117409229278564,0.9519433975219727
1761330860415485000,1.87348486328125,-2.3383636474609375,-1.7059268951416016,0.1876932978630066
1761330860434185700,1.892185791015625,-2.8815813064575195,-1.1541903018951416,-0.3949180245399475
1761330860452886800,1.91088671875,-2.4285411834716797,-1.0342864990234375,0.1913280487060547
1761330860471587600,1.929587646484375,-2.1126585006713867,-0.9798500537872314,0.6259894967079163
1761330860490288400,1.948288330078125,-2.42795991897583,-0.9582116603851318,0.6547998785972595
1761330860508989400,1.966989501953125,-2.8229031562805176,-0.8735711574554443,0.2877560257911682
1761330860527690200,1.985690185546875,-2.8845057487487793,-0.754868745803833,-0.18587103486061096
1761330860546391300,2.004391357421875,-2.6487717628479004,-0.6920011043548584,-0.49286988377571106
1761330860565092000,2.023092041015625,-2.1922178268432617,-0.5780744552612305,-0.6760119199752808
1761330860583793000,2.04179296875,-1.8484916687011719,-0.44450902938842773,-0.38192304968833923
1761330860602493700,2.06049365234375,-1.59271240234375,-0.3018355369567871,-0.08239704370498657
1761330860621194800,2.07919482421875,-1.297926902770996,-0.08852386474609375,-0.11225390434265137
1761330860639895600,2.0978955078125,-1.0169391632080078,0.08486342430114746,-0.10525256395339966
1761330860658596600,2.1165966796875,-0.4962005615234375,0.3873429298400879,-0.5934585332870483
1761330860677297400,2.13529736328125,0.2078876495361328,0.7240183353424072,-1.0971825122833252
1761330860695998200,2.153998291015625,0.7514781951904297,1.0312199592590332,-0.6021739840507507
1761330860714699300,2.17269921875,1.0616588592529297,1.334871530532837,-0.5160496234893799
1761330860733400000,2.191400146484375,1.5145177841186523,1.517193078994751,-0.6102579832077026
1761330860752100900,2.210100830078125,2.5983991622924805,1.4649665355682373,-0.5714606046676636
1761330860770802000,2.228802001953125,3.625760078430176,1.3579254150390625,-0.6569939851760864
1761330860789502700,2.247502685546875,4.555450439453125,1.1500864028930664,-0.5985105633735657
1761330860808203800,2.266203857421875,4.551939010620117,0.6664814949035645,-0.5176464319229126
1761330860826904600,2.284904541015625,4.243758201599121,-0.14025139808654785,-0.25740641355514526
1761330860845605400,2.30360546875,4.50168514251709,-1.4239492416381836,-0.3513930141925812
1761330860864306400,2.322306396484375,5.294755935668945,-2.1100590229034424,-0.6456416249275208
1761330860883007200,2.34100732421875,5.372340202331543,-2.1744909286499023,-0.39488667249679565
1761330860901708300,2.359708251953125,3.761045455932617,-2.11383318901062,0.19591081142425537
1761330860920409000,2.3784091796875,1.0263080596923828,-2.0326011180877686,0.7299466729164124
1761330860939110000,2.39710986328125,-0.6506462097167969,-1.9457640647888184,0.8675100803375244
1761330860957811000,2.41581103515625,-1.6996707916259766,-1.4816319942474365,0.22571974992752075
1761330860976511700,2.43451171875,-2.41862154006958,-1.7359998226165771,-0.26448434591293335
1761330860995212500,2.453212646484375,-2.946192741394043,-1.8379969596862793,-0.710727870464325
1761330861013913600,2.47191357421875,-3.2572927474975586,-1.618638277053833,-0.8721812963485718
1761330861032614400,2.490614501953125,-3.013577461242676,-1.3645132780075073,-1.0380165576934814
1761330861051315200,2.509315185546875,-2.479947090148926,-1.137012243270874,-1.244285225868225
1761330861070016300,2.528016357421875,-2.1226558685302734,-1.1019916534423828,-1.5858994722366333
1761330861088717000,2.546717041015625,-2.249227523803711,-0.9960172176361084,-1.645087480545044
1761330861107417900,2.56541796875,-2.5315446853637695,-0.7717559337615967,-1.645309329032898
1761330861126119000,2.584118896484375,-2.7001309394836426,-0.7132141590118408,-1.6004937887191772
1761330861144819700,2.60281982421875,-2.7115068435668945,-0.7037582397460938,-1.5569701194763184
1761330861163520800,2.621520751953125,-2.276487350463867,-0.6775765419006348,-1.3583588600158691
1761330861182221600,2.6402216796875,-1.645327091217041,-0.7141072750091553,-1.203920602798462
1761330861200922400,2.65892236328125,-1.4858808517456055,-0.6278138160705566,-1.0991688966751099
1761330861219623400,2.67762353515625,-1.4821820259094238,-0.4646024703979492,-1.163108229637146
1761330861238324200,2.69632421875,-1.719498634338379,-0.891960859298706,-1.7891151905059814
1761330861257025000,2.71502490234375,-1.4144258499145508,0.009699583053588867,-1.2935775518417358
1761330861275726000,2.73372607421875,-1.567479133605957,0.618218183517456,-0.8528364896774292
1761330861294427000,2.752427001953125,-1.1961231231689453,0.7936420440673828,-0.1563161015510559
1761330861313128000,2.7711279296875,-0.7035760879516602,1.0635106563568115,0.7755332589149475
1761330861331828700,2.789828857421875,-0.02421855926513672,1.2380602359771729,0.49486249685287476
1761330861350529500,2.808529541015625,0.7638940811157227,1.5227198600769043,-0.16558152437210083
1761330861369230600,2.827230712890625,2.060206413269043,1.7503454685211182,-0.12016582489013672
1761330861387931400,2.845931396484375,3.9664840698242188,1.474393367767334,1.09965181350708
1761330861406632400,2.864632568359375,5.271712303161621,1.5589678287506104,2.402850389480591
1761330861425333200,2.883333251953125,5.288930892944336,1.4499945640563965,2.9737319946289062
1761330861444034000,2.902033935546875,4.796786308288574,0.2568645477294922,2.328944683074951
1761330861462735000,2.920735107421875,4.2437849044799805,-0.9357383251190186,0.8403283357620239
1761330861481436000,2.939435791015625,4.213724136352539,-1.817618727684021,0.18651556968688965
1761330861500136700,2.95813671875,4.783781051635742,-2.102224826812744,0.13422417640686035
1761330861518837800,2.976837646484375,4.302641868591309,-1.999973177909851,-0.07551145553588867
1761330861537538600,2.99553857421875,2.5259523391723633,-1.8069161176681519,-0.4005182981491089
1761330861556239600,3.014239501953125,0.35143089294433594,-1.4154117107391357,-0.7561041116714478
1761330861574940400,3.0329404296875,-1.1301088333129883,-1.046494960784912,-0.7861533164978027
1761330861593641200,3.05164111328125,-1.6592369079589844,-1.1063106060028076,-0.7799348831176758
1761330861612342300,3.07034228515625,-1.6311273574829102,-1.3707077503204346,-0.5743933916091919
1761330861631043000,3.08904296875,-1.4927253723144531,-1.6278444528579712,-0.41088056564331055
1761330861649744000,3.107743896484375,-1.5235490798950195,-1.7944250106811523,-0.35819149017333984
1761330861668445000,3.12644482421875,-1.8346138000488281,-1.7603302001953125,-0.2492276430130005
1761330861687146000,3.14514599609375,-2.191133975982666,-1.6384339332580566,-0.2640277147293091
1761330861705846800,3.1638466796875,-2.529578685760498,-1.4097940921783447,-0.33808815479278564
1761330861724547600,3.182547607421875,-2.6583619117736816,-1.142099142074585,-0.00015652179718017578
1761330861743248600,3.20124853515625,-2.689560890197754,-1.0202407836914062,0.37501299381256104
1761330861761949400,3.219949462890625,-2.6634836196899414,-1.0718917846679688,0.38113200664520264
1761330861780650200,3.238650146484375,-2.882180690765381,-0.9148433208465576,0.8071553707122803
1761330861799351300,3.257351318359375,-3.335883140563965,-0.5898702144622803,0.8997656106948853
1761330861818052000,3.276052001953125,-3.365391254425049,-0.24759554862976074,0.8537427186965942
1761330861836753200,3.294753173828125,-2.8276233673095703,-0.41639161109924316,0.5137327909469604
1761330861855454000,3.313453857421875,-2.2313156127929688,-0.5339372158050537,0.32840096950531006
1761330861874154800,3.33215478515625,-1.4567842483520508,-0.4908111095428467,0.13443028926849365
1761330861892855800,3.350855712890625,-0.5076503753662109,-0.24176883697509766,0.1466515064239502
1761330861911556600,3.369556640625,0.37477970123291016,0.025343894958496094,0.2031846046447754
1761330861930257700,3.388257568359375,0.9123058319091797,0.31375813484191895,0.1577214002609253
1761330861948958500,3.40695849609375,1.2844972610473633,0.5135231018066406,0.23696982860565186
1761330861967659500,3.425659423828125,2.072659492492676,0.6162252426147461,0.8143278360366821
1761330861986360300,3.4443603515625,2.688094139099121,0.49808835983276367,1.5765182971954346
1761330862005061000,3.46306103515625,2.2746944427490234,0.725421667098999,2.1203603744506836
1761330862023762200,3.48176220703125,2.8902034759521484,0.8498728275299072,2.301032543182373
1761330862042463000,3.500462890625,4.323286056518555,0.10124683380126953,1.5159512758255005
1761330862061163800,3.519163818359375,5.556897163391113,-0.2349853515625,0.699908971786499
1761330862079864800,3.53786474609375,5.376364707946777,-0.009602785110473633,0.2797389030456543
1761330862098565600,3.556565673828125,4.420548439025879,-0.17081069946289062,-0.5586992502212524
1761330862117266700,3.5752666015625,3.595968246459961,-0.4289276599884033,-1.2906782627105713
1761330862135967500,3.593967529296875,2.6424026489257812,-0.6748700141906738,-1.3911923170089722
1761330862154668300,3.612668212890625,1.3166675567626953,-0.9932301044464111,-1.3513414859771729
1761330862173369300,3.631369384765625,0.03152751922607422,-1.2250149250030518,-1.5487749576568604
1761330862192070100,3.650070068359375,-0.8079214096069336,-1.1836566925048828,-1.658264398574829
1761330862210771200,3.668771240234375,-1.2821826934814453,-1.2377738952636719,-1.4427721500396729
1761330862229472000,3.687471923828125,-1.8026862144470215,-1.274766445159912,-1.125684380531311
1761330862248173000,3.706173095703125,-2.3745155334472656,-1.3822782039642334,-0.6354877948760986
1761330862266873900,3.724873779296875,-2.956003189086914,-1.3279533386230469,-0.3986217975616455
1761330862285574700,3.74357470703125,-3.329962730407715,-1.1378593444824219,-0.5868514776229858
1761330862304275700,3.762275634765625,-3.004349708557129,-1.0831921100616455,-0.9254521727561951
1761330862322976500,3.7809765625,-2.724027633666992,-0.6953079700469971,-0.313334584236145
1761330862341677600,3.799677490234375,-3.0177316665649414,-1.204965353012085,0.5091037750244141
1761330862360378400,3.81837841796875,-3.0232605934143066,-1.2249062061309814,0.695207953453064
1761330862379079400,3.837079345703125,-2.261697769165039,-0.5331096649169922,0.5108047723770142
1761330862397780200,3.8557802734375,-1.834650993347168,-0.08817887306213379,-0.08805185556411743
1761330862416481000,3.87448095703125,-1.7120065689086914,-0.27623987197875977,-0.7264899611473083
1761330862435182000,3.89318212890625,-1.3463430404663086,-0.39812445640563965,-0.7857545614242554
1761330862453883000,3.9118828125,-0.9694328308105469,-0.19445562362670898,-0.7040805220603943
1761330862472583700,3.930583740234375,-0.9062299728393555,-0.2520778179168701,-0.6025140285491943
1761330862491284700,3.94928466796875,-0.8232316970825195,-0.27074527740478516,-0.6577275991439819
1761330862509985500,3.967985595703125,-0.2203807830810547,-0.057962894439697266,-0.4749058783054352
1761330862528686600,3.9866865234375,0.24979591369628906,0.09554314613342285,-0.36620983481407166
1761330862547387400,4.005387451171875,0.4104452133178711,0.2236461639404297,0.2628563642501831
1761330862566088400,4.02408837890625,0.4525785446166992,0.33701372146606445,0.5704464912414551
1761330862584789200,4.042789306640625,0.5180988311767578,0.3950948715209961,0.6192249655723572
1761330862603490300,4.061490234375,0.9133234024047852,0.7816846370697021,-0.13337934017181396
1761330862622191000,4.080191162109375,1.1671314239501953,1.16701078414917,0.28524768352508545
1761330862640892000,4.098891845703125,0.9023208618164062,1.7545020580291748,-0.029079437255859375
1761330862659593000,4.117593017578125,0.8603448867797852,1.889061689376831,-0.0011945366859436035
1761330862678293800,4.136293701171875,1.6985502243041992,1.5681805610656738,0.4335968494415283
1761330862696994800,4.154994873046875,2.132399559020996,1.3619756698608398,1.2121448516845703
1761330862715695600,4.173695556640625,1.9443349838256836,0.9544939994812012,1.4008419513702393
1761330862734396700,4.192396728515625,1.885695457458496,0.20116782188415527,0.8702886700630188
1761330862753097500,4.211097412109375,2.38301944732666,-0.8550410270690918,0.6045806407928467
1761330862771798300,4.22979833984375,2.211822509765625,-1.8296788930892944,0.380683958530426
1761330862790499300,4.248499267578125,2.1447572708129883,-2.323819637298584,0.46085333824157715
1761330862809200000,4.2672001953125,1.793501853942871,-2.4208526611328125,0.8454016447067261
1761330862827901200,4.285901123046875,0.9702444076538086,-2.286306142807007,1.0107353925704956
1761330862846602000,4.30460205078125,0.041912078857421875,-2.1241660118103027,0.6848592758178711
1761330862865303000,4.323302978515625,-0.4694786071777344,-1.696219563484192,0.312662273645401
1761330862884003800,4.34200390625,-0.5919466018676758,-1.2322916984558105,0.37023410201072693
1761330862902705000,4.360704833984375,-0.8465032577514648,-1.3765335083007812,0.47905057668685913
1761330862921405700,4.37940576171875,-1.0645675659179688,-1.5860155820846558,0.21251997351646423
1761330862940106500,4.3981064453125,-1.1122016906738281,-1.4251608848571777,0.06217588484287262
1761330862958807600,4.4168076171875,-1.3683700561523438,-1.1110432147979736,0.13484445214271545
1761330862977508400,4.43550830078125,-1.7301545143127441,-0.7498593330383301,0.3080320656299591
1761330862996209400,4.45420947265625,-1.9553027153015137,-0.4675145149230957,0.43411898612976074
1761330863014910200,4.47291015625,-2.097181797027588,-0.4182460308074951,0.32544273138046265
1761330863033611300,4.491611328125,-2.0478267669677734,-0.372511625289917,0.25271186232566833
1761330863052312000,4.51031201171875,-1.9682197570800781,-0.2452549934387207,0.28815799951553345
1761330863071013000,4.52901318359375,-1.6902313232421875,-0.2895164489746094,0.19068777561187744
1761330863089714000,4.5477138671875,-1.2470436096191406,-0.17638659477233887,-0.020133763551712036
1761330863108414700,4.566414794921875,-0.6448163986206055,0.009359598159790039,-0.07782086730003357
1761330863127115800,4.58511572265625,-0.537837028503418,0.07739949226379395,0.09425027668476105
1761330863145816600,4.603816650390625,-0.6310558319091797,0.13867974281311035,0.34733259677886963
1761330863164517600,4.622517578125,-0.3406944274902344,0.16672348976135254,0.4715176820755005
1761330863183218400,4.641218505859375,0.10151958465576172,0.22396135330200195,0.20111553370952606
1761330863201919500,4.65991943359375,0.4098539352416992,0.3307013511657715,0.061078399419784546
1761330863220620300,4.678620361328125,0.42808055877685547,0.4215884208679199,0.2781961262226105
1761330863239321300,4.6973212890625,0.5581254959106445,0.530869722366333,0.2817186415195465
1761330863258022100,4.716022216796875,0.5959577560424805,0.6267855167388916,-0.016741693019866943
1761330863276723000,4.734722900390625,0.753809928894043,0.4954204559326172,-0.3523308336734772
1761330863295424000,4.753424072265625,1.621445655822754,0.32361364364624023,-0.8700425624847412
1761330863314125000,4.772125,3.13559627532959,0.5003299713134766,-1.7107741832733154
1761330863332825900,4.790825927734375,2.8918066024780273,0.8753345012664795,-1.4600715637207031
1761330863351527000,4.80952685546875,2.311802864074707,0.7611966133117676,-0.5171374082565308
1761330863370227700,4.828227783203125,2.450592041015625,0.6220335960388184,-0.27576500177383423
1761330863388928500,4.846928466796875,2.666388511657715,0.4021615982055664,-0.8401827812194824
1761330863407629600,4.865629638671875,2.5459423065185547,-0.03001117706298828,-1.5004462003707886
1761330863426330400,4.884330322265625,1.7793073654174805,-0.6927509307861328,-1.3889777660369873
1761330863445031400,4.903031494140625,0.6874866485595703,-1.4532153606414795,-0.35753679275512695
1761330863463732200,4.921732177734375,-0.2751331329345703,-1.9333703517913818,0.4757201671600342
1761330863482433300,4.940433349609375,-0.9308614730834961,-1.9510416984558105,1.0303353071212769
1761330863501134000,4.959134033203125,-1.2905826568603516,-1.4837992191314697,1.2384006977081299
1761330863519835000,4.9778349609375,-1.70064115524292,-1.088564395904541,0.9069140553474426
1761330863538536000,4.996535888671875,-1.9473037719726562,-0.9939069747924805,0.46981221437454224
1761330863557237000,5.015237060546875,-2.0348596572875977,-0.9118738174438477,0.2881750166416168
1761330863575937800,5.033937744140625,-1.8488264083862305,-0.832589864730835,0.3192133903503418
1761330863594638600,5.052638671875,-1.7370991706848145,-0.83327317237854,0.46372461318969727
1761330863613339600,5.071339599609375,-1.7746715545654297,-0.7371094226837158,0.5202001333236694
1761330863632040400,5.09004052734375,-1.9130806922912598,-0.646522045135498,0.44711440801620483
1761330863650741500,5.108741455078125,-1.9071002006530762,-0.37763190269470215,0.0657087117433548
1761330863669442600,5.127442626953125,-1.7583837509155273,-0.244218111038208,-0.5057822465896606
1761330863688143400,5.146143310546875,-1.4937286376953125,-0.12473583221435547,-1.0464222431182861
1761330863706844200,5.16484423828125,-1.1321544647216797,0.08737039566040039,-1.272004246711731
1761330863725545200,5.183545166015625,-0.9225597381591797,0.33243656158447266,-1.1579698324203491
1761330863744246000,5.20224609375,-0.4013090133666992,0.5643277168273926,-1.04716157913208
1761330863762947000,5.220947021484375,0.11474227905273438,0.6826066970825195,-0.8987330794334412
1761330863781648000,5.23964794921875,0.2449026107788086,0.8754057884216309,-0.7669810652732849
1761330863800349000,5.258348876953125,0.13397216796875,1.1239287853240967,-0.7750508189201355
1761330863819049700,5.2770498046875,-0.04995155334472656,1.245077133178711,-0.5455098152160645
1761330863837750800,5.295750732421875,-0.2535543441772461,1.2973999977111816,-0.17146795988082886
1761330863856451600,5.31445166015625,0.008647918701171875,1.5026249885559082,0.10703986138105392
1761330863875152600,5.333152587890625,0.8245601654052734,1.5117712020874023,0.3695440888404846
1761330863893853400,5.351853515625,2.3770666122436523,1.0936164855957031,0.6499639749526978
1761330863912554500,5.370554443359375,4.071719169616699,1.4473848342895508,0.9745186567306519
1761330863931255300,5.38925537109375,3.846586227416992,2.3887081146240234,0.970639705657959
1761330863949956400,5.407956298828125,3.0591554641723633,1.9744248390197754,1.4271016120910645
1761330863968657200,5.4266572265625,2.923389434814453,0.8798093795776367,1.126386284828186
1761330863987358000,5.44535791015625,3.7960281372070312,-0.652745246887207,0.7308082580566406
1761330864006059000,5.46405908203125,3.839262008666992,-2.0733420848846436,0.75607830286026
1761330864024759800,5.482759765625,2.6594953536987305,-2.4148106575012207,0.7587318420410156
1761330864043460900,5.5014609375,1.2877168655395508,-2.103114604949951,0.15894165635108948
1761330864062162000,5.520161865234375,0.13684940338134766,-2.2075843811035156,-0.24159611761569977
1761330864080862700,5.53886279296875,-0.9775094985961914,-2.1259713172912598,-0.3871448040008545
1761330864099563800,5.557563720703125,-2.079662322998047,-1.971719741821289,-0.37685418128967285
1761330864118264600,5.5762646484375,-2.543102264404297,-1.9338064193725586,-0.3217035233974457
1761330864136965400,5.59496533203125,-2.5515432357788086,-1.9356603622436523,-0.3446669578552246
1761330864155666400,5.61366650390625,-2.151911735534668,-1.8513541221618652,-0.6273353099822998
1761330864174367200,5.6323671875,-1.7842020988464355,-1.53755784034729,-1.1305797100067139
1761330864193068300,5.651068359375,-1.5994482040405273,-1.4401473999023438,-1.2285611629486084
1761330864211769000,5.66976904296875,-2.06948184967041,-1.1795358657836914,-0.9639521837234497
1761330864230470100,5.68847021484375,-2.6519479751586914,-0.7825818061828613,-0.513903796672821
1761330864249171200,5.707171142578125,-2.9702954292297363,-0.41669178009033203,-0.3066351115703583
1761330864267872000,5.7258720703125,-2.954570770263672,-0.1196446418762207,-0.2785424590110779
1761330864286573000,5.744572998046875,-2.6723551750183105,0.030974864959716797,0.0008936226367950439
1761330864305273900,5.76327392578125,-2.0763182640075684,0.0734105110168457,0.5312246084213257
1761330864323974700,5.781974609375,-1.287022590637207,0.13104462623596191,0.78298020362854
1761330864342675700,5.80067578125,-0.22738075256347656,0.31043434143066406,0.5976070761680603
1761330864361376500,5.81937646484375,0.7981138229370117,0.4453120231628418,0.4060164988040924
1761330864380077600,5.83807763671875,1.5659198760986328,0.6021349430084229,0.4738257825374603
1761330864398778400,5.8567783203125,2.0206871032714844,0.6383843421936035,0.5295921564102173
1761330864417479400,5.8754794921875,2.0411529541015625,0.6424391269683838,0.46528130769729614
1761330864436180200,5.89418017578125,1.5757989883422852,0.6704683303833008,0.21942728757858276
1761330864454881300,5.91288134765625,0.8779916763305664,0.97039794921875,-0.19569683074951172
1761330864473582300,5.931582275390625,0.052865028381347656,1.5665745735168457,-0.432464599609375
1761330864492283100,5.950283203125,-0.11806011199951172,1.9970040321350098,-0.30654531717300415
1761330864510984200,5.968984130859375,0.7198343276977539,1.5677878856658936,-0.0619303435087204
1761330864529685000,5.98768505859375,2.2876157760620117,0.7332563400268555,0.09289312362670898
1761330864548386000,6.006385986328125,3.505800247192383,0.7206425666809082,-0.01614511013031006
1761330864567086800,6.0250869140625,3.890303611755371,0.4802515506744385,-0.02118051052093506
1761330864585787600,6.04378759765625,3.7328100204467773,0.2140207290649414,-0.19291824102401733
1761330864604488700,6.06248876953125,3.5244035720825195,-0.23383712768554688,-0.45608294010162354
1761330864623189500,6.081189453125,3.181446075439453,-0.9324426651000977,-0.6756935119628906
1761330864641890600,6.099890625,1.887899398803711,-1.4463000297546387,-0.257699191570282
1761330864660591600,6.118591552734375,0.3362264633178711,-1.7855534553527832,0.5933243036270142
1761330864679292400,6.13729248046875,-0.6237049102783203,-1.9309751987457275,1.1335737705230713
1761330864697993500,6.155993408203125,-0.8597660064697266,-1.8351736068725586,1.2526371479034424
1761330864716694300,6.1746943359375,-0.8255414962768555,-1.4682626724243164,1.2310221195220947
1761330864735395300,6.193395263671875,-0.9234132766723633,-1.2609162330627441,1.373213529586792
1761330864754096000,6.21209619140625,-1.3292255401611328,-1.1705560684204102,1.6173851490020752
1761330864772797200,6.230797119140625,-1.769540786743164,-1.1012120246887207,1.8217754364013672
1761330864791498000,6.249498046875,-1.9419174194335938,-1.0524230003356934,1.991907000541687
1761330864810199000,6.268198974609375,-1.8861751556396484,-1.085015058517456,1.9816690683364868
1761330864828899800,6.28689990234375,-1.748702049255371,-1.0606794357299805,1.7360893487930298
1761330864847601000,6.305600830078125,-1.5977821350097656,-0.8890438079833984,1.0050599575042725
1761330864866301700,6.3243017578125,-1.6371164321899414,-0.6338474750518799,0.3569842576980591
1761330864885002800,6.343002685546875,-1.775777816772461,-0.46082639694213867,-0.04374665021896362
1761330864903703800,6.361703857421875,-1.869349479675293,-0.3858833312988281,-0.2276012897491455
1761330864922404600,6.380404541015625,-1.8380441665649414,-0.296536922454834,-0.0944119393825531
1761330864941105400,6.39910546875,-1.4357719421386719,-0.10350322723388672,-0.0013771653175354004
1761330864959806500,6.417806396484375,-0.6729230880737305,0.13820362091064453,-0.07565435767173767
1761330864978507300,6.43650732421875,0.0069026947021484375,0.33595728874206543,-0.05859997868537903
1761330864997208300,6.455208251953125,0.5214004516601562,0.39143872261047363,-0.001843184232711792
1761330865015909000,6.4739091796875,0.8159904479980469,0.3461906909942627,0.023321956396102905
1761330865034610200,6.492610107421875,0.8029565811157227,0.3668184280395508,0.10988631099462509
1761330865053311000,6.51131103515625,0.20702743530273438,0.49666690826416016,0.11147633194923401
1761330865072012000,6.530011962890625,-0.3325920104980469,0.712066650390625,0.4211055040359497
1761330865090712800,6.548712890625,-0.3783588409423828,0.6669034957885742,0.7456793189048767
1761330865109414000,6.567413818359375,0.10561847686767578,0.3593418598175049,0.9423628449440002
1761330865128115000,6.586114990234375,1.2738800048828125,0.04781699180603027,1.0097055435180664
1761330865146815700,6.604815673828125,3.001699447631836,0.11404943466186523,0.9423881769180298
1761330865165516800,6.623516845703125,4.047183990478516,0.4027414321899414,1.0727612972259521
1761330865184217600,6.642217529296875,3.3459930419921875,1.406053066253662,1.3969494104385376
1761330865202918700,6.660918701171875,1.7725715637207031,1.5479822158813477,1.5958824157714844
1761330865221619500,6.679619384765625,1.1580018997192383,0.45900487899780273,2.333235263824463
1761330865240320500,6.698320556640625,1.2764787673950195,-0.6614012718200684,2.6708879470825195
1761330865259021300,6.717021240234375,1.149907112121582,-0.9840669631958008,2.6182913780212402
1761330865277722400,6.735722412109375,0.8887910842895508,-1.3535561561584473,2.3516080379486084
1761330865296423200,6.754423095703125,0.8620157241821289,-1.703721523284912,2.7504537105560303
1761330865315124200,6.773124267578125,1.2508869171142578,-2.0546951293945312,3.009967088699341
1761330865333825000,6.791824951171875,1.3677453994750977,-2.2460548877716064,2.8293614387512207
1761330865352526000,6.810526123046875,0.8379106521606445,-2.4066162109375,2.7155508995056152
1761330865371227100,6.82922705078125,0.09209728240966797,-2.5070548057556152,2.3732542991638184
1761330865389928000,6.847927978515625,-0.39804840087890625,-2.3641104698181152,1.5832431316375732
1761330865408629000,6.86662890625,-0.6726675033569336,-2.168890953063965,0.8870530128479004
1761330865427329800,6.885329833984375,-0.9058361053466797,-2.0796048641204834,0.6242018938064575
1761330865446030800,6.90403076171875,-1.0425024032592773,-2.0529861450195312,0.6822960376739502
1761330865464731600,6.922731689453125,-1.3111467361450195,-1.9027748107910156,1.1186447143554688
1761330865483432700,6.9414326171875,-1.4964218139648438,-1.6422812938690186,1.1853268146514893
1761330865502133500,6.960133544921875,-1.7948641777038574,-1.2132468223571777,1.0250295400619507
1761330865520834600,6.97883447265625,-1.827314853668213,-0.8354146480560303,0.8547942638397217
1761330865539535400,6.997535400390625,-1.6260509490966797,-0.541144609451294,0.5498251914978027
1761330865558236400,7.016236328125,-1.1979541778564453,-0.475553035736084,0.5369455814361572
1761330865576937200,7.034937255859375,-0.8224830627441406,-0.41338014602661133,0.5402765870094299
1761330865595638300,7.05363818359375,-0.3390169143676758,-0.35310935974121094,0.6165866851806641
1761330865614339300,7.07233935546875,0.12615013122558594,-0.29134058952331543,0.6869250535964966
1761330865633040100,7.0910400390625,0.4513711929321289,-0.09414887428283691,0.5866323709487915
1761330865651741200,7.1097412109375,0.6049613952636719,0.12627720832824707,0.5357742309570312
1761330865670442000,7.12844189453125,0.6250267028808594,0.4049088954925537,0.4007226526737213
1761330865689143000,7.14714306640625,0.8892440795898438,0.7994983196258545,0.35540956258773804
1761330865707843800,7.16584375,1.4058876037597656,1.123157262802124,-0.010690867900848389
1761330865726545000,7.184544921875,1.7748260498046875,1.5903127193450928,-0.7405552268028259
1761330865745245700,7.20324560546875,1.8187942504882812,1.7623791694641113,-1.0767128467559814
1761330865763946800,7.22194677734375,1.6200485229492188,1.4905693531036377,-1.1209208965301514
1761330865782647600,7.2406474609375,1.6686677932739258,1.0660271644592285,-0.9231022596359253
1761330865801348600,7.2593486328125,2.05844783782959,0.9286191463470459,-1.0500426292419434
1761330865820049400,7.27804931640625,2.5392656326293945,0.6179606914520264,-1.7693825960159302
1761330865838750500,7.29675048828125,3.163144111633301,0.2626075744628906,-2.4036386013031006
1761330865857451500,7.315451416015625,2.9946508407592773,0.27088046073913574,-2.298297882080078
1761330865876152300,7.33415234375,1.944655418395996,0.41290712356567383,-1.7894227504730225
1761330865894853400,7.352853271484375,0.7499876022338867,0.15116190910339355,-0.9488766193389893
1761330865913554200,7.37155419921875,0.19845962524414062,-0.34499382972717285,0.03821289539337158
1761330865932255200,7.390255126953125,0.16314315795898438,-0.8004300594329834,0.8780169486999512
1761330865950956000,7.4089560546875,0.07701778411865234,-0.9168746471405029,1.3277697563171387
1761330865969657000,7.427656982421875,-0.3564777374267578,-0.7233929634094238,1.4353280067443848
1761330865988358000,7.44635791015625,-0.9521389007568359,-0.38747143745422363,0.9736236333847046
1761330866007059000,7.465058837890625,-1.3186330795288086,-0.07699775695800781,0.11991119384765625
1761330866025759700,7.483759765625,-1.2500371932983398,-0.17315101623535156,-0.20697057247161865
1761330866044460800,7.502460693359375,-1.0430965423583984,-0.42982053756713867,-0.007783293724060059
1761330866063161900,7.521161865234375,-0.6032304763793945,-0.6796116828918457,-0.0777965784072876
1761330866081862700,7.539862548828125,-0.18474197387695312,-0.684807300567627,-0.20782411098480225
1761330866100563700,7.558563720703125,-0.2710714340209961,-0.562443733215332,-0.2804602384567261
1761330866119264500,7.577264404296875,-0.6002397537231445,-0.2954239845275879,-0.46016329526901245
1761330866137965600,7.595965576171875,-1.1202597618103027,-0.14605259895324707,-0.5925775766372681
1761330866156666400,7.614666259765625,-1.511138916015625,0.1045079231262207,-0.6293671131134033
1761330866175367400,7.633367431640625,-1.8773884773254395,0.13772106170654297,-0.7151365876197815
1761330866194068500,7.652068359375,-2.30501651763916,0.05551767349243164,-0.6344972848892212
1761330866212769300,7.670769287109375,-2.511725425720215,0.014687538146972656,-0.43526899814605713
1761330866231470300,7.68947021484375,-2.1734862327575684,0.10277271270751953,-0.44131866097450256
1761330866250171100,7.708171142578125,-1.522752285003662,0.07070660591125488,-0.38210129737854004
1761330866268872200,7.7268720703125,-0.6470727920532227,0.20155882835388184,0.4727703928947449
1761330866287573000,7.745572998046875,-0.1784954071044922,-0.27789902687072754,0.2206575572490692
1761330866306274000,7.764274169921875,-0.11266231536865234,-0.33913516998291016,-0.3557162880897522
1761330866324974800,7.782974853515625,-0.1359882354736328,-0.17144298553466797,-0.589890718460083
1761330866343676000,7.801676025390625,-0.08921146392822266,-0.03083038330078125,-0.6504566669464111
1761330866362376700,7.820376708984375,-0.08974742889404297,0.018522024154663086,-0.6112380623817444
1761330866381077800,7.839077880859375,-0.5468082427978516,0.3360934257507324,-0.4382908046245575
1761330866399778600,7.857778564453125,-0.6601572036743164,1.078080654144287,-0.3409312963485718
1761330866418479600,7.876479736328125,-0.21468257904052734,1.5288357734680176,-0.3853273391723633
1761330866437180700,7.8951806640625,0.27493762969970703,1.7970871925354004,0.35401976108551025
1761330866455881500,7.913881591796875,0.5755386352539062,1.6543426513671875,0.7023473381996155
1761330866474582500,7.93258251953125,1.2442312240600586,1.969703197479248,1.2994076013565063
1761330866493283300,7.951283447265625,1.6416540145874023,2.533663272857666,1.6857354640960693
1761330866511984400,7.969984375,1.4914379119873047,2.000715494155884,1.51468825340271
1761330866530685200,7.988685302734375,1.9979791641235352,0.869969367980957,1.0454063415527344
1761330866549386200,8.00738623046875,3.0307703018188477,-0.252133846282959,0.824694037437439
1761330866568087000,8.026087158203126,3.885793685913086,-1.2540290355682373,1.154088020324707
1761330866586788000,8.0447880859375,3.6833419799804688,-2.1165761947631836,1.7752959728240967
1761330866605489000,8.063489013671875,2.6064577102661133,-2.616668701171875,2.219320297241211
1761330866624190000,8.08218994140625,1.2013225555419922,-2.5663766860961914,2.0699191093444824
1761330866642890800,8.100890869140626,-0.16291236877441406,-2.252119302749634,1.5989354848861694
1761330866661591800,8.119591796875,-0.9910430908203125,-1.8034076690673828,1.1439080238342285
1761330866680292900,8.13829296875,-1.515467643737793,-1.3132550716400146,0.2623276114463806
1761330866698993700,8.15699365234375,-1.8346595764160156,-0.9803817272186279,-0.3940752148628235
1761330866717694700,8.17569482421875,-1.6808815002441406,-0.8180196285247803,-0.951441764831543
1761330866736395500,8.1943955078125,-1.2266449928283691,-0.7348191738128662,-1.0694739818572998
1761330866755096600,8.2130966796875,-0.8363628387451172,-0.6603236198425293,-0.8440751433372498
1761330866773797600,8.231797607421875,-0.848912239074707,-0.6099307537078857,-0.5635555982589722
1761330866792498400,8.25049853515625,-1.4399456977844238,-0.5506150722503662,-0.4548414647579193
1761330866811199500,8.269199462890626,-2.1116504669189453,-0.40854930877685547,-0.3905772566795349
1761330866829900300,8.287900390625,-2.2776365280151367,-0.21287322044372559,-0.36946022510528564
1761330866848601300,8.306601318359375,-2.2118730545043945,-0.09284591674804688,-0.446868896484375
1761330866867302100,8.32530224609375,-1.9592905044555664,-0.16997599601745605,-0.2588321268558502
1761330866886003200,8.344003173828124,-1.5931787490844727,-0.2783834934234619,-0.010200157761573792
1761330866904704000,8.3627041015625,-1.2489681243896484,-0.14838123321533203,0.08432352542877197
1761330866923405000,8.381405029296875,-1.0171689987182617,0.06086850166320801,0.010164335370063782
1761330866942105900,8.40010595703125,-0.8221769332885742,0.2133474349975586,-0.3942858576774597
1761330866960807000,8.418806884765624,-0.5459833145141602,0.25428080558776855,-0.4489688277244568
1761330866979508000,8.437508056640626,-0.11378097534179688,0.2922515869140625,-0.28196775913238525
1761330866998208800,8.456208740234375,0.0647735595703125,0.5073754787445068,-0.5605881810188293
1761330867016909800,8.474909912109375,0.1930370330810547,0.776944637298584,-0.8322644233703613
1761330867035610600,8.493610595703124,0.42399120330810547,1.0037250518798828,-0.8116782903671265
1761330867054311700,8.512311767578124,0.8327512741088867,1.0044751167297363,-0.7873764634132385
1761330867073012500,8.531012451171875,1.7366342544555664,0.7834482192993164,-0.7179114818572998
1761330867091713500,8.549713623046875,2.8056955337524414,0.45984935760498047,-0.6870102882385254
1761330867110414300,8.568414306640625,3.2748794555664062,0.49127984046936035,-0.7552406787872314
1761330867129115400,8.587115478515624,2.4595251083374023,1.0327332019805908,-0.9959246516227722
1761330867147816200,8.605816162109376,1.7709779739379883,0.801459550857544,-1.6244301795959473
1761330867166517200,8.624517333984375,1.8830747604370117,0.28780174255371094,-2.1826138496398926
1761330867185218000,8.643218017578125,2.302957534790039,-0.3958141803741455,-2.3697450160980225
1761330867203919000,8.661919189453124,2.31534481048584,-1.0862233638763428,-2.3848347663879395
1761330867222620200,8.6806201171875,1.4703178405761719,-1.518099308013916,-1.931064486503601
1761330867241321000,8.699321044921875,0.4189605712890625,-1.6350815296173096,-1.4404306411743164
1761330867260022000,8.71802197265625,-0.05162525177001953,-1.6656720638275146,-1.2409439086914062
1761330867278722800,8.736722900390625,-0.01652050018310547,-1.548680067062378,-1.3507757186889648
1761330867297424000,8.755423828125,-0.21905040740966797,-1.1609013080596924,-1.6251894235610962
1761330867316124700,8.774124755859376,-0.8635292053222656,-0.7491967678070068,-1.8977749347686768
1761330867334825700,8.79282568359375,-1.6483383178710938,-0.5189828872680664,-1.7560521364212036
1761330867353526500,8.811526611328125,-2.1178436279296875,-0.4748976230621338,-1.55003821849823
1761330867372227600,8.8302275390625,-2.0578317642211914,-0.4091362953186035,-1.0474283695220947
1761330867390928400,8.848928466796876,-1.6945323944091797,-0.4068937301635742,-0.5865353345870972
1761330867409629400,8.86762939453125,-1.4563899040222168,-0.45304226875305176,-0.08481937646865845
1761330867428330200,8.886330322265625,-1.4438886642456055,-0.22258210182189941,0.0061133503913879395
1761330867447031300,8.90503125,-1.687239646911621,0.08056259155273438,-0.351149320602417
1761330867465732400,8.923732421875,-1.9264335632324219,0.07101774215698242,-0.7015453577041626
1761330867484433200,8.94243310546875,-1.9711179733276367,-0.08806490898132324,-0.8065394163131714
1761330867503134200,8.96113427734375,-1.6110167503356934,-0.23190951347351074,-0.6860975623130798
1761330867521835300,8.979835205078125,-0.9122476577758789,-0.2997868061065674,-0.6133006811141968
1761330867540536000,8.9985361328125,-0.17699718475341797,0.04526925086975098,-0.7223207950592041
1761330867559237000,9.017237060546876,0.3573646545410156,0.4903273582458496,-0.9201827049255371
1761330867577938000,9.03593798828125,0.5145778656005859,0.8683681488037109,-0.8634665608406067
1761330867596639000,9.054638916015625,0.18114471435546875,1.1919493675231934,-0.4061351716518402
1761330867615339800,9.07333984375,-0.08235740661621094,1.3606793880462646,0.24577701091766357
1761330867634040800,9.092040771484376,0.14351749420166016,1.3533222675323486,0.8525420427322388
1761330867652741600,9.11074169921875,0.5628595352172852,1.3892953395843506,0.9076896905899048
1761330867671442700,9.129442626953125,0.7690935134887695,1.348975419998169,0.20098373293876648
1761330867690143500,9.1481435546875,1.7243852615356445,1.239703893661499,-0.3287275731563568
1761330867708844500,9.166844482421874,3.216494560241699,1.5523450374603271,-0.22719945013523102
1761330867727545300,9.18554541015625,3.291895866394043,2.0244812965393066,0.3656696081161499
1761330867746246400,9.204246337890625,2.6000566482543945,1.2820804119110107,0.7172773480415344
1761330867764947500,9.222947509765625,2.867534637451172,-0.08534479141235352,0.4573393762111664
1761330867783648300,9.241648193359374,3.773383140563965,-1.3377755880355835,0.056497424840927124
1761330867802349300,9.260349365234376,3.785017967224121,-1.7455763816833496,-0.3545481860637665
1761330867821050000,9.279050048828125,2.498373031616211,-1.6406528949737549,-0.3941730260848999
1761330867839751200,9.297751220703125,0.8182773590087891,-1.4868075847625732,-0.11786019802093506
1761330867858452000,9.316451904296875,-0.4410514831542969,-1.3870737552642822,-0.009737655520439148
1761330867877153000,9.335153076171874,-1.123438835144043,-1.254220962524414,-0.07363013178110123
1761330867895853800,9.353853759765625,-1.4936494827270508,-0.9787359237670898,-0.6134560704231262
1761330867914555000,9.372554931640625,-1.6070785522460938,-0.867520809173584,-1.1231136322021484
1761330867933255700,9.391255615234375,-1.518369197845459,-0.9205539226531982,-1.1508190631866455
1761330867951956700,9.409956787109374,-1.1588191986083984,-1.1089999675750732,-0.8870865106582642
1761330867970657500,9.428657470703126,-0.9371814727783203,-1.0701518058776855,-0.647857666015625
1761330867989358600,9.447358642578125,-1.208845615386963,-0.7858576774597168,-0.2036248743534088
1761330868008059400,9.466059326171875,-1.8510932922363281,-0.591569185256958,0.2117759734392166
1761330868026760400,9.484760498046874,-2.3655800819396973,-0.37798643112182617,0.4715360403060913
1761330868045461500,9.50346142578125,-2.564976692199707,-0.17917776107788086,0.40735819935798645
1761330868064162300,9.522162353515625,-2.314192771911621,0.025940895080566406,0.34038037061691284
1761330868082863000,9.540863037109375,-1.7426352500915527,0.11411738395690918,0.14073532819747925
1761330868101564200,9.559564208984375,-1.1113519668579102,0.1497950553894043,-0.09324759244918823
1761330868120265000,9.578264892578124,-0.4522857666015625,0.21034526824951172,-0.023220598697662354
1761330868138966000,9.596966064453126,-0.045233726501464844,0.41336774826049805,0.06266665458679199
1761330868157666800,9.615666748046875,0.023128509521484375,0.5167627334594727,0.10774904489517212
1761330868176367900,9.634367919921875,-0.08937644958496094,0.5976729393005371,0.1042545735836029
1761330868195068700,9.653068603515624,-0.06720447540283203,0.6995282173156738,0.1419660449028015
1761330868213769700,9.671769775390626,0.05464935302734375,0.6815447807312012,0.06546616554260254
1761330868232470800,9.690470703125,0.03683948516845703,0.6340718269348145,-0.05304372310638428
1761330868251171600,9.709171630859375,0.06740474700927734,0.8488953113555908,-0.21486863493919373
1761330868269872600,9.72787255859375,-0.0652914047241211,1.0536155700683594,-0.41489410400390625
1761330868288573400,9.746573486328124,-0.19504451751708984,0.9572935104370117,-0.42176389694213867
1761330868307274500,9.7652744140625,0.4890918731689453,0.5380954742431641,-0.45265692472457886
1761330868325975300,9.783975341796875,1.7328920364379883,0.3583524227142334,-0.5713900923728943
1761330868344676400,9.80267626953125,2.0705108642578125,1.0798864364624023,-0.8175792694091797
1761330868363377200,9.821377197265624,1.5717477798461914,0.7914152145385742,-0.9694188237190247
1761330868382078200,9.840078125,1.68255615234375,0.3406186103820801,-1.456284523010254
1761330868400779000,9.858779052734375,2.348799705505371,0.03772115707397461,-2.0554230213165283
1761330868419480000,9.87747998046875,2.713738441467285,-0.36618709564208984,-2.4675440788269043
1761330868438180900,9.896180908203124,1.8291130065917969,-0.7032334804534912,-2.1719915866851807
1761330868456882000,9.9148818359375,0.8925094604492188,-0.9581670761108398,-1.5326502323150635
1761330868475583000,9.9335830078125,0.8021583557128906,-1.4338414669036865,-1.0909695625305176
1761330868494283800,9.95228369140625,1.1017637252807617,-1.6120431423187256,-0.7252030968666077
1761330868512984800,9.97098486328125,0.9277467727661133,-1.3838059902191162,-0.5385518670082092
1761330868531685600,9.989685546875,0.2081918716430664,-0.9675071239471436,-0.5507219433784485
1761330868550386700,10.00838671875,-0.8993082046508789,-0.7145662307739258,-0.446971595287323
1761330868569087500,10.02708740234375,-1.8604717254638672,-0.7242670059204102,-0.12743380665779114
1761330868587788500,10.04578857421875,-2.3017287254333496,-0.6763842105865479,0.37904250621795654
1761330868606489300,10.0644892578125,-2.329108238220215,-0.5278122425079346,0.6922043561935425
1761330868625190400,10.0831904296875,-2.204798698425293,-0.361706018447876,0.48153066635131836
1761330868643891200,10.10189111328125,-2.1856679916381836,-0.2968437671661377,0.21550700068473816
1761330868662592000,10.120592041015625,-2.163022994995117,-0.21776914596557617,-0.17636695504188538
1761330868681293000,10.13929296875,-2.00931453704834,-0.12484073638916016,-0.871911883354187
1761330868699994000,10.157994140625,-1.6870856285095215,-0.1789863109588623,-1.1861242055892944
1761330868718695000,10.17669482421875,-1.1699333190917969,-0.22366070747375488,-1.125416874885559
1761330868737396000,10.19539599609375,-0.7047586441040039,-0.23854565620422363,-0.8290770649909973
1761330868756096800,10.2140966796875,-0.33860015869140625,-0.051805973052978516,-0.5699812173843384
1761330868774797800,10.2327978515625,-0.18230915069580078,0.3375992774963379,-0.4672360420227051
1761330868793498600,10.25149853515625,-0.4146242141723633,0.7811098098754883,-0.4699682295322418
1761330868812199700,10.27019970703125,-0.33465576171875,1.0254225730895996,-0.09324297308921814
1761330868830900500,10.288900390625,-1.0775747299194336,1.1196134090423584,0.26706671714782715
1761330868849601500,10.3076015625,-1.1395025253295898,1.2425482273101807,0.5516008138656616
1761330868868302300,10.32630224609375,-0.08066558837890625,1.457221508026123,0.20307892560958862
