time,seconds_elapsed,z,y,x
1761330858602590000,0.06058984375,8.568697929382324,4.843072891235352,0.15314064919948578
1761330858621290800,0.079290771484375,8.776873588562012,4.780859470367432,0.20338992774486542
1761330858639991600,0.097991455078125,8.839086532592773,4.467400074005127,0.21774685382843018
1761330858658692600,0.116692626953125,8.772088050842285,4.453042984008789,0.22971096634864807
1761330858677393400,0.135393310546875,8.877371788024902,4.479363918304443,0.1866401731967926
1761330858696094200,0.15409423828125,8.925228118896484,4.390829563140869,0.3038884699344635
1761330858714795300,0.172795166015625,8.628518104553223,4.426722049713135,0.31824541091918945
1761330858733496000,0.19149609375,8.343772888183594,4.481756687164307,0.28953152894973755
1761330858752196900,0.21019677734375,8.185846328735352,4.460221290588379,0.28953152894973755
1761330858770898000,0.22889794921875,8.166703224182129,4.589433670043945,0.34695929288864136
1761330858789598700,0.2475986328125,8.585447311401367,4.479363918304443,0.37088751792907715
1761330858808299500,0.266299560546875,9.040083885192871,4.240081787109375,0.6508477330207825
1761330858827000600,0.28500048828125,9.028120040893555,4.012763500213623,0.9068797826766968
1761330858845701400,0.303701416015625,9.159725189208984,3.924229145050049,0.763310432434082
1761330858864402200,0.322402099609375,9.42054271697998,4.108476638793945,0.4737788736820221
1761330858883103200,0.341103271484375,9.485149383544922,4.223331928253174,1.093519926071167
1761330858901804000,0.359803955078125,9.138189315795898,4.29033088684082,1.5792629718780518
1761330858920504800,0.3785048828125,9.011369705200195,4.309473514556885,1.9070796966552734
1761330858939206000,0.397205810546875,9.255437850952148,4.42193603515625,1.648654818534851
1761330858957906700,0.41590673828125,9.07119083404541,4.467400074005127,1.2275179624557495
1761330858976607500,0.434607421875,8.973084449768066,4.575077056884766,0.97148597240448
1761330858995308500,0.45330859375,9.09272575378418,4.823930263519287,0.851844847202301
1761330859014009300,0.47200927734375,8.989834785461426,4.895715236663818,0.8470591902732849
1761330859032710100,0.490710205078125,9.142974853515625,4.9363932609558105,0.5862415432929993
1761330859051411200,0.5094111328125,9.20997428894043,4.9986066818237305,0.41156548261642456
1761330859070112000,0.528112060546875,8.85344409942627,4.960321426391602,0.34695929288864136
1761330859088812800,0.546812744140625,8.193024635314941,4.555934429168701,0.9571290612220764
1761330859107513900,0.565513916015625,7.537391185760498,4.41475772857666,1.2801600694656372
1761330859126214700,0.584214599609375,7.190432071685791,4.417150497436523,1.2275179624557495
1761330859144915500,0.60291552734375,7.0301127433776855,4.299902439117432,1.038485050201416
1761330859163616500,0.621616455078125,7.001399040222168,4.192225456237793,0.9547362327575684
1761330859182317300,0.6403173828125,7.401000499725342,4.091726779937744,0.7513462901115417
1761330859201018000,0.65901806640625,7.917850017547607,4.115654945373535,0.1339980661869049
1761330859219719200,0.67771923828125,8.654839515686035,4.177868366241455,-0.46420758962631226
1761330859238420000,0.696419921875,8.769695281982422,4.113262176513672,-0.6891329288482666
1761330859257120800,0.715120849609375,8.568697929382324,4.264009952545166,-0.8470591902732849
1761330859275821800,0.73382177734375,8.458627700805664,4.500899314880371,-0.9499505758285522
1761330859294522600,0.752522705078125,8.547162055969238,4.685146808624268,-1.0145567655563354
1761330859313223400,0.771223388671875,8.606983184814453,4.534399032592773,-1.4333007335662842
1761330859331924500,0.789924560546875,8.930013656616211,4.500899314880371,-1.8616160154342651
1761330859350625300,0.808625244140625,9.501898765563965,4.677968502044678,-1.8855443000793457
1761330859369326000,0.827326171875,10.212567329406738,4.462614059448242,-2.3617160320281982
1761330859388027100,0.846027099609375,10.810772895812988,4.859822750091553,-2.8977081775665283
1761330859406728000,0.86472802734375,11.334800720214844,5.819344520568848,-1.9980069398880005
1761330859425428700,0.8834287109375,11.710474014282227,6.214160442352295,-0.8470591902732849
1761330859444129800,0.9021298828125,13.210773468017578,6.281159400939941,-1.3615161180496216
1761330859462830600,0.92083056640625,14.732608795166016,5.737988471984863,-2.1272194385528564
1761330859481531400,0.939531494140625,14.54357624053955,4.721039295196533,-2.68953275680542
1761330859500232400,0.958232421875,13.775480270385742,3.7974095344543457,-2.4095723628997803
1761330859518933200,0.976933349609375,12.658031463623047,3.352344512939453,-1.8616160154342651
1761330859537634000,0.995634033203125,11.44965648651123,3.077169895172119,-1.648654818534851
1761330859556335000,1.014335205078125,10.846665382385254,2.6177480220794678,-1.6271194219589233
1761330859575036000,1.033035888671875,10.853843688964844,2.3306093215942383,-1.6701902151107788
1761330859593736700,1.05173681640625,10.604990005493164,2.060220241546631,-1.3902299404144287
1761330859612437800,1.070437744140625,9.513862609863281,1.9094724655151367,-1.3351950645446777
1761330859631138600,1.089138671875,8.504091262817383,1.9884356260299683,-1.7180466651916504
1761330859649839400,1.10783935546875,7.561319351196289,2.2612173557281494,-1.892722725868225
1761330859668540400,1.12654052734375,6.678368091583252,2.6368906497955322,-1.6151553392410278
1761330859687241200,1.1452412109375,6.228517532348633,2.792423963546753,-1.5481562614440918
1761330859705942000,1.16394189453125,6.991827964782715,2.7014968395233154,-1.7754744291305542
1761330859724643000,1.18264306640625,7.657032489776611,2.414358139038086,-1.2610175609588623
1761330859743343900,1.20134375,8.003992080688477,2.8139593601226807,-0.6532405614852905
1761330859762044700,1.220044677734375,8.018348693847656,3.1896326541900635,-0.363709032535553
1761330859780745700,1.238745849609375,7.573283672332764,3.486342668533325,-1.3782658576965332
1761330859799446500,1.257446533203125,6.671189308166504,3.352344512939453,-2.306680917739868
1761330859818147300,1.276147216796875,5.946164131164551,3.294916868209839,-2.3090739250183105
1761330859836848400,1.294848388671875,5.795416355133057,3.4552359580993652,-2.273181438446045
1761330859855549200,1.313549072265625,5.9198431968688965,3.4719855785369873,-2.0410776138305664
1761330859874250000,1.33225,6.305087566375732,3.376272678375244,-1.820937991142273
1761330859892951000,1.350950927734375,6.831508636474609,3.696911096572876,-1.007378339767456
1761330859911651800,1.36965185546875,7.156932353973389,4.053441524505615,0.11246266216039658
1761330859930353000,1.388352783203125,7.140182971954346,4.187439441680908,0.3517449200153351
1761330859949053700,1.4070537109375,7.015756130218506,4.082155227661133,-0.5312066078186035
1761330859967754500,1.42575439453125,6.929614543914795,4.01754903793335,-1.1676974296569824
1761330859986455300,1.444455322265625,7.094718933105469,4.230510234832764,-0.9954141974449158
1761330860005156400,1.46315625,7.403393268585205,4.565505504608154,-0.5216353535652161
1761330860023857200,1.481857177734375,8.068597793579102,5.039284706115723,0.20099709928035736
1761330860042558200,1.50055810546875,9.145368576049805,5.709274768829346,0.6747759580612183
1761330860061259000,1.519259033203125,10.262816429138184,6.106483459472656,0.9044869542121887
1761330860079959800,1.537959716796875,10.88973617553711,5.9676995277404785,0.8590233325958252
1761330860098660600,1.55666064453125,11.624332427978516,5.522634506225586,0.40677985548973083
1761330860117361700,1.575361572265625,12.825529098510742,5.123033046722412,0.8566305041313171
1761330860136062500,1.5940625,13.864014625549316,4.6301116943359375,1.7276179790496826
1761330860154763500,1.612763427734375,14.103296279907227,3.87876558303833,1.7563318014144897
1761330860173464300,1.63146435546875,13.679766654968262,3.352344512939453,1.7060825824737549
1761330860192165000,1.6501650390625,12.64606761932373,2.9527430534362793,1.1700903177261353
1761330860210866200,1.6688662109375,11.990434646606445,2.00518536567688,0.9619147181510925
1761330860229567000,1.68756689453125,12.160325050354004,1.2179467678070068,0.5814558863639832
1761330860248267800,1.706267822265625,12.160325050354004,0.8781659007072449,0.040677983313798904
1761330860266968800,1.72496875,11.375478744506836,0.007178467698395252,0.3206382393836975
1761330860285669600,1.743669677734375,10.52363395690918,0.46899324655532837,0.2225325107574463
1761330860304370400,1.762370361328125,10.05703353881836,0.5647061467170715,0.6029912829399109
1761330860323071500,1.781071533203125,10.310672760009766,1.1150553226470947,0.5886343717575073
1761330860341772300,1.799772216796875,10.147960662841797,1.5170495510101318,0.9355936646461487
1761330860360473000,1.81847314453125,9.528220176696777,1.6342978477478027,1.4811571836471558
1761330860379174100,1.837174072265625,8.449056625366211,1.1341979503631592,1.6582261323928833
1761330860397875000,1.855875,7.635497093200684,1.1461620330810547,1.0959128141403198
1761330860416576000,1.874575927734375,6.829115867614746,1.852044701576233,0.24646073579788208
1761330860435276800,1.89327685546875,6.7932233810424805,2.2755744457244873,0.46420758962631226
1761330860453977600,1.9119775390625,7.219145774841309,2.3497519493103027,0.97148597240448
1761330860472678400,1.930678466796875,7.197610378265381,2.4646072387695312,1.2658032178878784
1761330860491379500,1.94937939453125,6.6831536293029785,2.4909284114837646,1.062413215637207
1761330860510080500,1.96808056640625,6.424728870391846,2.6081767082214355,0.6556333899497986
1761330860528781300,1.98678125,6.45822811126709,2.675175666809082,0.20817556977272034
1761330860547482000,2.005482177734375,6.884150981903076,2.7254250049591064,0.04785645380616188
1761330860566183000,2.024182861328125,7.262216567993164,2.7637102603912354,0.0933200865983963
1761330860584884000,2.042884033203125,7.568498134613037,2.794816732406616,0.48574298620224
1761330860603584800,2.061584716796875,7.865208148956299,2.8809585571289062,0.6436693072319031
1761330860622285800,2.080285888671875,8.166703224182129,2.988635540008545,0.6317051649093628
1761330860640986600,2.098986572265625,8.516056060791016,3.1441688537597656,0.49292147159576416
1761330860659687400,2.1176875,9.315258979797363,3.4337005615234375,-0.21774685382843018
1761330860678388500,2.136388427734375,9.824930191040039,3.6849467754364014,-0.05024927482008934
1761330860697089300,2.15508935546875,10.313065528869629,4.0319061279296875,0.32542386651039124
1761330860715790000,2.1737900390625,10.65523910522461,4.232903480529785,0.1986042857170105
1761330860734491100,2.1924912109375,11.473584175109863,4.264009952545166,0.20578274130821228
1761330860753192000,2.21119189453125,12.579068183898926,4.096512317657471,0.1459621787071228
1761330860771893000,2.22989306640625,13.713266372680664,3.9385859966278076,0.10289137065410614
1761330860790593800,2.24859375,14.242080688476562,3.5126636028289795,0.10289137065410614
1761330860809294600,2.267294677734375,14.002798080444336,2.8737800121307373,0.18424734473228455
1761330860827995400,2.285995361328125,14.0051908493042,1.6701902151107788,0.31106695532798767
1761330860846696400,2.304696533203125,14.670395851135254,0.4498506486415863,-0.01196411345154047
1761330860865397500,2.3233974609375,15.359528541564941,0.07896314561367035,-0.1459621787071228
1761330860884098300,2.342098388671875,14.624932289123535,0.16031911969184875,0.4833501875400543
1761330860902799000,2.360799072265625,12.222537994384766,0.3517449200153351,1.1150553226470947
1761330860921500000,2.3795,9.896714210510254,0.5814558863639832,1.612762451171875
1761330860940201000,2.398200927734375,8.48016357421875,0.885344386100769,1.5098711252212524
1761330860958901800,2.41690185546875,7.6474609375,1.2418749332427979,0.8398807644844055
1761330860977602800,2.435602783203125,6.908079147338867,1.1700903177261353,0.36610186100006104
1761330860996303600,2.4543037109375,6.410371780395508,1.3256237506866455,0.07896314561367035
1761330861015004400,2.47300439453125,6.297909259796143,1.6606189012527466,-0.040677983313798904
1761330861033705500,2.49170556640625,6.728617191314697,1.94297194480896,-0.11006984114646912
1761330861052406300,2.51040625,7.149754047393799,2.108076810836792,-0.41874396800994873
1761330861071107000,2.529107177734375,7.29810905456543,2.2157537937164307,-0.5575276613235474
1761330861089808100,2.54780810546875,6.951149940490723,2.4047868251800537,-0.576670229434967
1761330861108509000,2.566509033203125,6.675975322723389,2.620140790939331,-0.46420758962631226
1761330861127210000,2.5852099609375,6.558726787567139,2.610569477081299,-0.4977070987224579
1761330861145910800,2.603910888671875,6.680760860443115,2.6608188152313232,-0.3038884699344635
1761330861164611600,2.622611572265625,7.377072334289551,2.5674986839294434,-0.1579262912273407
1761330861183312600,2.641312744140625,7.75753116607666,2.5459632873535156,0
1761330861202013400,2.660013427734375,7.800601959228516,2.6536402702331543,0.038285162299871445
1761330861220714200,2.67871435546875,7.714460372924805,2.65842604637146,-0.1698904037475586
1761330861239415300,2.697415283203125,7.795815944671631,2.610569477081299,-0.6029912829399109
1761330861258116000,2.7161162109375,7.793423175811768,3.4887354373931885,0.02632104977965355
1761330861276817200,2.734817138671875,7.898707389831543,3.768695592880249,0.4785645306110382
1761330861295518000,2.75351806640625,8.334200859069824,3.964907169342041,1.4787644147872925
1761330861314218800,2.77221875,8.915657043457031,4.158725738525391,1.7419748306274414
1761330861332919800,2.790919921875,9.671789169311523,4.338187217712402,1.0959128141403198
1761330861351620600,2.80962060546875,10.676774978637695,4.59421968460083,0.6508477330207825
1761330861370321700,2.82832177734375,12.430713653564453,4.417150497436523,1.368694543838501
1761330861389022500,2.8470224609375,14.189437866210938,4.063013076782227,2.926422119140625
1761330861407723300,2.86572314453125,14.940784454345703,4.194618225097656,4.175475597381592
1761330861426424300,2.88442431640625,14.577075958251953,3.483949661254883,4.374079704284668
1761330861445125000,2.903125,13.911870956420898,2.218146562576294,2.9288148880004883
1761330861463826000,2.921825927734375,13.653446197509766,0.9523434042930603,2.0195422172546387
1761330861482527000,2.94052685546875,14.184652328491211,0.4426721930503845,1.643869161605835
1761330861501227800,2.959227783203125,14.32582950592041,0.38285163044929504,1.5553346872329712
1761330861519928800,2.9779287109375,13.210773468017578,0.5982056856155396,1.3208380937576294
1761330861538629600,2.996629638671875,11.045269012451172,1.007378339767456,0.9595218896865845
1761330861557330400,3.015330322265625,9.040083885192871,1.5337992906570435,0.7896314859390259
1761330861576031500,3.034031494140625,8.082955360412598,1.7515461444854736,0.8255237936973572
1761330861594732300,3.052732177734375,7.853243827819824,1.5601203441619873,0.9284151792526245
1761330861613433000,3.07143310546875,7.987242221832275,1.31365966796875,1.129412293434143
1761330861632134100,3.090134033203125,8.00638484954834,1.100698471069336,1.2035897970199585
1761330861650835000,3.1088349609375,7.829315662384033,1.0671988725662231,1.31365966796875
1761330861669536000,3.127535888671875,7.424928665161133,1.155733346939087,1.5002998113632202
1761330861688236800,3.14623681640625,7.051648139953613,1.337587833404541,1.4811571836471558
1761330861706937600,3.1649375,6.759724140167236,1.6534404754638672,1.6366907358169556
1761330861725638700,3.183638671875,6.63769006729126,1.8592232465744019,2.0745773315429688
1761330861744339500,3.20233935546875,6.589833736419678,1.9381862878799438,2.2444677352905273
1761330861763040500,3.22104052734375,6.563512325286865,2.0554347038269043,2.555534601211548
1761330861781741300,3.2397412109375,6.1950178146362305,2.3018953800201416,2.878565549850464
1761330861800442400,3.2584423828125,5.800201892852783,2.715853691101074,2.888136863708496
1761330861819143200,3.27714306640625,6.142375946044922,2.667997360229492,2.4502503871917725
1761330861837844000,3.295843994140625,6.723831653594971,2.4574289321899414,2.1415762901306152
1761330861856545000,3.314544921875,7.401000499725342,2.304288148880005,1.9046868085861206
1761330861875245800,3.333245849609375,8.329415321350098,2.3497519493103027,1.734796404838562
1761330861893947000,3.35194677734375,9.30329418182373,2.581855535507202,1.820937991142273
1761330861912647700,3.370647705078125,10.045069694519043,2.768495798110962,1.825723648071289
1761330861931348500,3.389348388671875,10.403992652893066,2.9623143672943115,1.8185452222824097
1761330861950049500,3.408049560546875,11.028519630432129,3.0867412090301514,2.1583259105682373
1761330861968750300,3.426750244140625,12.031112670898438,2.943171739578247,2.957528829574585
1761330861987451100,3.445451171875,11.858829498291016,3.022135019302368,3.541377544403076
1761330862006152200,3.464152099609375,11.91625690460205,3.2207393646240234,4.0319061279296875
1761330862024853000,3.48285302734375,13.081561088562012,2.7900311946868896,3.538984775543213
1761330862043554000,3.501553955078125,14.615360260009766,2.1415762901306152,2.644068956375122
1761330862062254800,3.5202548828125,15.285350799560547,2.1296122074127197,2.0410776138305664
1761330862080956000,3.538955810546875,14.55793285369873,2.249253273010254,1.3782658576965332
1761330862099656700,3.55765673828125,13.6175537109375,2.1200408935546875,0.2871387302875519
1761330862118357500,3.576357421875,12.813565254211426,1.9884356260299683,-0.2153540402650833
1761330862137058600,3.59505859375,11.645867347717285,1.8376877307891846,-0.2512463629245758
1761330862155759400,3.61375927734375,10.236495018005371,1.7156537771224976,-0.4163511395454407
1761330862174460400,3.63246044921875,9.059226989746094,1.710868239402771,-0.6747759580612183
1761330862193161200,3.6511611328125,8.484949111938477,1.8855443000793457,-0.6149554252624512
1761330862211862300,3.6698623046875,7.920242786407471,2.014756679534912,-0.4307080805301666
1761330862230563000,3.68856298828125,7.331608772277832,2.021935224533081,0.04307080805301666
1761330862249263900,3.707263916015625,6.668796539306641,2.0578274726867676,0.48095735907554626
1761330862267965000,3.72596484375,6.106483459472656,2.344966173171997,0.5024927258491516
1761330862286665700,3.744665771484375,5.996413707733154,2.56510591506958,0.17706887423992157
1761330862305366500,3.763366455078125,6.391229152679443,2.7038896083831787,0.31106695532798767
1761330862324067600,3.782067626953125,6.561119556427002,2.8522446155548096,1.1868400573730469
1761330862342768600,3.8007685546875,6.0370917320251465,2.282752752304077,1.6773686408996582
1761330862361469400,3.819469482421875,6.563512325286865,2.6297121047973633,1.8352949619293213
1761330862380170200,3.838170166015625,7.22871732711792,3.1896326541900635,1.0671988725662231
1761330862398871300,3.856871337890625,7.494320392608643,3.314059257507324,0.5527420043945312
1761330862417572000,3.875572021484375,7.671389579772949,2.9718856811523438,0.04307080805301666
1761330862436273000,3.89427294921875,8.181060791015625,3.012563705444336,0.09092725813388824
1761330862454974000,3.912973876953125,8.408378601074219,2.9862427711486816,0.24885354936122894
1761330862473674800,3.9316748046875,8.422736167907715,2.792423963546753,0.19142581522464752
1761330862492375800,3.950375732421875,8.82233715057373,2.840280532836914,0.2392822653055191
1761330862511076600,3.96907666015625,9.449256896972656,3.0101709365844727,0.2991028428077698
1761330862529777700,3.987777587890625,9.760323524475098,3.1417760848999023,0.6125625967979431
1761330862548478500,4.006478515625,9.80100154876709,3.311666488647461,1.1820544004440308
1761330862567179300,4.02517919921875,9.724431037902832,3.4791641235351562,1.306481122970581
1761330862585880300,4.04388037109375,10.1814603805542,3.88594388961792,0.7728816866874695
1761330862604581000,4.0625810546875,10.334601402282715,4.323830604553223,0.8087740540504456
1761330862623282200,4.0812822265625,10.334601402282715,4.948357105255127,0.8470591902732849
1761330862641983000,4.09998291015625,9.997213363647461,5.469992637634277,0.5599204897880554
1761330862660684000,4.11868408203125,10.430314064025879,5.319244861602783,0.7992027401924133
1761330862679384800,4.137384765625,11.267802238464355,5.00578498840332,1.4715858697891235
1761330862698085600,4.156085693359375,11.33240795135498,4.749752998352051,2.1367905139923096
1761330862716786700,4.17478662109375,11.085947036743164,4.187439441680908,1.794616937637329
1761330862735487500,4.193487548828125,11.385049819946289,3.1992039680480957,1.4165509939193726
1761330862754188500,4.2121884765625,11.743973731994629,2.093719720840454,1.0001999139785767
1761330862772889300,4.230889404296875,11.507083892822266,1.3304094076156616,0.8662018179893494
1761330862791590400,4.24959033203125,11.353943824768066,1.0265209674835205,1.031306505203247
1761330862810291200,4.268291259765625,10.767702102661133,1.1150553226470947,1.3758729696273804
1761330862828992300,4.2869921875,9.836894035339355,1.3208380937576294,1.246660590171814
1761330862847693000,4.305693115234375,9.020941734313965,1.5840486288070679,0.7537391185760498
1761330862866393900,4.324393798828125,8.779266357421875,2.124826431274414,0.5575276613235474
1761330862885095000,4.343094970703125,8.635697364807129,2.289931297302246,0.6508477330207825
1761330862903795700,4.361795654296875,8.324629783630371,2.03629207611084,0.5120640397071838
1761330862922496800,4.380496826171875,8.204988479614258,1.97407865524292,0.1746760457754135
1761330862941197600,4.399197509765625,8.080561637878418,2.287538528442383,0.12442677468061447
1761330862959898600,4.417898681640625,7.685746192932129,2.65842604637146,0.2225325107574463
1761330862978599400,4.436599365234375,7.401000499725342,3.0340991020202637,0.38763725757598877
1761330862997300200,4.45530029296875,7.156932353973389,3.249453067779541,0.3445664644241333
1761330863016001300,4.474001220703125,7.1234331130981445,3.249453067779541,0.19621145725250244
1761330863034702000,4.4927021484375,7.159325122833252,3.383451223373413,0.13160525262355804
1761330863053403100,4.511403076171875,7.302894592285156,3.407379388809204,0.08135596662759781
1761330863072104000,4.53010400390625,7.6737823486328125,3.352344512939453,-0.15553347766399384
1761330863090805000,4.548804931640625,8.276773452758789,3.5222349166870117,-0.3158525824546814
1761330863109505800,4.567505859375,8.707481384277344,3.579662561416626,-0.2727817893028259
1761330863128206800,4.586206787109375,8.609375953674316,3.610769271850586,0
1761330863146907600,4.60490771484375,8.669196128845215,3.620340585708618,0.2727817893028259
1761330863165608400,4.6236083984375,9.138189315795898,3.6131622791290283,0.10289137065410614
1761330863184309500,4.6423095703125,9.53779125213623,3.689732551574707,-0.11246266216039658
1761330863203010300,4.66101025390625,9.647860527038574,3.838087558746338,-0.07657032459974289
1761330863221711400,4.67971142578125,9.702896118164062,4.000799655914307,0.12921242415905
1761330863240412200,4.698412109375,9.798608779907227,4.158725738525391,-0.17706887423992157
1761330863259113200,4.71711328125,9.7938232421875,4.1970109939575195,-0.5862415432929993
1761330863277814000,4.73581396484375,10.238887786865234,4.0319061279296875,-1.1222338676452637
1761330863296515000,4.75451513671875,11.621939659118652,3.9457645416259766,-1.9573289155960083
1761330863315216000,4.7732158203125,12.459427833557129,4.395615100860596,-2.445464849472046
1761330863333917000,4.7919169921875,11.72004508972168,4.46979284286499,-1.5912270545959473
1761330863352617700,4.81061767578125,11.531012535095215,4.3070807456970215,-0.9068797826766968
1761330863371318500,4.829318603515625,11.825329780578613,4.153940200805664,-1.1772687435150146
1761330863390019600,4.84801953125,11.868400573730469,3.871587038040161,-1.911865234375
1761330863408720400,4.866720458984375,11.473584175109863,3.3643085956573486,-2.4095723628997803
1761330863427421400,4.88542138671875,10.430314064025879,2.667997360229492,-1.6630117893218994
1761330863446122500,4.90412255859375,9.355937004089355,2.062613010406494,-0.5623133182525635
1761330863464823300,4.9228232421875,8.516056060791016,1.7443677186965942,0.27038896083831787
1761330863483524000,4.941524169921875,8.085348129272461,2.0650060176849365,0.885344386100769
1761330863502225200,4.96022509765625,7.726424217224121,2.5435705184936523,0.8662018179893494
1761330863520926000,4.978926025390625,7.324429988861084,2.7900311946868896,0.5264210104942322
1761330863539627000,4.997626953125,7.128218650817871,2.871387243270874,0.2799602448940277
1761330863558327800,5.016327880859375,7.221538543701172,2.998206853866577,0.27756741642951965
1761330863577028600,5.035028564453125,7.369893550872803,2.9862427711486816,0.4977070987224579
1761330863595729700,5.053729736328125,7.393822193145752,3.0340991020202637,0.7154539823532104
1761330863614430700,5.0724306640625,7.276573657989502,3.139383316040039,0.7250252366065979
1761330863633131500,5.091131591796875,7.188039302825928,3.2997024059295654,0.5288137793540955
1761330863651832600,5.10983251953125,7.238288402557373,3.548556089401245,-0.05024927482008934
1761330863670533400,5.128533447265625,7.456035137176514,3.601198196411133,-0.6245267391204834
1761330863689234400,5.147234375,7.795815944671631,3.7471601963043213,-1.093519926071167
1761330863707935200,5.165935302734375,8.094919204711914,3.9433717727661133,-1.1318050622940063
1761330863726636000,5.184635986328125,8.453842163085938,4.137190341949463,-1.0097711086273193
1761330863745337000,5.203337158203125,9.073583602905273,4.264009952545166,-0.8901300430297852
1761330863764038000,5.222037841796875,9.401400566101074,4.402793884277344,-0.763310432434082
1761330863782739000,5.240739013671875,9.34875774383545,4.615755081176758,-0.727418065071106
1761330863801440000,5.25943994140625,9.248259544372559,4.840680122375488,-0.638883650302887
1761330863820140800,5.278140869140625,8.963513374328613,4.914857864379883,-0.23449662327766418
1761330863838841600,5.296841552734375,8.941978454589844,5.175675392150879,0.20338992774486542
1761330863857542700,5.315542724609375,9.468399047851562,5.359922885894775,0.34217363595962524
1761330863876243500,5.334243408203125,10.660024642944336,4.957928657531738,0.4450650215148926
1761330863894944500,5.352944580078125,12.612567901611328,4.730610370635986,0.8709874153137207
1761330863913645300,5.371645263671875,13.402199745178223,5.560919761657715,1.0121639966964722
1761330863932346400,5.390346435546875,12.698709487915039,5.941378593444824,1.3351950645446777
1761330863951047200,5.409047119140625,12.150753021240234,4.974678039550781,1.710868239402771
1761330863969748200,5.427748291015625,12.643674850463867,3.737588882446289,1.100698471069336
1761330863988449000,5.446448974609375,13.2897367477417,2.155933141708374,0.9906286001205444
1761330864007150000,5.465150146484375,12.681960105895996,1.196411371231079,1.2299108505249023
1761330864025851000,5.483850830078125,11.193624496459961,1.4835500717163086,0.8446664214134216
1761330864044552000,5.502552001953125,9.937392234802246,1.703689694404602,0.2105683982372284
1761330864063252700,5.521252685546875,8.72183895111084,1.8376877307891846,-0.14117653667926788
1761330864081953800,5.539953857421875,7.511070251464844,2.1272194385528564,-0.24885354936122894
1761330864100654600,5.558654541015625,6.642475605010986,2.2779672145843506,-0.2225325107574463
1761330864119355600,5.577355712890625,6.38883638381958,2.3090739250183105,-0.22013968229293823
1761330864138056400,5.596056396484375,6.618547439575195,2.313859462738037,-0.38763725757598877
1761330864156757500,5.614757568359375,7.025327205657959,2.53399920463562,-0.9116654396057129
1761330864175458300,5.633458251953125,7.3746795654296875,2.7278177738189697,-1.34476637840271
1761330864194159400,5.652159423828125,7.161718368530273,2.885744094848633,-1.2681959867477417
1761330864212860200,5.670860107421875,6.597012042999268,3.2279176712036133,-0.914058268070221
1761330864231561200,5.689561279296875,6.0777692794799805,3.6155550479888916,-0.6245267391204834
1761330864250262000,5.708261962890625,5.941378593444824,3.933800458908081,-0.576670229434967
1761330864268963000,5.726963134765625,6.1088762283325195,4.0797624588012695,-0.5120640397071838
1761330864287663900,5.745663818359375,6.592226505279541,4.048655986785889,-0.040677983313798904
1761330864306365000,5.764364990234375,7.341179847717285,3.9433717727661133,0.44745782017707825
1761330864325065700,5.783065673828125,8.343772888183594,3.9194436073303223,0.5886343717575073
1761330864343766500,5.8017666015625,9.482755661010742,3.893122434616089,0.41874396800994873
1761330864362467600,5.820467529296875,10.444670677185059,3.895515203475952,0.4570291340351105
1761330864381168600,5.839168701171875,11.095519065856934,3.91705060005188,0.6197410821914673
1761330864399869400,5.857869384765625,11.411371231079102,3.87876558303833,0.6819544434547424
1761330864418570500,5.876570556640625,11.179266929626465,3.900300979614258,0.4833501875400543
1761330864437271300,5.895271240234375,10.547562599182129,4.137190341949463,0.0526420995593071
1761330864455972400,5.913972412109375,9.7005033493042,4.656432628631592,-0.38763725757598877
1761330864474673200,5.932673095703125,9.08554744720459,5.335994720458984,-0.4833501875400543
1761330864493374200,5.951374267578125,9.42054271697998,5.3934221267700195,-0.3756731450557709
1761330864512075000,5.970074951171875,10.71984577178955,4.575077056884766,-0.29431718587875366
1761330864530776000,5.988776123046875,12.260823249816895,4.1491546630859375,-0.349352091550827
1761330864549476900,6.007476806640625,13.098311424255371,4.098905086517334,-0.5168496966362
1761330864568178000,6.026177978515625,13.11266803741455,3.814159393310547,-0.605384111404419
1761330864586878700,6.044878662109375,12.928421020507812,3.5294134616851807,-0.9571290612220764
1761330864605579800,6.063579833984375,12.725030899047852,2.967100143432617,-1.3543375730514526
1761330864624280600,6.082280517578125,11.904293060302734,2.3808584213256836,-1.3112667798995972
1761330864642981600,6.100981689453125,10.313065528869629,2.1367905139923096,-0.5718846321105957
1761330864661682400,6.119682373046875,8.949156761169434,1.9884356260299683,0.18903298676013947
1761330864680383500,6.138383544921875,8.331808090209961,2.0171494483947754,0.5647061467170715
1761330864699084300,6.157084228515625,8.286344528198242,2.3162522315979004,0.6484549641609192
1761330864717785300,6.175785400390625,8.248059272766113,2.6703901290893555,0.7537391185760498
1761330864736486100,6.194486083984375,7.980063438415527,2.9001009464263916,0.9690931439399719
1761330864755187200,6.213187255859375,7.458428382873535,3.012563705444336,1.2849457263946533
1761330864773888000,6.231887939453125,7.1234331130981445,3.115455150604248,1.5290136337280273
1761330864792589000,6.250589111328125,7.032505512237549,3.1250264644622803,1.6510475873947144
1761330864811290000,6.2692900390625,7.156932353973389,3.1250264644622803,1.6342978477478027
1761330864829991000,6.287990966796875,7.29093074798584,3.2135608196258545,1.1629117727279663
1761330864848692000,6.30669189453125,7.345965385437012,3.4959139823913574,0.4211367964744568
1761330864867392800,6.325392822265625,7.214360237121582,3.7160534858703613,-0.07896314561367035
1761330864886093800,6.34409375,7.077969551086426,3.8596229553222656,-0.4450650215148926
1761330864904794600,6.362794677734375,7.025327205657959,3.9050865173339844,-0.43549370765686035
1761330864923495400,6.381495361328125,7.2095746994018555,3.972085475921631,-0.31824541091918945
1761330864942196500,6.400196533203125,7.891529083251953,4.089334011077881,-0.2967100143432617
1761330864960897300,6.418897216796875,8.707481384277344,4.261617183685303,-0.31824541091918945
1761330864979598300,6.437598388671875,9.300901412963867,4.311866283416748,-0.2799602448940277
1761330864998299100,6.456299072265625,9.781859397888184,4.206582069396973,-0.24167509377002716
1761330865017000200,6.475000244140625,9.913464546203613,4.230510234832764,-0.09571290761232376
1761330865035701200,6.493701171875,9.650253295898438,4.235296249389648,-0.12442677468061447
1761330865054402000,6.512402099609375,8.903693199157715,4.5200419425964355,0.02871387079358101
1761330865073103000,6.53110302734375,8.592626571655273,4.680361270904541,0.40677985548973083
1761330865091804000,6.549803955078125,8.83669376373291,4.522434711456299,0.607776939868927
1761330865110505000,6.5685048828125,9.631111145019531,4.132404804229736,0.729810893535614
1761330865129205800,6.587205810546875,11.145768165588379,3.9625144004821777,0.6460621356964111
1761330865147906800,6.60590673828125,12.780065536499023,4.07258415222168,0.5455635786056519
1761330865166607600,6.624607666015625,13.043275833129883,4.749752998352051,0.8566305041313171
1761330865185308700,6.64330859375,11.583654403686523,5.678168296813965,0.914058268070221
1761330865204009500,6.662009521484375,10.344172477722168,5.19242525100708,1.3782658576965332
1761330865222710500,6.68071044921875,10.145567893981934,4.0079779624938965,1.852044701576233
1761330865241411300,6.699411376953125,10.29153060913086,3.3786656856536865,2.1607189178466797
1761330865260112400,6.7181123046875,9.958928108215332,3.084348440170288,1.710868239402771
1761330865278813400,6.7368134765625,9.789037704467773,2.7565317153930664,1.7635103464126587
1761330865297514200,6.75551416015625,9.970891952514648,2.352144718170166,2.218146562576294
1761330865316215300,6.77421533203125,10.3681001663208,2.0650060176849365,2.1678972244262695
1761330865334916000,6.792916015625,10.12881851196289,1.8711873292922974,1.9310078620910645
1761330865353617200,6.8116171875,9.480362892150879,1.6821542978286743,1.679761528968811
1761330865372318000,6.83031787109375,8.791230201721191,1.6558332443237305,1.0480563640594482
1761330865391019000,6.84901904296875,8.403593063354492,1.8448662757873535,0.059820566326379776
1761330865409719800,6.8677197265625,8.159524917602539,2.007578134536743,-0.5407779216766357
1761330865428420900,6.8864208984375,7.980063438415527,2.029113531112671,-0.6939185857772827
1761330865447121700,6.90512158203125,7.7455668449401855,2.053041934967041,-0.38763725757598877
1761330865465822700,6.92382275390625,7.542177200317383,2.227717876434326,-0.07178468257188797
1761330865484523500,6.9425234375,7.310073375701904,2.557927370071411,-0.12203395366668701
1761330865503224600,6.961224609375,7.106683254241943,2.964707374572754,-0.2105683982372284
1761330865521925600,6.979925537109375,7.221538543701172,3.2231321334838867,-0.4498506486415863
1761330865540626400,6.99862646484375,7.601997375488281,3.304488182067871,-0.5910272002220154
1761330865559327500,7.017327392578125,8.059026718139648,3.2470602989196777,-0.576670229434967
1761330865578028300,7.0360283203125,8.506484031677246,3.1824541091918945,-0.5000999569892883
1761330865596729300,7.054729248046875,9.052047729492188,3.1561331748962402,-0.36610186100006104
1761330865615430100,7.07343017578125,9.489934921264648,3.19441819190979,-0.2871387302875519
1761330865634131200,7.092131103515625,9.745966911315918,3.3164522647857666,-0.2679961323738098
1761330865652832000,7.11083203125,9.913464546203613,3.493520975112915,-0.28953152894973755
1761330865671533000,7.129532958984375,9.963713645935059,3.8285162448883057,-0.3038884699344635
1761330865690233900,7.14823388671875,10.427921295166016,4.1730828285217285,-0.40677985548973083
1761330865708935000,7.166934814453125,10.88973617553711,4.589433670043945,-1.0289137363433838
1761330865727635700,7.1856357421875,11.12183952331543,5.065605640411377,-1.6390835046768188
1761330865746336800,7.204336669921875,10.97587776184082,5.027320384979248,-1.820937991142273
1761330865765037600,7.22303759765625,10.88016414642334,4.697110652923584,-1.7587246894836426
1761330865783738600,7.241738525390625,11.088339805603027,4.369294166564941,-1.770688772201538
1761330865802439700,7.260439697265625,11.60279655456543,4.216153621673584,-2.3545374870300293
1761330865821140500,7.279140380859375,12.162717819213867,3.7328033447265625,-3.290131092071533
1761330865839841500,7.297841552734375,12.5144624710083,3.538984775543213,-3.744767427444458
1761330865858542300,7.316542236328125,11.849257469177246,3.6705899238586426,-3.5198421478271484
1761330865877243400,7.335243408203125,10.593026161193848,3.6921253204345703,-2.902493953704834
1761330865895944200,7.353944091796875,9.623932838439941,3.34995174407959,-2.0793628692626953
1761330865914645200,7.372645263671875,9.355937004089355,2.885744094848633,-1.093519926071167
1761330865933346000,7.391345947265625,9.379864692687988,2.644068956375122,-0.3565305769443512
1761330865952047000,7.410047119140625,9.05444049835205,2.7661030292510986,-0.02632104977965355
1761330865970748000,7.428747802734375,8.47298526763916,3.16331148147583,-0.13878370821475983
1761330865989449000,7.447448974609375,7.893921852111816,3.6323046684265137,-0.8422735929489136
1761330866008149800,7.466149658203125,7.719245910644531,3.85483717918396,-1.5553346872329712
1761330866026850800,7.484850830078125,7.795815944671631,3.689732551574707,-1.5146567821502686
1761330866045551900,7.5035517578125,8.090133666992188,3.4887354373931885,-1.3663017749786377
1761330866064252700,7.522252685546875,8.652446746826172,3.359523057937622,-1.3639088869094849
1761330866082953700,7.54095361328125,8.791230201721191,3.4480574131011963,-1.3208380937576294
1761330866101654800,7.55965478515625,8.606983184814453,3.6777684688568115,-1.2562319040298462
1761330866120355600,7.57835546875,8.178668022155762,3.8907296657562256,-1.2801600694656372
1761330866139056600,7.597056640625,7.654639720916748,4.130012035369873,-1.1581261157989502
1761330866157757400,7.61575732421875,7.271788120269775,4.3070807456970215,-1.1748759746551514
1761330866176458500,7.63445849609375,6.896114826202393,4.278367042541504,-1.0217353105545044
1761330866195159300,7.6531591796875,6.486942291259766,4.182653903961182,-0.8207381963729858
1761330866213860400,7.6718603515625,6.6113691329956055,4.146761417388916,-0.4713860750198364
1761330866232561200,7.69056103515625,7.154539585113525,4.110869407653809,-0.2512463629245758
1761330866251262200,7.70926220703125,7.977670669555664,4.019941806793213,0.1866401731967926
1761330866269963000,7.727962890625,8.709874153137207,3.85483717918396,0.9786644577980042
1761330866288664000,7.7466640625,8.9850492477417,3.4193434715270996,0.3326023519039154
1761330866307364900,7.76536474609375,8.886942863464355,3.6059837341308594,-0.019142581149935722
1761330866326066000,7.78406591796875,8.980263710021973,3.792623996734619,-0.0526420995593071
1761330866344767000,7.80276708984375,8.927620887756348,3.964907169342041,-0.15553347766399384
1761330866363467800,7.8214677734375,8.745766639709473,4.0797624588012695,0.04785645380616188
1761330866382168800,7.8401689453125,8.271987915039062,4.697110652923584,0.19381862878799438
1761330866400869600,7.85886962890625,8.470592498779297,5.431707382202148,0.13878370821475983
1761330866419570700,7.87757080078125,9.001798629760742,5.821737289428711,0.6173482537269592
1761330866438271500,7.896271484375,9.384650230407715,5.824130535125732,1.124626636505127
1761330866456972500,7.91497265625,9.856036186218262,5.773880958557129,1.466800332069397
1761330866475673300,7.93367333984375,10.564311981201172,6.398407936096191,2.1056840419769287
1761330866494374400,7.95237451171875,10.612168312072754,6.403193473815918,2.2229323387145996
1761330866513075200,7.9710751953125,10.707880973815918,5.446064472198486,1.7922241687774658
1761330866531776300,7.9897763671875,11.626725196838379,4.175475597381592,1.3495519161224365
1761330866550477000,8.00847705078125,12.701102256774902,3.1130621433258057,1.332802176475525
1761330866569178000,8.02717822265625,13.134203910827637,2.0338993072509766,2.021935224533081
1761330866587879200,8.045879150390626,12.421142578125,1.3304094076156616,2.715853691101074
1761330866606580000,8.064580078125,11.131410598754883,1.1270195245742798,2.9455647468566895
1761330866625281000,8.083281005859375,9.659825325012207,1.3399807214736938,2.6297121047973633
1761330866643981800,8.10198193359375,8.554341316223145,1.765903115272522,2.1535403728485107
1761330866662683000,8.120682861328126,7.8628153800964355,2.3784656524658203,1.3112667798995972
1761330866681383700,8.1393837890625,7.389036178588867,2.857030153274536,0.4211367964744568
1761330866700084700,8.158084716796875,7.283751964569092,3.1106693744659424,-0.2679961323738098
1761330866718785500,8.17678564453125,7.611568927764893,3.184846878051758,-0.7106683254241943
1761330866737486600,8.195486572265626,8.094919204711914,3.263810157775879,-0.6484549641609192
1761330866756187600,8.214187744140625,8.34855842590332,3.34995174407959,-0.42831525206565857
1761330866774888400,8.232888427734375,7.960920810699463,3.407379388809204,-0.22492532432079315
1761330866793589500,8.251589599609375,7.219145774841309,3.541377544403076,-0.20817556977272034
1761330866812290300,8.270290283203124,6.778866767883301,3.7423746585845947,-0.16510476171970367
1761330866830991400,8.288991455078126,6.766902446746826,3.926621913909912,-0.2632105052471161
1761330866849692200,8.307692138671875,6.893722057342529,3.862015724182129,-0.21296121180057526
1761330866868393200,8.326393310546875,7.2430739402771,3.7495529651641846,0.0526420995593071
1761330866887094300,8.34509423828125,7.630711555480957,3.6873397827148438,0.21774685382843018
1761330866905795000,8.363795166015626,7.968099594116211,3.806980848312378,0.2967100143432617
1761330866924496100,8.38249609375,8.173882484436035,3.9074792861938477,0.03349951654672623
1761330866943197000,8.401197021484375,8.47298526763916,3.9625144004821777,-0.30149564146995544
1761330866961898000,8.41989794921875,8.841479301452637,3.8811583518981934,-0.0526420995593071
1761330866980598800,8.438598876953124,9.164510726928711,3.9625144004821777,-0.11724831163883209
1761330866999299800,8.4572998046875,9.312865257263184,4.1970109939575195,-0.3900300860404968
1761330867018000600,8.476000732421875,9.477970123291016,4.4243292808532715,-0.5359922647476196
1761330867036701700,8.49470166015625,9.796216011047363,4.527220249176025,-0.5096712112426758
1761330867055402500,8.513402587890624,10.449456214904785,4.400400638580322,-0.5072783827781677
1761330867074103600,8.532103515625,11.514262199401855,4.106083869934082,-0.4666004180908203
1761330867092804400,8.550804443359375,12.454642295837402,3.8356947898864746,-0.5264210104942322
1761330867111505400,8.56950537109375,12.244073867797852,4.2831525802612305,-0.605384111404419
1761330867130206500,8.58820654296875,11.248659133911133,4.4650068283081055,-1.0408778190612793
1761330867148907300,8.6069072265625,11.021341323852539,4.094119548797607,-1.770688772201538
1761330867167608300,8.6256083984375,11.36351490020752,3.493520975112915,-2.187039852142334
1761330867186309000,8.64430908203125,11.729616165161133,2.7900311946868896,-2.335394859313965
1761330867205010200,8.66301025390625,11.267802238464355,2.146361827850342,-2.1296122074127197
1761330867223711000,8.6817109375,10.234102249145508,1.9022940397262573,-1.5864413976669312
1761330867242412000,8.700412109375,9.399007797241211,1.8472590446472168,-1.1892328262329102
1761330867261112800,8.71911279296875,9.248259544372559,1.8711873292922974,-1.1868400573730469
1761330867279814000,8.73781396484375,9.257830619812012,2.1296122074127197,-1.4261223077774048
1761330867298514700,8.7565146484375,8.82233715057373,2.5052852630615234,-1.703689694404602
1761330867317215700,8.7752158203125,8.075776100158691,2.9048867225646973,-1.7443677186965942
1761330867335916500,8.79391650390625,7.283751964569092,2.9790642261505127,-1.5481562614440918
1761330867354617600,8.81261767578125,7.238288402557373,2.9168508052825928,-1.0887342691421509
1761330867373318400,8.831318359375,7.434499740600586,2.9766714572906494,-0.576670229434967
1761330867392019500,8.85001953125,7.755138397216797,2.871387243270874,-0.040677983313798904
1761330867410720500,8.868720458984376,7.934599876403809,2.919243574142456,0.37806597352027893
1761330867429421300,8.88742138671875,7.747959613800049,3.232703447341919,0.20338992774486542
1761330867448122400,8.906122314453125,7.489534854888916,3.3786656856536865,-0.275174617767334
1761330867466823200,8.9248232421875,7.343572616577148,3.1920254230499268,-0.48095735907554626
1761330867485524200,8.943524169921876,7.458428382873535,3.0556344985961914,-0.5144568681716919
1761330867504225300,8.962225341796875,8.051848411560059,2.8426733016967773,-0.44027936458587646
1761330867522926000,8.980926025390625,8.827122688293457,2.864208698272705,-0.4450650215148926
1761330867541627100,8.999627197265625,9.511469841003418,3.2781670093536377,-0.6532405614852905
1761330867560328000,9.018327880859376,9.877572059631348,3.658625841140747,-0.7154539823532104
1761330867579028700,9.03702880859375,9.745966911315918,4.046263217926025,-0.4450650215148926
1761330867597729800,9.055729736328125,9.346364974975586,4.405186653137207,0.1698904037475586
1761330867616430800,9.074430908203125,9.30329418182373,4.555934429168701,0.8087740540504456
1761330867635131600,9.093131591796874,9.678967475891113,4.613361835479736,1.1772687435150146
1761330867653832700,9.111832763671876,9.927821159362793,4.7234320640563965,0.6795616149902344
1761330867672533500,9.130533447265625,10.380064964294434,4.673182487487793,-0.1339980661869049
1761330867691234600,9.149234619140625,11.832508087158203,4.591826438903809,-0.4043870270252228
1761330867709935600,9.167935546875,12.811172485351562,5.233103275299072,0.0933200865983963
1761330867728636400,9.186636474609376,12.270394325256348,5.0225348472595215,0.7848458290100098
1761330867747337500,9.20533740234375,11.959327697753906,3.8811583518981934,0.8805587291717529
1761330867766038300,9.224038330078125,12.760923385620117,2.342573404312134,0.5527420043945312
1761330867784739300,9.2427392578125,13.409378051757812,1.454836130142212,0.1698904037475586
1761330867803440000,9.261440185546874,12.736994743347168,1.4404792785644531,-0.059820566326379776
1761330867822141200,9.28014111328125,11.030912399291992,1.7443677186965942,0.05503492057323456
1761330867840842000,9.298842041015625,9.480362892150879,2.0195422172546387,0.17946170270442963
1761330867859543000,9.31754296875,8.451449394226074,2.2995026111602783,0.1052841991186142
1761330867878243800,9.336243896484374,7.901100158691406,2.6081767082214355,-0.349352091550827
1761330867896945000,9.35494482421875,7.628318786621094,2.9001009464263916,-1.0456634759902954
1761330867915645700,9.373645751953125,7.590033531188965,2.943171739578247,-1.4117653369903564
1761330867934346800,9.3923466796875,7.817351341247559,2.823530673980713,-1.2849457263946533
1761330867953047800,9.4110478515625,8.176275253295898,2.6943182945251465,-1.0648061037063599
1761330867971748600,9.42974853515625,8.14516830444336,2.9168508052825928,-0.763310432434082
1761330867990449400,9.448449462890625,7.613961696624756,3.249453067779541,-0.30149564146995544
1761330868009150500,9.467150390625,6.912864685058594,3.469592809677124,0.014356935396790504
1761330868027851500,9.4858515625,6.530013084411621,3.7256247997283936,0.038285162299871445
1761330868046552300,9.50455224609375,6.530013084411621,3.933800458908081,-0.0933200865983963
1761330868065253400,9.52325341796875,6.963113784790039,4.089334011077881,-0.2632105052471161
1761330868083954200,9.5419541015625,7.594819068908691,4.091726779937744,-0.5814558863639832
1761330868102655000,9.560655029296875,8.271987915039062,4.082155227661133,-0.6556333899497986
1761330868121356000,9.57935595703125,8.874979019165039,4.144368648529053,-0.4713860750198364
1761330868140057000,9.59805712890625,9.107083320617676,4.266402721405029,-0.39960137009620667
1761330868158758000,9.6167578125,9.07119083404541,4.338187217712402,-0.4019941985607147
1761330868177459000,9.635458984375,8.994620323181152,4.412364959716797,-0.3684946894645691
1761330868196159700,9.65415966796875,9.121439933776855,4.481756687164307,-0.35892340540885925
1761330868214860800,9.67286083984375,9.150154113769531,4.445864677429199,-0.4546363055706024
1761330868233561600,9.6915615234375,9.152546882629395,4.548755645751953,-0.6005984544754028
1761330868252262700,9.7102626953125,9.090332984924316,4.874179840087891,-0.8231309652328491
1761330868270963500,9.72896337890625,8.858229637145996,5.039284706115723,-0.9834501147270203
1761330868289664500,9.74766455078125,9.05444049835205,4.754538536071777,-0.9619147181510925
1761330868308365300,9.766365234375,10.119247436523438,4.340580463409424,-1.074377417564392
1761330868327066400,9.78506640625,11.126625061035156,4.673182487487793,-1.277767300605774
1761330868345767200,9.80376708984375,10.892128944396973,5.029713153839111,-1.275374412536621
1761330868364468200,9.82246826171875,10.595418930053711,4.517649173736572,-1.588834285736084
1761330868383169000,9.8411689453125,11.040483474731445,4.108476638793945,-2.225325107574463
1761330868401870000,9.8598701171875,11.784651756286621,3.775874137878418,-2.840280532836914
1761330868420571100,9.878571044921875,11.507083892822266,3.3571300506591797,-2.9168508052825928
1761330868439272000,9.89727197265625,10.396814346313477,3.146561861038208,-2.3736801147460938
1761330868457973000,9.915972900390624,9.860821723937988,2.730210542678833,-1.820937991142273
1761330868476673800,9.934673828125,10.140782356262207,2.3090739250183105,-1.454836130142212
1761330868495374800,9.953374755859375,10.250852584838867,2.282752752304077,-1.1341979503631592
1761330868514075600,9.97207568359375,9.824930191040039,2.66560435295105,-1.069591760635376
1761330868532776700,9.990776611328124,8.83669376373291,3.0340991020202637,-0.9882357716560364
1761330868551477500,10.0094775390625,7.747959613800049,3.1489546298980713,-0.607776939868927
1761330868570178600,10.028178466796875,7.013363361358643,3.170490026473999,-0.04546362906694412
1761330868588879400,10.04687939453125,6.795616149902344,3.2470602989196777,0.5383850932121277
1761330868607580400,10.065580322265625,6.857829570770264,3.421736478805542,0.6963114142417908
1761330868626281200,10.08428125,6.927221775054932,3.562912940979004,0.41874396800994873
1761330868644982300,10.102982177734376,6.908079147338867,3.6634113788604736,0.15553347766399384
1761330868663683000,10.12168310546875,6.965506553649902,3.7878382205963135,-0.4737788736820221
1761330868682384100,10.140384033203125,7.168896675109863,3.81655216217041,-0.9954141974449158
1761330868701085000,10.1590849609375,7.592426300048828,3.7088751792907715,-1.0671988725662231
1761330868719786000,10.177785888671876,8.147561073303223,3.634697675704956,-0.7872386574745178
1761330868738486800,10.19648681640625,8.539983749389648,3.6538400650024414,-0.4426721930503845
1761330868757187800,10.215187744140625,8.877371788024902,3.9457645416259766,-0.19621145725250244
1761330868775888600,10.233888671875,8.812766075134277,4.405186653137207,-0.15074782073497772
1761330868794589700,10.252589599609376,8.796015739440918,4.7712883949279785,-0.04307080805301666
1761330868813290500,10.27129052734375,8.214560508728027,5.041677474975586,0.2632105052471161
1761330868831991600,10.289991455078125,7.793423175811768,5.151747226715088,0.6819544434547424
1761330868850692600,10.308692626953125,8.281558990478516,5.343173027038574,0.7058826684951782
1761330868869393400,10.327393310546874,9.714859962463379,5.13021183013916,0.0526420995593071
