time,seconds_elapsed,z,y,x
1761330858592148500,0.0501484375,-0.04199695214629173,-0.01954767294228077,-0.324063777923584
1761330858610849300,0.068849365234375,-0.03222311660647392,-0.12705987691879272,-0.3087921440601349
1761330858629550300,0.08755029296875,-0.03527744114398956,-0.13683371245861053,-0.24220788478851318
1761330858648251100,0.106251220703125,-0.04016435891389847,-0.06719512492418289,-0.17806708812713623
1761330858666952000,0.124951904296875,-0.021838415414094925,-0.017104214057326317,-0.13530655205249786
1761330858685652700,0.14365283203125,-0.021838415414094925,-0.05864302068948746,-0.10720676928758621
1761330858704353800,0.162353759765625,-0.04932733252644539,-0.0824667438864708,-0.060781046748161316
1761330858723054600,0.1810546875,-0.05177079141139984,-0.09285144507884979,-0.07910698652267456
1761330858741755600,0.199755615234375,-0.02367101050913334,-0.07330377399921417,-0.17195843160152435
1761330858760456400,0.21845654296875,-0.007788525894284248,0.034208428114652634,-0.281914085149765
1761330858779157200,0.2371572265625,-0.009010255336761475,0.1233946830034256,-0.41935867071151733
1761330858797858000,0.255858154296875,-0.004734201822429895,0.1441640853881836,-0.5317577719688416
1761330858816559000,0.27455908203125,-0.0334448479115963,0.18387030065059662,-0.5201513767242432
1761330858835260000,0.293260009765625,-0.06704241037368774,0.027488915249705315,-0.499381959438324
1761330858853960700,0.311960693359375,-0.027947064489126205,-0.0824667438864708,-0.4780016839504242
1761330858872661800,0.330661865234375,0.08689551800489426,-0.08979712426662445,-0.4156934916973114
1761330858891362600,0.349362548828125,0.11804962158203125,-0.07574722915887833,-0.31673339009284973
1761330858910063400,0.3680634765625,0.07040216773748398,0.06352993845939636,-0.15057817101478577
1761330858928764400,0.386764404296875,-0.06704241037368774,0.1539379209280014,0.01435532234609127
1761330858947465200,0.40546533203125,-0.1611155867576599,0.01893680728971958,0.06017018109560013
1761330858966166000,0.424166015625,-0.1617264449596405,0.017715077847242355,-0.000305432389723137
1761330858984867000,0.4428671875,-0.12018764764070511,0.164322629570961,-0.09376774728298187
1761330859003567900,0.46156787109375,-0.1256854236125946,0.3329212963581085,-0.14141519367694855
1761330859022268700,0.4802685546875,-0.19410228729248047,0.5033525824546814,-0.14080433547496796
1761330859040969700,0.4989697265625,-0.27779075503349304,0.5809323787689209,-0.08949168771505356
1761330859059670500,0.51767041015625,-0.3669770061969757,0.4557051360607147,0.02718348242342472
1761330859078371300,0.536371337890625,-0.43111783266067505,0.2419024556875229,0.1487455666065216
1761330859097072400,0.555072265625,-0.5166388750076294,0.10629047453403473,0.15790854394435883
1761330859115773200,0.573773193359375,-0.6101012229919434,0.12034036219120026,0.06017018109560013
1761330859134474000,0.592473876953125,-0.7047852277755737,0.11484257876873016,-0.08949168771505356
1761330859153175000,0.611175048828125,-0.753043532371521,0.21197007596492767,-0.22388194501399994
1761330859171875800,0.629875732421875,-0.790917158126831,0.33108872175216675,-0.3430005609989166
1761330859190576600,0.64857666015625,-0.8086322546005249,0.3536907136440277,-0.4572322964668274
1761330859209277700,0.667277587890625,-0.7628173828125,0.2370155304670334,-0.5403099060058594
1761330859227978500,0.685978515625,-0.6760746240615845,0.11911863088607788,-0.5048797130584717
1761330859246679300,0.70467919921875,-0.6076577305793762,0.07880155742168427,-0.3802633285522461
1761330859265380400,0.72338037109375,-0.5697841048240662,0.0030543238390237093,-0.2666424810886383
1761330859284081200,0.7420810546875,-0.5447386503219604,-0.15638138353824615,-0.20922118425369263
1761330859302782000,0.760781982421875,-0.5575668215751648,-0.2260199636220932,-0.16707152128219604
1761330859321483000,0.77948291015625,-0.5099193453788757,-0.1496618688106537,-0.16218459606170654
1761330859340183800,0.798183837890625,-0.35964664816856384,-0.056810423731803894,-0.1640172004699707
1761330859358884600,0.816884521484375,-0.2545779049396515,-0.07452550530433655,-0.12003492563962936
1761330859377585700,0.835585693359375,-0.12140937149524689,0.03237583488225937,-0.01740964688360691
1761330859396286500,0.854286376953125,0.04413498193025589,0.1496618688106537,-0.0021380267571657896
1761330859414987300,0.8729873046875,0.14492766559123993,0.3298669755458832,-0.0974329337477684
1761330859433688300,0.891688232421875,0.1052214577794075,0.6078104376792908,-0.3246746361255646
1761330859452389000,0.91038916015625,0.12965604662895203,0.9077450633049011,-0.3802633285522461
1761330859471090000,0.92908984375,0.16447533667087555,0.9132428169250488,-0.06505709886550903
1761330859489791000,0.947791015625,0.21578797698020935,0.5442805290222168,0.3484983444213867
1761330859508491800,0.96649169921875,0.23044873774051666,0.08674279600381851,0.6777544617652893
1761330859527192600,0.985192626953125,0.20906847715377808,-0.17715078592300415,0.8225294351577759
1761330859545893600,1.0038935546875,0.24083344638347626,-0.11972949653863907,0.7388409376144409
1761330859564594400,1.022594482421875,0.30375251173973083,0.09162971377372742,0.5598575472831726
1761330859583295200,1.041295166015625,0.3605629503726959,0.25411975383758545,0.4981602132320404
1761330859601996300,1.059996337890625,0.35934120416641235,0.2767217457294464,0.5555815100669861
1761330859620697000,1.078697021484375,0.32818710803985596,0.16126830875873566,0.5665770769119263
1761330859639398000,1.09739794921875,0.3520108163356781,-0.053756099194288254,0.5128209590911865
1761330859658099000,1.116098876953125,0.38927358388900757,-0.2718348205089569,0.3692677617073059
1761330859676799700,1.1347998046875,0.3477347791194916,-0.44409868121147156,0.12736530601978302
1761330859695500500,1.15350048828125,0.3404043912887573,-0.6359102129936218,-0.16279546916484833
1761330859714201600,1.17220166015625,0.4692968726158142,-0.7183769941329956,-0.2788597643375397
1761330859732902400,1.19090234375,0.5939132571220398,-0.45998117327690125,-0.16523891687393188
1761330859751603500,1.209603515625,0.6360629796981812,-0.08002328872680664,0.023518294095993042
1761330859770304300,1.22830419921875,0.49800750613212585,0.14782927930355072,0.2617555558681488
1761330859789005000,1.247005126953125,0.40149086713790894,0.0824667438864708,0.40958482027053833
1761330859807705900,1.265705810546875,0.5053378939628601,-0.053756099194288254,0.4004218578338623
1761330859826407000,1.284406982421875,0.6611084342002869,-0.09407317638397217,0.28435754776000977
1761330859845107700,1.303107666015625,0.799774706363678,-0.17837251722812653,0.13164135813713074
1761330859863808800,1.321808837890625,0.9127846956253052,-0.28954991698265076,-0.00946840364485979
1761330859882509600,1.340509521484375,0.9903645515441895,-0.37140578031539917,-0.10537417232990265
1761330859901210400,1.35921044921875,0.9921970963478088,-0.3298669755458832,-0.1591302752494812
1761330859919911200,1.3779111328125,0.8370374441146851,-0.19608759880065918,-0.16707152128219604
1761330859938612200,1.3966123046875,0.6537780165672302,-0.03298669680953026,-0.16768237948417664
1761330859957313000,1.41531298828125,0.6317868828773499,0.056810423731803894,-0.19822561740875244
1761330859976014000,1.43401416015625,0.7283035516738892,0.14660754799842834,-0.26480987668037415
1761330859994715000,1.45271484375,0.7887791395187378,0.18264856934547424,-0.34116798639297485
1761330860013415700,1.471415771484375,0.7673988938331604,0.16187916696071625,-0.4376846253871918
1761330860032116700,1.49011669921875,0.6739365458488464,0.14599667489528656,-0.5525271892547607
1761330860050817500,1.508817626953125,0.5309942364692688,0.18570289015769958,-0.6423243284225464
1761330860069518600,1.5275185546875,0.36422812938690186,0.19425499439239502,-0.6710349321365356
1761330860088219400,1.546219482421875,0.21151192486286163,0.1692095398902893,-0.6973021626472473
1761330860106920200,1.564920166015625,0.17302745580673218,-0.0616973415017128,-0.7480039000511169
1761330860125621000,1.58362109375,0.1669187992811203,-0.2156352698802948,-0.7412844300270081
1761330860144322000,1.602322021484375,0.07895427197217941,-0.22357651591300964,-0.5635227560997009
1761330860163022800,1.62102294921875,-0.03283398225903511,-0.2761108875274658,-0.30146175622940063
1761330860181724000,1.639723876953125,-0.1305723488330841,-0.2779434621334076,-0.10720676928758621
1761330860200424700,1.6584248046875,-0.1262962967157364,-0.13439024984836578,-0.18600831925868988
1761330860219125500,1.67712548828125,-0.05482511222362518,0.1081230640411377,-0.5024362802505493
1761330860237826600,1.69582666015625,0.02458730712532997,0.1893680840730667,-0.7345649003982544
1761330860256527400,1.71452734375,0.10705405473709106,0.20463970303535461,-0.7492256760597229
1761330860275228200,1.733228271484375,0.162031888961792,0.07757982611656189,-0.674700140953064
1761330860293929200,1.75192919921875,0.21395538747310638,0,-0.5006036758422852
1761330860312630000,1.770630126953125,0.17302745580673218,-0.05192350596189499,-0.2813032269477844
1761330860331330800,1.789330810546875,0.15531237423419952,-0.2724456787109375,0.02779434807598591
1761330860350032000,1.808031982421875,0.10705405473709106,-0.2706131041049957,0.37843072414398193
1761330860368732700,1.826732666015625,-0.004734201822429895,-0.03481929376721382,0.7040216326713562
1761330860387433500,1.84543359375,-0.15867212414741516,0.26022839546203613,0.8952223062515259
1761330860406134500,1.864134521484375,-0.301003634929657,0.19120067358016968,0.8860593438148499
1761330860424835300,1.88283544921875,-0.35414886474609375,-0.29626941680908203,0.6136136651039124
1761330860443536400,1.901536376953125,-0.3767508566379547,-0.4172206521034241,0.37720900774002075
1761330860462237200,1.9202373046875,-0.4085158109664917,-0.27000224590301514,0.28069236874580383
1761330860480938000,1.93893798828125,-0.453719824552536,-0.15760311484336853,0.21349723637104034
1761330860499638800,1.957638671875,-0.504421591758728,-0.18264856934547424,0.10109812021255493
1761330860518339800,1.97633984375,-0.5184714794158936,-0.2571740746498108,-0.03023780696094036
1761330860537040600,1.99504052734375,-0.49220430850982666,-0.3744601011276245,-0.17134757339954376
1761330860555741700,2.01374169921875,-0.3920224606990814,-0.4111120104789734,-0.2874118685722351
1761330860574442500,2.0324423828125,-0.2551887631416321,-0.2938259541988373,-0.4114174246788025
1761330860593143300,2.051143310546875,-0.21181736886501312,-0.19120067358016968,-0.5256491303443909
1761330860611844400,2.06984423828125,-0.2283107042312622,-0.14172062277793884,-0.5757400393486023
1761330860630545200,2.088545166015625,-0.2484692484140396,-0.17592905461788177,-0.5598575472831726
1761330860649246000,2.107245849609375,-0.22953243553638458,-0.258395791053772,-0.4969384968280792
1761330860667947000,2.125947021484375,-0.034666575491428375,-0.25411975383758545,-0.33567020297050476
1761330860686647800,2.144647705078125,0.12354740500450134,-0.08063415437936783,-0.20433427393436432
1761330860705348900,2.163348876953125,0.13515383005142212,-0.006108647678047419,-0.1182023361325264
1761330860724049700,2.182049560546875,0.19013166427612305,0.10629047453403473,-0.15485422313213348
1761330860742750500,2.20075048828125,0.21151192486286163,0.12095122784376144,-0.25320345163345337
1761330860761451500,2.219451416015625,0.22739441692829132,0.16065743565559387,-0.33628106117248535
1761330860780152300,2.23815234375,0.2542724609375,0.3127627670764923,-0.35155269503593445
1761330860798853000,2.25685302734375,0.2487746775150299,0.40927940607070923,-0.29413139820098877
1761330860817554200,2.27555419921875,0.23961171507835388,0.40378162264823914,-0.35643959045410156
1761330860836255000,2.2942548828125,0.1815795600414276,0.3347539007663727,-0.5329795479774475
1761330860854955800,2.312955810546875,0.14798198640346527,0.22846342623233795,-0.526870846748352
1761330860873656800,2.33165673828125,0.18890993297100067,-0.04459312930703163,-0.16035200655460358
1761330860892357600,2.350357666015625,0.21456626057624817,-0.3451386094093323,0.3949240744113922
1761330860911058700,2.36905859375,0.21395538747310638,-0.4612029194831848,0.7932079434394836
1761330860929759500,2.387759521484375,0.16386447846889496,-0.3597993552684784,0.9062178730964661
1761330860948460300,2.406460205078125,0.16264274716377258,-0.26450446248054504,0.9178243279457092
1761330860967161300,2.425161376953125,0.20418155193328857,-0.12400554865598679,0.8915571570396423
1761330860985862100,2.443862060546875,0.2909243404865265,-0.10079269111156464,0.7944296598434448
1761330861004563000,2.46256298828125,0.3972148299217224,-0.12217295914888382,0.6191114783287048
1761330861023264000,2.481263916015625,0.4802924394607544,-0.12034036219120026,0.43890634179115295
1761330861041964800,2.49996484375,0.5652026534080505,-0.13011419773101807,0.32528549432754517
1761330861060665900,2.518665771484375,0.6214022040367126,-0.06414080411195755,0.3039052188396454
1761330861079366700,2.53736669921875,0.643393337726593,-0.07269290834665298,0.3387245237827301
1761330861098067500,2.5560673828125,0.64278244972229,0.006108647678047419,0.34666576981544495
1761330861116768500,2.5747685546875,0.6403390169143677,0.09590577334165573,0.2733619809150696
1761330861135469300,2.59346923828125,0.6366738080978394,0.10079269111156464,0.11575887352228165
1761330861154170400,2.61217041015625,0.6116283535957336,0.09162971377372742,-0.07299833744764328
1761330861172871200,2.63087109375,0.5621483325958252,0.12400554865598679,-0.16829325258731842
1761330861191572000,2.649572021484375,0.5022835731506348,0.11362084746360779,-0.18784092366695404
1761330861210273000,2.66827294921875,0.449138343334198,0.15515965223312378,-0.18356487154960632
1761330861228973800,2.686973876953125,0.4595230221748352,0.19608759880065918,-0.1597411334514618
1761330861247674600,2.705674560546875,0.5560396909713745,0.3811796307563782,-0.12003492563962936
1761330861266375700,2.724375732421875,0.5743656158447266,0.28588470816612244,-0.11881320178508759
1761330861285076500,2.743076416015625,0.5871937870979309,0.32559093832969666,-0.12614357471466064
1761330861303777500,2.761777587890625,0.5242747068405151,0.33658650517463684,-0.11575887352228165
1761330861322478300,2.780478271484375,0.42959064245224,0.3659079968929291,-0.14752385020256042
1761330861341179100,2.79917919921875,0.40149086713790894,0.3170388340950012,-0.2513708472251892
1761330861359880200,2.817880126953125,0.41492989659309387,0.09468404203653336,-0.48960810899734497
1761330861378581000,2.8365810546875,0.4021017551422119,-0.3854556679725647,-0.7412844300270081
1761330861397281800,2.85528173828125,0.28176137804985046,-0.8093958497047424,-0.7516691088676453
1761330861415982800,2.87398291015625,0.10094540566205978,-0.925460159778595,-0.4834994673728943
1761330861434683600,2.89268359375,-0.06826414167881012,-0.6524035930633545,-0.20616686344146729
1761330861453384700,2.911384765625,-0.05971203371882439,-0.1233946830034256,-0.05528326332569122
1761330861472085500,2.93008544921875,0.03130681812763214,0.09407317638397217,-0.08949168771505356
1761330861490786300,2.948786376953125,0.06551524996757507,0.19730933010578156,-0.01435532234609127
1761330861509487400,2.9674873046875,0.04108065739274025,0.049480047076940536,0.2360992431640625
1761330861528188200,2.986188232421875,-0.007177661173045635,-0.13988803327083588,0.4975493550300598
1761330861546889200,3.00488916015625,0.008093958720564842,-0.2467893660068512,0.5781835317611694
1761330861565590000,3.023590087890625,0.1101083755493164,-0.2620609998703003,0.4566214084625244
1761330861584290800,3.042290771484375,0.20967933535575867,-0.0769689604640007,0.324063777923584
1761330861602991900,3.060991943359375,0.2750418782234192,0.12522727251052856,0.25503605604171753
1761330861621692700,3.079692626953125,0.26160284876823425,0.18203771114349365,0.22693626582622528
1761330861640393500,3.0983935546875,0.20601414144039154,0.021380268037319183,0.21227550506591797
1761330861659094500,3.117094482421875,0.13759729266166687,-0.277332603931427,0.19333870708942413
1761330861677795300,3.13579541015625,0.06856957077980042,-0.5045742988586426,0.16584978997707367
1761330861696496400,3.154496337890625,0.04169152304530144,-0.5039634704589844,0.16768237948417664
1761330861715197200,3.173197265625,0.05635227635502815,-0.32131487131118774,0.19700388610363007
1761330861733898000,3.19189794921875,0.058795735239982605,-0.11606431007385254,0.22204934060573578
1761330861752599000,3.21059912109375,0.07284562289714813,0.053756099194288254,0.23732095956802368
1761330861771299800,3.2292998046875,0.0746782198548317,0.1490510106086731,0.2306014597415924
1761330861790000600,3.248000732421875,0.011759147047996521,0.164322629570961,0.13713914155960083
1761330861808701700,3.26670166015625,-0.05177079141139984,0.2370155304670334,-0.05894844979047775
1761330861827402800,3.28540283203125,-0.0743727833032608,0.360410213470459,-0.27030766010284424
1761330861846103600,3.304103515625,-0.08659008145332336,0.3426951467990875,-0.4248564541339874
1761330861864804400,3.322804443359375,-0.10369429737329483,0.20708316564559937,-0.5287034511566162
1761330861883505400,3.34150537109375,-0.09697478264570236,0.0922405794262886,-0.5433642268180847
1761330861902206200,3.360206298828125,-0.07376192510128021,-0.017715077847242355,-0.47067132592201233
1761330861920907000,3.378906982421875,-0.03283398225903511,-0.04581485688686371,-0.3643808364868164
1761330861939608000,3.397608154296875,0.020922118797898293,-0.037262752652168274,-0.31551164388656616
1761330861958308900,3.416308837890625,0.06307178735733032,-0.014660755172371864,-0.3075704276561737
1761330861977010000,3.435010009765625,0.019700389355421066,-0.1386663019657135,-0.2458730787038803
1761330861995710700,3.453710693359375,-0.08659008145332336,0.04214967042207718,-0.19272783398628235
1761330862014411500,3.47241162109375,-0.2380845546722412,0.27000224590301514,-0.2813032269477844
1761330862033112600,3.491112548828125,-0.3675878942012787,0.22846342623233795,-0.425467312335968
1761330862051813400,3.5098134765625,-0.5068650245666504,0.2156352698802948,-0.29596397280693054
1761330862070514400,3.528514404296875,-0.6082686185836792,0.20891575515270233,0.021685699000954628
1761330862089215200,3.54721533203125,-0.6626355648040771,0.3543015718460083,0.3020726442337036
1761330862107916300,3.565916259765625,-0.6009382009506226,0.5125155448913574,0.4871646761894226
1761330862126617000,3.5846171875,-0.503810703754425,0.4471530318260193,0.6478220820426941
1761330862145318000,3.60331787109375,-0.45188722014427185,0.27488914132118225,0.7809906005859375
1761330862164019000,3.62201904296875,-0.3926333487033844,0.235793799161911,0.8384119272232056
1761330862182719700,3.6407197265625,-0.2582430839538574,0.2101374864578247,0.7968730926513672
1761330862201420500,3.659420654296875,-0.11163553595542908,0.16737695038318634,0.7589994668960571
1761330862220121600,3.67812158203125,0.049632761627435684,0.04886918142437935,0.7211259007453918
1761330862238822700,3.69682275390625,0.1467602699995041,-0.04153880476951599,0.6911935210227966
1761330862257523500,3.7155234375,0.15470150113105774,-0.1282816082239151,0.6227766275405884
1761330862276224300,3.734224365234375,0.1876882016658783,-0.10079269111156464,0.4889972507953644
1761330862294925300,3.75292529296875,0.34895649552345276,0.09957095980644226,0.3326158821582794
1761330862313626000,3.771626220703125,0.5206094980239868,0.03481929376721382,0.18356487154960632
1761330862332327000,3.790326904296875,0.5267181396484375,-0.1545487940311432,0.02718348242342472
1761330862351028000,3.809028076171875,0.4650208055973053,0.06352993845939636,-0.1695149689912796
1761330862369728800,3.827728759765625,0.37522369623184204,0.3439168632030487,-0.24709481000900269
1761330862388429800,3.846429931640625,0.356286883354187,0.4679224193096161,-0.24220788478851318
1761330862407130600,3.865130615234375,0.4027126133441925,0.5571087002754211,-0.2605338394641876
1761330862425831700,3.883831787109375,0.6042979955673218,0.46364638209342957,-0.3344484567642212
1761330862444532500,3.902532470703125,0.7289143800735474,0.34636032581329346,-0.4016436040401459
1761330862463233300,3.9212333984375,0.7820596098899841,0.23457208275794983,-0.4321868419647217
1761330862481934300,3.939934326171875,0.7918334603309631,0.24801109731197357,-0.46517354249954224
1761330862500635100,3.95863525390625,0.7111993432044983,0.45509424805641174,-0.38759371638298035
1761330862519336200,3.977336181640625,0.5810851454734802,0.48930269479751587,-0.13530655205249786
1761330862538037000,3.996037109375,0.4399753510951996,0.42821621894836426,0.19089524447917938
1761330862556738000,4.014738037109375,0.28298309445381165,0.2675587832927704,0.4535670876502991
1761330862575438800,4.03343896484375,0.12232567369937897,0.16004657745361328,0.5891790986061096
1761330862594139600,4.0521396484375,0.010537417605519295,0.028099779039621353,0.6630937457084656
1761330862612840700,4.0708408203125,-0.06276635825634003,-0.053145237267017365,0.6924152374267578
1761330862631541500,4.08954150390625,-0.12385283410549164,-0.09529490768909454,0.5879573225975037
1761330862650242600,4.10824267578125,-0.09880737960338593,0.06841685622930527,0.28435754776000977
1761330862668943400,4.126943359375,-0.05299251899123192,0.01893680728971958,-0.024740023538470268
1761330862687644400,4.14564453125,-0.13912445306777954,-0.1844811588525772,-0.12553271651268005
1761330862706345200,4.16434521484375,-0.24602578580379486,-0.18631376326084137,-0.10537417232990265
1761330862725046000,4.1830458984375,-0.21975859999656677,-0.01649334840476513,-0.17195843160152435
1761330862743747000,4.2017470703125,-0.14523309469223022,0.20952661335468292,-0.23243404924869537
1761330862762448000,4.22044775390625,-0.11285726726055145,0.46486809849739075,-0.18234314024448395
1761330862781149000,4.23914892578125,-0.145843967795372,0.46547895669937134,-0.07788526266813278
1761330862799849700,4.257849609375,-0.24785839021205902,0.258395791053772,0.10354158282279968
1761330862818550800,4.27655078125,-0.4298960864543915,0.13744457066059113,0.24281874299049377
1761330862837251600,4.29525146484375,-0.6229293346405029,0.03848448023200035,0.23182319104671478
1761330862855952600,4.31395263671875,-0.6791289448738098,-0.01282816007733345,0.11698060482740402
1761330862874653400,4.3326533203125,-0.5838339924812317,0.000610864779446274,0.026572618633508682
1761330862893354200,4.351354248046875,-0.5178605914115906,0.08368847519159317,0.035735588520765305
1761330862912055300,4.37005517578125,-0.49892380833625793,0.1997527778148651,0.06505709886550903
1761330862930756000,4.388756103515625,-0.47326749563217163,0.205861434340477,0.09376774728298187
1761330862949457200,4.40745703125,-0.4335612654685974,0.053756099194288254,0.14202606678009033
1761330862968158000,4.426157958984375,-0.3889681398868561,-0.026878049597144127,0.18234314024448395
1761330862986859000,4.44485888671875,-0.3468184769153595,0.01649334840476513,0.20861032605171204
1761330863005559800,4.463559814453125,-0.30894485116004944,0.12522727251052856,0.19883649051189423
1761330863024260900,4.4822607421875,-0.2759581506252289,0.19730933010578156,0.13469567894935608
1761330863042961700,4.500961669921875,-0.2503018379211426,0.20219624042510986,0.02779434807598591
1761330863061662500,4.519662353515625,-0.23258677124977112,0.19120067358016968,-0.10231985151767731
1761330863080363500,4.538363525390625,-0.21426081657409668,0.15088360011577606,-0.2214384824037552
1761330863099064300,4.557064208984375,-0.15745039284229279,0.027488915249705315,-0.28435754776000977
1761330863117765000,4.57576513671875,-0.10980294644832611,-0.1441640853881836,-0.26480987668037415
1761330863136466200,4.594466064453125,-0.09330959618091583,-0.18570289015769958,-0.2263254076242447
1761330863155167200,4.613167236328125,-0.13423752784729004,-0.12095122784376144,-0.1853974610567093
1761330863173868000,4.631867919921875,-0.1879936307668686,-0.04214967042207718,-0.07849612087011337
1761330863192569000,4.650569091796875,-0.19532401859760284,-0.03848448023200035,0.06627883017063141
1761330863211270000,4.669269775390625,-0.20143266022205353,-0.012217295356094837,0.18234314024448395
1761330863229970700,4.687970703125,-0.228921577334404,0.0977383628487587,0.2513708472251892
1761330863248671700,4.706671630859375,-0.22647811472415924,0.34147340059280396,0.2666424810886383
1761330863267372500,4.72537255859375,-0.18555018305778503,0.6585122346878052,0.18112140893936157
1761330863286073600,4.744073486328125,-0.15806126594543457,0.7831286191940308,0.03390299528837204
1761330863304774400,4.7627744140625,-0.09697478264570236,0.4007273018360138,-0.02718348242342472
1761330863323475500,4.781475341796875,0.05451968312263489,-0.17837251722812653,-0.0021380267571657896
1761330863342176300,4.80017626953125,0.14370593428611755,-0.17348559200763702,-0.05589412897825241
1761330863360877300,4.818877197265625,0.1363755613565445,0.1441640853881836,-0.06200277432799339
1761330863379578000,4.837578125,0.17913609743118286,0.4221075773239136,0.04550942778587341
1761330863398279200,4.856279052734375,0.31352636218070984,0.48563748598098755,0.18906265497207642
1761330863416980000,4.87497998046875,0.5206094980239868,0.2974911332130432,0.3179551064968109
1761330863435680800,4.8936806640625,0.653167188167572,-0.034208428114652634,0.31551164388656616
1761330863454381800,4.9123818359375,0.6110175251960754,-0.3860665261745453,0.17623448371887207
1761330863473082600,4.93108251953125,0.46746426820755005,-0.6322450637817383,0.01435532234609127
1761330863491783700,4.94978369140625,0.2890917658805847,-0.6768381595611572,-0.011911863461136818
1761330863510484700,4.968484619140625,0.18890993297100067,-0.6023126840591431,0.06383536756038666
1761330863529185500,4.987185546875,0.1773035079240799,-0.481361448764801,0.11942406743764877
1761330863547886300,5.00588623046875,0.21517711877822876,-0.4043924808502197,0.09193515032529831
1761330863566587400,5.02458740234375,0.2683223485946655,-0.3903425931930542,0.035735588520765305
1761330863585288200,5.0432880859375,0.2903134822845459,-0.3811796307563782,-0.007635809946805239
1761330863603989200,5.0619892578125,0.24694208800792694,-0.2559523284435272,0.000305432389723137
1761330863622690000,5.08068994140625,0.141262486577034,-0.0922405794262886,0.03634645417332649
1761330863641390800,5.099390869140625,-0.005345067009329796,0.0616973415017128,0.03145953640341759
1761330863660092000,5.118091796875,-0.10430516302585602,0.13194678723812103,-0.02412915788590908
1761330863678793000,5.13679296875,-0.1513417512178421,0.143553227186203,-0.12492185086011887
1761330863697493800,5.15549365234375,-0.15073087811470032,0.07819069176912308,-0.22815799713134766
1761330863716194800,5.17419482421875,-0.13484840095043182,0.010995565913617611,-0.31123560667037964
1761330863734895600,5.1928955078125,-0.13790272176265717,0.04214967042207718,-0.33689191937446594
1761330863753596400,5.211596435546875,-0.1519526094198227,0.02260199747979641,-0.2556469142436981
1761330863772297500,5.23029736328125,-0.1464548259973526,-0.020769402384757996,-0.11331541836261749
1761330863790998300,5.248998291015625,-0.09269873052835464,-0.08857539296150208,0.03451386094093323
1761330863809699300,5.26769921875,0.017867794260382652,-0.15271618962287903,0.1597411334514618
1761330863828400000,5.286400146484375,0.10338886082172394,-0.06719512492418289,0.20372340083122253
1761330863847101200,5.30510107421875,0.08689551800489426,0.13439024984836578,0.12370011955499649
1761330863865802000,5.323802001953125,-0.022449281066656113,0.2614501118659973,-0.05833758786320686
1761330863884503000,5.3425029296875,-0.20143266022205353,0.18142683804035187,-0.33689191937446594
1761330863903203800,5.361203857421875,-0.45310893654823303,-0.30054548382759094,-0.45967575907707214
1761330863921905000,5.37990478515625,-0.5832231640815735,-0.6896663308143616,-0.2562577724456787
1761330863940605700,5.398605712890625,-0.5453495383262634,-0.6524035930633545,-0.016187917441129684
1761330863959306800,5.417306640625,-0.5093085169792175,-0.41355544328689575,-0.0015271619195118546
1761330863978007600,5.436007568359375,-0.3993528485298157,-0.31581708788871765,-0.007024944759905338
1761330863996708600,5.45470849609375,-0.3480401933193207,-0.43982264399528503,0.12553271651268005
1761330864015409400,5.473409423828125,-0.3816377818584442,-0.33597561717033386,0.39675667881965637
1761330864034110500,5.4921103515625,-0.40607234835624695,0.010995565913617611,0.7052434086799622
1761330864052811300,5.510811279296875,-0.40485063195228577,0.24984370172023773,0.8940005898475647
1761330864071512300,5.52951220703125,-0.42073312401771545,0.22907429933547974,0.8994984030723572
1761330864090213000,5.548213134765625,-0.46227192878723145,0.02626718580722809,0.7089085578918457
1761330864108914200,5.5669140625,-0.5209149122238159,-0.1081230640411377,0.40775224566459656
1761330864127615000,5.585614990234375,-0.5850557684898376,-0.10506874322891235,0.13775001466274261
1761330864146316000,5.60431591796875,-0.6027708053588867,0.05803215503692627,-0.011911863461136818
1761330864165016800,5.623016845703125,-0.5264127254486084,0.21135921776294708,-0.021685699000954628
1761330864183718000,5.6417177734375,-0.3779725730419159,0.20769402384757996,0.03817904740571976
1761330864202418700,5.660418701171875,-0.2503018379211426,0.13255766034126282,0.07788526266813278
1761330864221119700,5.67911962890625,-0.16783510148525238,0.1386663019657135,0.0308486707508564
1761330864239820500,5.697820556640625,-0.11835505068302155,0.19792018830776215,-0.0974329337477684
1761330864258521600,5.716521484375,-0.07131846249103546,0.20769402384757996,-0.26480987668037415
1761330864277222400,5.735222412109375,-0.009010255336761475,0.11239911615848541,-0.44929105043411255
1761330864295923500,5.75392333984375,0.01847865991294384,-0.10445787757635117,-0.6551524996757507
1761330864314624300,5.772624267578125,-0.003512472379952669,-0.36224281787872314,-0.8683443069458008
1761330864333325300,5.7913251953125,-0.0206166859716177,-0.5687150955200195,-1.00762140750885
1761330864352026000,5.810026123046875,-0.004734201822429895,-0.6438514590263367,-1.0112866163253784
1761330864370727200,5.82872705078125,0.004428769461810589,-0.5479456782341003,-0.8426879644393921
1761330864389428000,5.847427978515625,-0.027947064489126205,-0.3121519088745117,-0.5305360555648804
1761330864408128800,5.866128662109375,-0.10613775253295898,-0.05558869615197182,-0.13958260416984558
1761330864426829800,5.884829833984375,-0.19165882468223572,0.14172062277793884,0.2202167510986328
1761330864445531000,5.90353076171875,-0.2136499583721161,0.25473061203956604,0.435241162776947
1761330864464231700,5.922231689453125,-0.1207985132932663,0.3543015718460083,0.43890634179115295
1761330864482932700,5.9409326171875,0.01359174121171236,0.4868592321872711,0.24342961609363556
1761330864501633500,5.959633544921875,0.09850194305181503,0.6432406306266785,0.007024944759905338
1761330864520334600,5.97833447265625,0.09789107739925385,0.7232639193534851,-0.12247838824987411
1761330864539035400,5.997035400390625,0.05085449293255806,0.5699368119239807,-0.11942406743764877
1761330864557736400,6.015736328125,0.04108065739274025,0.39889469742774963,-0.04306596517562866
1761330864576437200,6.034437255859375,0.016646064817905426,0.3805687427520752,0.028405211865901947
1761330864595138300,6.05313818359375,0.0038179049734026194,0.47586366534233093,0.13469567894935608
1761330864613839000,6.071839111328125,0.07040216773748398,0.4740310609340668,0.364991694688797
1761330864632540200,6.0905400390625,0.20051635801792145,0.29504770040512085,0.6490437984466553
1761330864651241000,6.109240966796875,0.2744309902191162,0.0720820426940918,0.7632755637168884
1761330864669942000,6.12794189453125,0.22617268562316895,-0.13561198115348816,0.6459894776344299
1761330864688643000,6.14664306640625,0.10888664424419403,-0.3029889166355133,0.43951719999313354
1761330864707344000,6.16534375,0.009315688163042068,-0.3543015718460083,0.30512696504592896
1761330864726044700,6.184044677734375,-0.05604684352874756,-0.3090975880622864,0.29046618938446045
1761330864744745700,6.202745849609375,-0.11224640160799026,-0.2663370370864868,0.33567020297050476
1761330864763446500,6.221446533203125,-0.16539163887500763,-0.2761108875274658,0.3393353819847107
1761330864782147600,6.240147705078125,-0.22769984602928162,-0.35796675086021423,0.2721402645111084
1761330864800848400,6.258848388671875,-0.3058905303478241,-0.4410443603992462,0.18600831925868988
1761330864819549400,6.277549560546875,-0.42073312401771545,-0.4874700903892517,0.12370011955499649
1761330864838250200,6.296250244140625,-0.5270236134529114,-0.4373791813850403,0.1029307171702385
1761330864856951300,6.314951416015625,-0.569173276424408,-0.3274235129356384,0.11148282140493393
1761330864875652400,6.33365234375,-0.578336238861084,-0.21380266547203064,0.09865466505289078
1761330864894353200,6.352353271484375,-0.567951500415802,-0.15699224174022675,0.014966187067329884
1761330864913054200,6.37105419921875,-0.577725350856781,-0.18692462146282196,-0.1432477980852127
1761330864931755000,6.389755126953125,-0.6302597522735596,-0.24801109731197357,-0.3436114490032196
1761330864950456000,6.4084560546875,-0.6925679445266724,-0.3090975880622864,-0.49144071340560913
1761330864969156900,6.427156982421875,-0.7292198538780212,-0.36712974309921265,-0.5317577719688416
1761330864987858000,6.44585791015625,-0.7487674951553345,-0.4318813979625702,-0.467006117105484
1761330865006558700,6.464558837890625,-0.7481566667556763,-0.47036588191986084,-0.30146175622940063
1761330865025259800,6.483259765625,-0.7463240623474121,-0.39828383922576904,-0.0668896958231926
1761330865043960600,6.501960693359375,-0.7121156454086304,-0.3799578845500946,0.1737910360097885
1761330865062661600,6.52066162109375,-0.679739773273468,-0.3390299379825592,0.28008151054382324
1761330865081362400,6.539362548828125,-0.7102830410003662,-0.24923282861709595,0.23732095956802368
1761330865100063500,6.5580634765625,-0.8190169334411621,-0.13194678723812103,0.09315688163042068
1761330865118764300,6.576764404296875,-1.004719853401184,-0.05436696484684944,-0.11087195575237274
1761330865137465300,6.59546533203125,-1.2307398319244385,-0.08613193035125732,-0.22204934060573578
1761330865156166400,6.61416650390625,-1.4341577291488647,-0.30115634202957153,-0.07483093440532684
1761330865174867200,6.6328671875,-1.5978695154190063,-0.46425724029541016,0.27458372712135315
1761330865193568300,6.651568359375,-1.640019178390503,-0.3659079968929291,0.5849030017852783
1761330865212269000,6.67026904296875,-1.6308562755584717,-0.21868959069252014,0.6368265151977539
1761330865230970000,6.68897021484375,-1.66934072971344,-0.30482152104377747,0.5427533388137817
1761330865249671000,6.7076708984375,-1.751807451248169,-0.5320632457733154,0.43951719999313354
1761330865268372000,6.7263720703125,-1.7841832637786865,-0.6291907429695129,0.33750277757644653
1761330865287072800,6.74507275390625,-1.837328553199768,-0.6652317643165588,0.22266021370887756
1761330865305773800,6.76377392578125,-1.9649993181228638,-0.6414080262184143,0.09621120244264603
1761330865324474600,6.782474609375,-2.0853395462036133,-0.6438514590263367,0.04978547990322113
1761330865343175700,6.80117578125,-2.1549782752990723,-0.6059778332710266,0.06444623321294785
1761330865361876500,6.81987646484375,-2.1928517818450928,-0.4880809485912323,0.1127045527100563
1761330865380577500,6.83857763671875,-2.162308692932129,-0.2987128794193268,0.16218459606170654
1761330865399278600,6.857278564453125,-2.031583547592163,-0.1893680840730667,0.20250166952610016
1761330865417979400,6.8759794921875,-1.8458806276321411,-0.24495677649974823,0.20922118425369263
1761330865436680400,6.894680419921875,-1.6864449977874756,-0.4422661066055298,0.18845178186893463
1761330865455381200,6.91338134765625,-1.5960369110107422,-0.6878337264060974,0.1792888194322586
1761330865474082300,6.932082275390625,-1.5990912914276123,-0.8973603844642639,0.17073670029640198
1761330865492783000,6.950783203125,-1.624747633934021,-1.0103703737258911,0.08155044913291931
1761330865511484200,6.969484130859375,-1.6216932535171509,-0.9859357476234436,-0.07422006875276566
1761330865530185000,6.98818505859375,-1.5764893293380737,-0.8576541543006897,-0.23548837006092072
1761330865548886000,7.006885986328125,-1.5074615478515625,-0.7226530313491821,-0.3442223072052002
1761330865567586800,7.0255869140625,-1.4433207511901855,-0.6676751971244812,-0.40408703684806824
1761330865586287900,7.044287841796875,-1.3901755809783936,-0.7428115606307983,-0.46517354249954224
1761330865604988700,7.06298876953125,-1.3669626712799072,-0.9071341753005981,-0.4883863925933838
1761330865623689700,7.081689697265625,-1.3590214252471924,-1.0262528657913208,-0.435241162776947
1761330865642390800,7.100390869140625,-1.35657799243927,-1.0390809774398804,-0.3094030022621155
1761330865661091600,7.119091552734375,-1.3602432012557983,-0.9651663303375244,-0.15057817101478577
1761330865679792600,7.137792724609375,-1.3669626712799072,-0.7916807532310486,-0.0015271619195118546
1761330865698493400,7.156493408203125,-1.3852885961532593,-0.5986474752426147,0.17195843160152435
1761330865717194500,7.175194580078125,-1.3529127836227417,-0.4673115611076355,0.3277289569377899
1761330865735895300,7.193895263671875,-1.2496765851974487,-0.36712974309921265,0.3906480371952057
1761330865754596400,7.212596435546875,-1.142775297164917,-0.23273947834968567,0.32162031531333923
1761330865773297200,7.231297119140625,-1.0829105377197266,-0.0409279391169548,0.14813470840454102
1761330865791998200,7.249998291015625,-1.0877974033355713,0.17348559200763702,-0.029016077518463135
1761330865810699000,7.268698974609375,-1.0694714784622192,0.41416633129119873,-0.129197895526886
1761330865829400000,7.287400146484375,-1.004719853401184,0.5522217750549316,-0.1078176349401474
1761330865848100900,7.306100830078125,-0.9246965646743774,0.5387827157974243,0.05711585655808449
1761330865866802000,7.324802001953125,-0.8281798958778381,0.3811796307563782,0.2764163017272949
1761330865885503000,7.3435029296875,-0.6882919073104858,0.17653992772102356,0.39370235800743103
1761330865904203800,7.362203857421875,-0.5557342171669006,-0.05558869615197182,0.39370235800743103
1761330865922904800,7.38090478515625,-0.5013672709465027,-0.2828303873538971,0.4120282828807831
1761330865941605600,7.399605712890625,-0.5086976289749146,-0.48930269479751587,0.4975493550300598
1761330865960306700,7.418306640625,-0.5086976289749146,-0.573602020740509,0.5983420610427856
1761330865979007500,7.437007568359375,-0.4549415409564972,-0.40744680166244507,0.6783653497695923
1761330865997708500,7.45570849609375,-0.2887863218784332,-0.10506874322891235,0.7021890878677368
1761330866016409300,7.474409423828125,-0.050549060106277466,0.08979712426662445,0.6270527243614197
1761330866035110400,7.4931103515625,0.1418733447790146,0.01649334840476513,0.435241162776947
1761330866053811200,7.511811279296875,0.2658788859844208,-0.287106454372406,0.18600831925868988
1761330866072512300,7.53051220703125,0.3575085997581482,-0.6725621223449707,0.02718348242342472
1761330866091213000,7.549213134765625,0.4326449930667877,-0.8594867587089539,0.005803215317428112
1761330866109914000,7.5679140625,0.48884454369544983,-0.8344413042068481,0.07422006875276566
1761330866128615000,7.586614990234375,0.5432115197181702,-0.7183769941329956,0.13958260416984558
1761330866147316000,7.60531591796875,0.5761982202529907,-0.5387827157974243,0.129197895526886
1761330866166017000,7.62401708984375,0.6201804876327515,-0.3952295184135437,0.08032871782779694
1761330866184717800,7.6427177734375,0.6611084342002869,-0.4324922561645508,-0.06750056147575378
1761330866203419000,7.6614189453125,0.6812669634819031,-0.6035344004631042,-0.29962918162345886
1761330866222119700,7.68011962890625,0.6965385675430298,-0.7874047160148621,-0.5103775262832642
1761330866240820700,7.69882080078125,0.6837103962898254,-0.813671886920929,-0.5873464941978455
1761330866259521500,7.717521484375,0.6549997329711914,-0.6438514590263367,-0.457843154668808
1761330866278222600,7.73622265625,0.49189886450767517,-0.31642794609069824,-0.21838416159152985
1761330866296923400,7.75492333984375,0.4082103967666626,-0.0873536616563797,0.026572618633508682
1761330866315624400,7.77362451171875,0.3837758004665375,-0.01588248461484909,0.17134757339954376
1761330866334325200,7.7923251953125,0.3813323378562927,0.023823726922273636,0.2623664140701294
1761330866353026300,7.8110263671875,0.4021017551422119,0.08429934084415436,0.34177884459495544
1761330866371727000,7.82972705078125,0.4124864339828491,0.06719512492418289,0.3594939112663269
1761330866390428200,7.84842822265625,0.43203410506248474,0.10506874322891235,0.24709481000900269
1761330866409129200,7.867129150390625,0.4943423271179199,0.21685700118541718,0.12980876863002777
1761330866427830000,7.885830078125,0.5138899683952332,0.3445277214050293,0.0668896958231926
1761330866446531000,7.904531005859375,0.43631017208099365,0.3652971386909485,-0.024740023538470268
1761330866465232100,7.923232177734375,0.3452913165092468,0.2364046722650528,-0.15729768574237823
1761330866483933000,7.941932861328125,0.23472478985786438,0.0720820426940918,-0.19822561740875244
1761330866502634000,7.960634033203125,0.19013166427612305,0.1795942485332489,-0.21716243028640747
1761330866521334800,7.979334716796875,0.20601414144039154,0.3848448097705841,-0.32650721073150635
1761330866540035800,7.998035888671875,0.24572035670280457,0.3555232882499695,-0.4120282828807831
1761330866558736600,8.016736572265625,0.2695440948009491,0.04520399495959282,-0.36804601550102234
1761330866577437700,8.035437744140625,0.1766926348209381,-0.4251618981361389,-0.23793183267116547
1761330866596138500,8.054138427734374,-0.043829549103975296,-0.6444623470306396,-0.05406153202056885
1761330866614839600,8.072839599609376,-0.3254382014274597,-0.5290089249610901,0.14080433547496796
1761330866633540400,8.091540283203125,-0.5319104790687561,-0.20769402384757996,0.2971857190132141
1761330866652241400,8.110241455078125,-0.6583595275878906,0.20402882993221283,0.38209593296051025
1761330866670942200,8.128942138671874,-0.7005091905593872,0.3787361681461334,0.374765545129776
1761330866689643300,8.147643310546876,-0.6473639607429504,0.2981020212173462,0.23976442217826843
1761330866708344300,8.16634423828125,-0.5410735011100769,0.17043127119541168,0.04428769648075104
1761330866727045000,8.185045166015625,-0.40485063195228577,0.10384701192378998,-0.08460476994514465
1761330866745746200,8.20374609375,-0.30894485116004944,0.0769689604640007,-0.05406153202056885
1761330866764447000,8.222447021484374,-0.2680169343948364,0.053756099194288254,0.09621120244264603
1761330866783148000,8.24114794921875,-0.2637408673763275,0.053756099194288254,0.22937972843647003
1761330866801848800,8.259848876953125,-0.25579962134361267,0.07941242307424545,0.2263254076242447
1761330866820550000,8.2785498046875,-0.23258677124977112,0.0873536616563797,0.1029307171702385
1761330866839250700,8.297250732421874,-0.17455461621284485,0.007941242307424545,-0.05894844979047775
1761330866857951700,8.31595166015625,-0.10247256606817245,-0.07635809481143951,-0.21838416159152985
1761330866876652500,8.334652587890625,-0.056657709181308746,-0.09407317638397217,-0.32589635252952576
1761330866895353600,8.353353515625,-0.0334448479115963,-0.1026252806186676,-0.3863719701766968
1761330866914054400,8.372054443359374,-0.009010255336761475,-0.09162971377372742,-0.41386088728904724
1761330866932755500,8.39075537109375,0.027030766010284424,-0.06108647957444191,-0.4199695289134979
1761330866951456500,8.40945654296875,0.09300415962934494,-0.07391463965177536,-0.4224129915237427
1761330866970157300,8.4281572265625,0.10461059212684631,-0.09346231073141098,-0.37293294072151184
1761330866988858400,8.4468583984375,0.08872810751199722,-0.16065743565559387,-0.29413139820098877
1761330867007559200,8.46555908203125,0.12415826320648193,-0.1490510106086731,-0.21166464686393738
1761330867026260200,8.48426025390625,0.19990549981594086,0.025045456364750862,-0.14019346237182617
1761330867044961300,8.502961181640625,0.2750418782234192,0.2608392536640167,-0.10659590363502502
1761330867063662000,8.521662109375,0.31719154119491577,0.4172206521034241,-0.11881320178508759
1761330867082363100,8.540363037109374,0.3061959743499756,0.3585776388645172,-0.11026109009981155
1761330867101064000,8.55906396484375,0.2689332067966461,0.08307760953903198,-0.003359756199643016
1761330867119765000,8.577764892578125,0.2890917658805847,-0.08674279600381851,0.129197895526886
1761330867138465800,8.5964658203125,0.40026915073394775,0.17592905461788177,0.14691297709941864
1761330867157166800,8.615166748046875,0.5480984449386597,0.49602219462394714,0.07360920310020447
1761330867175867600,8.63386767578125,0.6739365458488464,0.5705476999282837,-0.01435532234609127
1761330867194568700,8.652568603515626,0.7790052890777588,0.3915643095970154,-0.0027488914784044027
1761330867213269500,8.67126953125,0.8565851449966431,0.15760311484336853,0.04917461425065994
1761330867231970600,8.689970458984375,0.8749110698699951,0.09101885557174683,0.05283980444073677
1761330867250671600,8.708671630859374,0.8235984444618225,0.23273947834968567,-0.0015271619195118546
1761330867269372400,8.727372314453126,0.7496837973594666,0.3610210716724396,-0.04062250629067421
1761330867288073500,8.746073486328125,0.716086208820343,0.3341430425643921,-0.032070402055978775
1761330867306774300,8.764774169921875,0.7942769527435303,0.20341797173023224,-0.02107483521103859
1761330867325475300,8.783475341796875,0.984866738319397,0.09407317638397217,-0.04917461425065994
1761330867344176000,8.802176025390626,1.1589632034301758,0.10445787757635117,-0.14141519367694855
1761330867362877200,8.820877197265625,1.2945752143859863,0.14049890637397766,-0.2202167510986328
1761330867381578000,8.839577880859375,1.3361139297485352,0.17898337543010712,-0.2214384824037552
1761330867400279000,8.858279052734375,1.2597558498382568,0.17043127119541168,-0.17867794632911682
1761330867418979800,8.876979736328124,1.1039854288101196,0.22235478460788727,-0.10537417232990265
1761330867437681000,8.895680908203126,0.9970840215682983,0.3652971386909485,-0.011911863461136818
1761330867456381700,8.914381591796875,0.9720385670661926,0.4929678738117218,-0.003359756199643016
1761330867475082800,8.933082763671875,0.9647082090377808,0.5503891706466675,-0.10659590363502502
1761330867493783800,8.95178369140625,0.9378301501274109,0.564439058303833,-0.250149130821228
1761330867512484600,8.970484619140626,0.8614720702171326,0.45509424805641174,-0.37720900774002075
1761330867531185700,8.989185546875,0.7582359313964844,0.2577849328517914,-0.406530499458313
1761330867549886500,9.007886474609375,0.6916516423225403,0.0977383628487587,-0.27091851830482483
1761330867568587500,9.02658740234375,0.6580541133880615,0.03237583488225937,-0.0308486707508564
1761330867587288300,9.045288330078124,0.6348412036895752,0.030543239787220955,0.21960589289665222
1761330867605989400,9.0639892578125,0.5969675779342651,0.14172062277793884,0.3943132162094116
1761330867624690200,9.082690185546875,0.4992292523384094,0.32620179653167725,0.4871646761894226
1761330867643391200,9.10139111328125,0.34468045830726624,0.5283980369567871,0.4969384968280792
1761330867662092000,9.120092041015624,0.20601414144039154,0.6945532560348511,0.3552178740501404
1761330867680793000,9.13879296875,0.14798198640346527,0.6554579138755798,0.015577051788568497
1761330867699494000,9.157493896484375,0.12721258401870728,0.10629047453403473,-0.2678641974925995
1761330867718195000,9.17619482421875,0.12782345712184906,-0.4783071279525757,-0.26969680190086365
1761330867736895700,9.194895751953124,0.13515383005142212,-0.5577195286750793,-0.24526220560073853
1761330867755596800,9.2135966796875,0.08933897316455841,-0.4257727563381195,-0.35643959045410156
1761330867774297900,9.2322978515625,0.028863361105322838,-0.3597993552684784,-0.33628106117248535
1761330867792998700,9.25099853515625,-0.009621120058000088,-0.29443681240081787,-0.025350889191031456
1761330867811699700,9.26969970703125,0.0038179049734026194,-0.08613193035125732,0.467006117105484
1761330867830400500,9.288400390625,-0.007788525894284248,0.28466299176216125,0.8561269640922546
1761330867849101600,9.3071015625,-0.06337722390890121,0.6591231226921082,0.99968022108078
1761330867867802400,9.32580224609375,-0.14217877388000488,0.778241753578186,0.8872811198234558
1761330867886503400,9.34450341796875,-0.1769980639219284,0.6407971382141113,0.6246092319488525
1761330867905204200,9.363204345703124,-0.1049160286784172,0.44837474822998047,0.3546070158481598
1761330867923905300,9.3819052734375,0.03375028073787689,0.33231043815612793,0.14569124579429626
1761330867942606000,9.400606201171875,0.1516471803188324,0.28466299176216125,0.03695731982588768
1761330867961307100,9.41930712890625,0.22678354382514954,0.22174391150474548,0.07238747924566269
1761330867980008000,9.438008056640625,0.27259841561317444,0.17043127119541168,0.2202167510986328
1761330867998709000,9.456708984375,0.2738201320171356,0.205861434340477,0.3393353819847107
1761330868017410000,9.47541015625,0.21578797698020935,0.34086254239082336,0.3228420317173004
1761330868036110800,9.49411083984375,0.14370593428611755,0.4563159942626953,0.19883649051189423
1761330868054812000,9.51281201171875,0.11804962158203125,0.48013970255851746,0.01740964688360691
1761330868073512700,9.5315126953125,0.11438442766666412,0.36651885509490967,-0.16646064817905426
1761330868092213800,9.5502138671875,0.13332124054431915,0.1795942485332489,-0.3130682110786438
1761330868110914600,9.56891455078125,0.14920371770858765,0.008552107028663158,-0.38881543278694153
1761330868129615600,9.58761572265625,0.14309507608413696,-0.07819069176912308,-0.3533852696418762
1761330868148316400,9.60631640625,0.13820815086364746,-0.06719512492418289,-0.23915356397628784
1761330868167017500,9.625017578125,0.1363755613565445,-0.014660755172371864,-0.12614357471466064
1761330868185718300,9.64371826171875,0.1314886510372162,0.023212861269712448,-0.05406153202056885
1761330868204419300,9.66241943359375,0.12843431532382965,0.027488915249705315,0.03451386094093323
1761330868223120100,9.6811201171875,0.1302669197320938,0.04764745384454727,0.1536324918270111
1761330868241821200,9.6998212890625,0.15347976982593536,0.10873392969369888,0.2617555558681488
1761330868260522200,9.718522216796876,0.2286161482334137,0.19853104650974274,0.3197877109050751
1761330868279223000,9.73722314453125,0.3202458620071411,0.33597561717033386,0.26358816027641296
1761330868297924000,9.755924072265625,0.3404043912887573,0.370184063911438,0.0821613147854805
1761330868316625000,9.774625,0.2964221239089966,0.07880155742168427,-0.08643736690282822
1761330868335326000,9.793325927734376,0.28237223625183105,-0.3445277214050293,-0.08643736690282822
1761330868354026800,9.81202685546875,0.3306305706501007,-0.3078758418560028,-0.02718348242342472
1761330868372727800,9.830727783203125,0.33918267488479614,0.0922405794262886,-0.0766635313630104
1761330868391428600,9.8494287109375,0.35995206236839294,0.3494146466255188,-0.14141519367694855
1761330868410129700,9.868129638671874,0.46135562658309937,0.32131487131118774,-0.09804379940032959
1761330868428830500,9.88683056640625,0.6006327867507935,0.25900667905807495,0.03695731982588768
1761330868447531500,9.905531494140625,0.6898190379142761,0.370184063911438,0.04245510324835777
1761330868466232300,9.924232421875,0.6782126426696777,0.4214966893196106,-0.11881320178508759
1761330868484933400,9.942933349609374,0.5890263915061951,0.27550002932548523,-0.24465134739875793
1761330868503634200,9.96163427734375,0.4766272306442261,0.04214967042207718,-0.21777328848838806
1761330868522335200,9.980335205078125,0.4283689260482788,-0.14599667489528656,-0.07299833744764328
1761330868541036000,9.9990361328125,0.48212501406669617,-0.35246896743774414,0.05955931544303894
1761330868559737000,10.017737060546875,0.5688678026199341,-0.5131264328956604,0.08338304609060287
1761330868578438000,10.03643798828125,0.634230375289917,-0.5577195286750793,0.0308486707508564
1761330868597139000,10.055138916015625,0.6391173005104065,-0.43493571877479553,0.01435532234609127
1761330868615839700,10.07383984375,0.60490882396698,-0.16798780858516693,0.0821613147854805
1761330868634540800,10.092540771484375,0.5829176902770996,0.10629047453403473,0.17195843160152435
1761330868653241600,10.11124169921875,0.5554288029670715,0.2571740746498108,0.18417572975158691
1761330868671942700,10.129942626953126,0.5517635941505432,0.26450446248054504,0.09804379940032959
1761330868690643500,10.1486435546875,0.6024653911590576,0.14782927930355072,-0.029016077518463135
1761330868709344500,10.167344482421875,0.6488910913467407,-0.03176496922969818,-0.16523891687393188
1761330868728045600,10.186045654296874,0.6403390169143677,-0.16676609218120575,-0.22388194501399994
1761330868746746400,10.204746337890626,0.5670352578163147,-0.13988803327083588,-0.16707152128219604
1761330868765447400,10.223447509765625,0.4442514181137085,-0.030543239787220955,-0.03695731982588768
1761330868784148200,10.242148193359375,0.34895649552345276,0.053145237267017365,0.08277218043804169
1761330868802849300,10.260849365234375,0.30253079533576965,0.24740023910999298,0.30085089802742004
1761330868821550000,10.279550048828124,0.27687445282936096,0.4404335021972656,0.38209593296051025
1761330868840251000,10.2982509765625,0.2133445292711258,0.3035998046398163,0.1340848207473755
1761330868858952000,10.316951904296875,0.10827577859163284,0.043982263654470444,-0.25931209325790405
1761330868877652700,10.33565283203125,0.05024362727999687,0.004276053514331579,-0.5079340934753418
