time,seconds_elapsed,z,y,x
1761330858601499000,0.059498779296875,-0.025045456364750862,-0.08063415437936783,-0.318871408700943
1761330858620199700,0.07819970703125,-0.021991131827235222,-0.17592905461788177,-0.2767217457294464
1761330858638900700,0.096900634765625,-0.03543015569448471,-0.1185077652335167,-0.20647229254245758
1761330858657601500,0.1156015625,-0.02260199747979641,-0.05558869615197182,-0.15149445831775665
1761330858676302300,0.13430224609375,-0.011606430634856224,-0.04520399495959282,-0.11972949653863907
1761330858695003400,0.15300341796875,-0.024434590712189674,-0.09407317638397217,-0.08002328872680664
1761330858713704200,0.1717041015625,-0.046425722539424896,-0.10201441496610641,-0.05253437161445618
1761330858732405000,0.190405029296875,-0.029932374134659767,-0.11056652665138245,-0.12034036219120026
1761330858751106000,0.20910595703125,0,-0.02932151034474373,-0.21746785938739777
1761330858769806800,0.227806884765625,-0.009773836471140385,0.07574722915887833,-0.34574946761131287
1761330858788507600,0.246507568359375,0.006108647678047419,0.10995566099882126,-0.4886918365955353
1761330858807208700,0.265208740234375,-0.007941242307424545,0.16249002516269684,-0.5326740741729736
1761330858825909500,0.283909423828125,-0.043371398001909256,0.11178825795650482,-0.5045742988586426
1761330858844610300,0.3026103515625,-0.056199558079242706,-0.08124501258134842,-0.4929678738117218
1761330858863311400,0.321311279296875,0.0409279391169548,-0.09101885557174683,-0.4453204274177551
1761330858882012200,0.34001220703125,0.12156209349632263,-0.12095122784376144,-0.3738492429256439
1761330858900713000,0.358712890625,0.11667517572641373,-0.02932151034474373,-0.23518294095993042
1761330858919414000,0.3774140625,0.01282816007733345,0.11667517572641373,-0.05864302068948746
1761330858938114800,0.39611474609375,-0.11362084746360779,0.08979712426662445,0.05925388261675835
1761330858956815600,0.414815673828125,-0.16615521907806396,-0.04214967042207718,0.03848448023200035
1761330858975516700,0.4335166015625,-0.12705987691879272,0.0824667438864708,-0.043371398001909256
1761330858994217500,0.452217529296875,-0.11056652665138245,0.21930044889450073,-0.12705987691879272
1761330859012918300,0.470918212890625,-0.143553227186203,0.41783151030540466,-0.14049890637397766
1761330859031619300,0.489619384765625,-0.22479823231697083,0.5436696410179138,-0.12095122784376144
1761330859050320100,0.508320068359375,-0.31581708788871765,0.5308414697647095,-0.036651886999607086
1761330859069021000,0.52702099609375,-0.3903425931930542,0.3280344009399414,0.09957095980644226
1761330859087722000,0.545721923828125,-0.4630354940891266,0.1380554437637329,0.17043127119541168
1761330859106422800,0.5644228515625,-0.554665207862854,0.08857539296150208,0.1233946830034256
1761330859125123600,0.58312353515625,-0.6499601006507874,0.10629047453403473,-0.011606430634856224
1761330859143824600,0.60182470703125,-0.7269290685653687,0.12522727251052856,-0.15699224174022675
1761330859162525400,0.620525390625,-0.759304940700531,0.27366742491722107,-0.2809978127479553
1761330859181226200,0.639226318359375,-0.8014546036720276,0.33658650517463684,-0.39889469742774963
1761330859199927300,0.65792724609375,-0.7837395071983337,0.29077163338661194,-0.5051851868629456
1761330859218628000,0.676628173828125,-0.7134900689125061,0.15210533142089844,-0.5381718873977661
1761330859237329000,0.695328857421875,-0.6273581385612488,0.07574722915887833,-0.44409868121147156
1761330859256030000,0.714030029296875,-0.5784889459609985,0.03481929376721382,-0.31520622968673706
1761330859274730800,0.732730712890625,-0.546113133430481,-0.08796452730894089,-0.23029601573944092
1761330859293431600,0.751431640625,-0.5393936038017273,-0.23029601573944092,-0.1844811588525772
1761330859312132600,0.770132568359375,-0.5436696410179138,-0.21197007596492767,-0.15699224174022675
1761330859330833400,0.78883349609375,-0.4251618981361389,-0.10995566099882126,-0.16615521907806396
1761330859349534200,0.8075341796875,-0.2993237376213074,-0.07757982611656189,-0.15027274191379547
1761330859368235300,0.8262353515625,-0.1905898153781891,-0.05925388261675835,-0.06719512492418289
1761330859386936000,0.84493603515625,-0.0256563201546669,0.0873536616563797,0.01282816007733345
1761330859405636900,0.863636962890625,0.11972949653863907,0.19608759880065918,-0.034208428114652634
1761330859424338000,0.882337890625,0.1386663019657135,0.4618137776851654,-0.20402882993221283
1761330859443038700,0.901038818359375,0.1178968995809555,0.7330377101898193,-0.39217519760131836
1761330859461739500,0.919739501953125,0.1588248461484909,0.963333785533905,-0.2632827162742615
1761330859480440600,0.938440673828125,0.2003636509180069,0.7391464114189148,0.15027274191379547
1761330859499141400,0.957141357421875,0.2461785078048706,0.3084867000579834,0.5290089249610901
1761330859517842200,0.97584228515625,0.23396120965480804,-0.10140355676412582,0.7788525819778442
1761330859536543200,0.994543212890625,0.2254091054201126,-0.1954767256975174,0.8106175661087036
1761330859555244000,1.013244140625,0.2809978127479553,-0.03481929376721382,0.6456840634346008
1761330859573944800,1.03194482421875,0.34147340059280396,0.16676609218120575,0.5137372612953186
1761330859592646000,1.05064599609375,0.3854556679725647,0.28466299176216125,0.5125155448913574
1761330859611346700,1.0693466796875,0.35124725103378296,0.21930044889450073,0.5723803043365479
1761330859630047500,1.088047607421875,0.337808221578598,0.04764745384454727,0.5485565662384033
1761330859648748500,1.10674853515625,0.38789913058280945,-0.18692462146282196,0.4514290690422058
1761330859667449300,1.125449462890625,0.38728827238082886,-0.3787361681461334,0.26389357447624207
1761330859686150100,1.144150146484375,0.33719736337661743,-0.544891357421875,-0.021991131827235222
1761330859704851200,1.162851318359375,0.4007273018360138,-0.7385355234146118,-0.25473061203956604
1761330859723552000,1.181552001953125,0.5473348498344421,-0.6389645338058472,-0.2370155304670334
1761330859742252800,1.200252685546875,0.6432406306266785,-0.277332603931427,-0.0720820426940918
1761330859760953900,1.218953857421875,0.5925388336181641,0.039706211537122726,0.14110976457595825
1761330859779654700,1.237654541015625,0.4324922561645508,0.13683371245861053,0.3585776388645172
1761330859798355500,1.25635546875,0.4416552484035492,-0.017104214057326317,0.42455101013183594
1761330859817056500,1.275056396484375,0.5919279456138611,-0.09346231073141098,0.35246896743774414
1761330859835757300,1.29375732421875,0.7428115606307983,-0.13988803327083588,0.21380266547203064
1761330859854458000,1.3124580078125,0.8668171167373657,-0.258395791053772,0.05742128938436508
1761330859873159200,1.3311591796875,0.9657772183418274,-0.3426951467990875,-0.05803215503692627
1761330859891860000,1.34985986328125,1.0158681869506836,-0.3964512348175049,-0.1380554437637329
1761330859910560800,1.368560791015625,0.9407317638397217,-0.27855435013771057,-0.16615521907806396
1761330859929261800,1.38726171875,0.7422007322311401,-0.13255766034126282,-0.16249002516269684
1761330859947962600,1.405962646484375,0.6243038177490234,0.004886918235570192,-0.17776164412498474
1761330859966663700,1.42466357421875,0.6872228980064392,0.09407317638397217,-0.22479823231697083
1761330859985364500,1.443364501953125,0.7757982611656189,0.1533270627260208,-0.30054548382759094
1761330860004065300,1.462065185546875,0.7977893948554993,0.16615521907806396,-0.38240134716033936
1761330860022766000,1.48076611328125,0.7342594861984253,0.1337793916463852,-0.49113526940345764
1761330860041467100,1.499467041015625,0.6169734001159668,0.1533270627260208,-0.6029235124588013
1761330860060168000,1.51816796875,0.4563159942626953,0.17348559200763702,-0.6591231226921082
1761330860078869000,1.536868896484375,0.29443681240081787,0.18875721096992493,-0.676227331161499
1761330860097569800,1.55556982421875,0.1795942485332489,0.0409279391169548,-0.7257073521614075
1761330860116270600,1.5742705078125,0.18387030065059662,-0.17715078592300415,-0.7556397318840027
1761330860134971600,1.5929716796875,0.14172062277793884,-0.2614501118659973,-0.6707295179367065
1761330860153672400,1.61167236328125,0.03237583488225937,-0.24251331388950348,-0.4312705397605896
1761330860172373200,1.630373291015625,-0.07941242307424545,-0.30970844626426697,-0.18203771114349365
1761330860191074300,1.64907421875,-0.1337793916463852,-0.24556763470172882,-0.10201441496610641
1761330860209775000,1.667775146484375,-0.08674279600381851,-0.008552107028663158,-0.33231043815612793
1761330860228476000,1.686475830078125,-0.0054977829568088055,0.14049890637397766,-0.6444623470306396
1761330860247177000,1.705177001953125,0.07024945318698883,0.21197007596492767,-0.758694052696228
1761330860265877800,1.723877685546875,0.14599667489528656,0.13255766034126282,-0.7226530313491821
1761330860284578600,1.74257861328125,0.2009745091199875,-0.013439024798572063,-0.593149721622467
1761330860303279600,1.761279541015625,0.20219624042510986,-0.002443459117785096,-0.4013381600379944
1761330860321980400,1.77998046875,0.17287473380565643,-0.18875721096992493,-0.13255766034126282
1761330860340681500,1.798681396484375,0.14660754799842834,-0.32681265473365784,0.20219624042510986
1761330860359382300,1.81738232421875,0.06597339361906052,-0.18814635276794434,0.5522217750549316
1761330860378083000,1.8360830078125,-0.06963858753442764,0.09896009415388107,0.8197805285453796
1761330860396783900,1.854783935546875,-0.22785256803035736,0.30054548382759094,0.9303470849990845
1761330860415485000,1.87348486328125,-0.33108872175216675,-0.08796452730894089,0.767857015132904
1761330860434185700,1.892185791015625,-0.35185810923576355,-0.4147771894931793,0.47586366534233093
1761330860452886800,1.91088671875,-0.3842339515686035,-0.3738492429256439,0.318871408700943
1761330860471587600,1.929587646484375,-0.41844236850738525,-0.21197007596492767,0.25350889563560486
1761330860490288400,1.948288330078125,-0.4734202027320862,-0.1747073233127594,0.1649334877729416
1761330860508989400,1.966989501953125,-0.5076286196708679,-0.22846342623233795,0.03909534588456154
1761330860527690200,1.985690185546875,-0.5015199780464172,-0.33231043815612793,-0.09834922850131989
1761330860546391300,2.004391357421875,-0.4465421438217163,-0.42943793535232544,-0.23029601573944092
1761330860565092000,2.023092041015625,-0.3066541254520416,-0.3848448097705841,-0.3439168632030487
1761330860583793000,2.04179296875,-0.21135921776294708,-0.24801109731197357,-0.4728093445301056
1761330860602493700,2.06049365234375,-0.20952661335468292,-0.17592905461788177,-0.5571087002754211
1761330860621194800,2.07919482421875,-0.23029601573944092,-0.16187916696071625,-0.5717694163322449
1761330860639895600,2.0978955078125,-0.24434591829776764,-0.23273947834968567,-0.5351175665855408
1761330860658596600,2.1165966796875,-0.14599667489528656,-0.30543237924575806,-0.42332929372787476
1761330860677297400,2.13529736328125,0.07757982611656189,-0.1740964651107788,-0.26450446248054504
1761330860695998200,2.153998291015625,0.1386663019657135,-0.04581485688686371,-0.15149445831775665
1761330860714699300,2.17269921875,0.16798780858516693,0.027488915249705315,-0.11667517572641373
1761330860733400000,2.191400146484375,0.2162461280822754,0.11545344442129135,-0.20647229254245758
1761330860752100900,2.210100830078125,0.22357651591300964,0.09957095980644226,-0.2938259541988373
1761330860770802000,2.228802001953125,0.2516762912273407,0.22663083672523499,-0.35796675086021423
1761330860789502700,2.247502685546875,0.2614501118659973,0.35674503445625305,-0.318871408700943
1761330860808203800,2.266203857421875,0.258395791053772,0.4013381600379944,-0.30115634202957153
1761330860826904600,2.284904541015625,0.2205221801996231,0.35185810923576355,-0.4404335021972656
1761330860845605400,2.30360546875,0.1649334877729416,0.2809978127479553,-0.5711585879325867
1761330860864306400,2.322306396484375,0.1692095398902893,0.09285144507884979,-0.38179048895835876
1761330860883007200,2.34100732421875,0.21685700118541718,-0.21685700118541718,0.11423171311616898
1761330860901708300,2.359708251953125,0.2260199636220932,-0.47525280714035034,0.6401863098144531
1761330860920409000,2.3784091796875,0.20158538222312927,-0.4111120104789734,0.870482325553894
1761330860939110000,2.39710986328125,0.15699224174022675,-0.34636032581329346,0.924849271774292
1761330860957811000,2.41581103515625,0.1948658674955368,-0.19608759880065918,0.9089667797088623
1761330860976511700,2.43451171875,0.2461785078048706,-0.11239911615848541,0.8588758707046509
1761330860995212500,2.453212646484375,0.35674503445625305,-0.12767073512077332,0.7153226733207703
1761330861013913600,2.47191357421875,0.4471530318260193,-0.1380554437637329,0.5259546041488647
1761330861032614400,2.490614501953125,0.5332849621772766,-0.14233149588108063,0.37262752652168274
1761330861051315200,2.509315185546875,0.6059778332710266,-0.11362084746360779,0.30482152104377747
1761330861070016300,2.528016357421875,0.6450732350349426,-0.07941242307424545,0.32131487131118774
1761330861088717000,2.546717041015625,0.6517927050590515,-0.06475166976451874,0.3530798554420471
1761330861107417900,2.56541796875,0.6524035930633545,0.04214967042207718,0.3237583339214325
1761330861126119000,2.584118896484375,0.6462949514389038,0.09346231073141098,0.20463970303535461
1761330861144819700,2.60281982421875,0.637742817401886,0.0720820426940918,0.01954767294228077
1761330861163520800,2.621520751953125,0.5943714380264282,0.09346231073141098,-0.1337793916463852
1761330861182221600,2.6402216796875,0.5412262082099915,0.1026252806186676,-0.1795942485332489
1761330861200922400,2.65892236328125,0.481361448764801,0.11117739230394363,-0.18875721096992493
1761330861219623400,2.67762353515625,0.44409868121147156,0.15760311484336853,-0.16676609218120575
1761330861238324200,2.69632421875,0.5235111117362976,0.30604326725006104,-0.143553227186203
1761330861257025000,2.71502490234375,0.5803215503692627,0.3029889166355133,-0.10690133273601532
1761330861275726000,2.73372607421875,0.5882627964019775,0.28527384996414185,-0.1282816082239151
1761330861294427000,2.752427001953125,0.583375871181488,0.31642794609069824,-0.11484257876873016
1761330861313128000,2.7711279296875,0.48013970255851746,0.33536475896835327,-0.1233946830034256
1761330861331828700,2.789828857421875,0.4172206521034241,0.34208428859710693,-0.18570289015769958
1761330861350529500,2.808529541015625,0.41355544328689575,0.22418737411499023,-0.3536907136440277
1761330861369230600,2.827230712890625,0.42943793535232544,-0.14233149588108063,-0.62857985496521
1761330861387931400,2.845931396484375,0.360410213470459,-0.637742817401886,-0.7843503952026367
1761330861406632400,2.864632568359375,0.2052505612373352,-0.9297361969947815,-0.637742817401886
1761330861425333200,2.883333251953125,0.013439024798572063,-0.8527672290802002,-0.3292561173439026
1761330861444034000,2.902033935546875,-0.08368847519159317,-0.40927940607070923,-0.11423171311616898
1761330861462735000,2.920735107421875,-0.001221729558892548,-0.020158538594841957,-0.05925388261675835
1761330861481436000,2.939435791015625,0.06780599057674408,0.17165300250053406,-0.07880155742168427
1761330861500136700,2.95813671875,0.06780599057674408,0.12522727251052856,0.10201441496610641
1761330861518837800,2.976837646484375,0.025045456364750862,-0.06841685622930527,0.3787361681461334
1761330861537538600,2.99553857421875,-0.004886918235570192,-0.2162461280822754,0.5711585879325867
1761330861556239600,3.014239501953125,0.06352993845939636,-0.2938259541988373,0.5351175665855408
1761330861574940400,3.0329404296875,0.17104214429855347,-0.2009745091199875,0.3842339515686035
1761330861593641200,3.05164111328125,0.258395791053772,0.020769402384757996,0.28466299176216125
1761330861612342300,3.07034228515625,0.28527384996414185,0.16126830875873566,0.23945899307727814
1761330861631043000,3.08904296875,0.24373504519462585,0.11545344442129135,0.2211330533027649
1761330861649744000,3.107743896484375,0.18142683804035187,-0.1380554437637329,0.20708316564559937
1761330861668445000,3.12644482421875,0.1081230640411377,-0.42821621894836426,0.18081597983837128
1761330861687146000,3.14514599609375,0.056810423731803894,-0.5540543794631958,0.1637117564678192
1761330861705846800,3.1638466796875,0.05497783049941063,-0.4312705397605896,0.18264856934547424
1761330861724547600,3.182547607421875,0.06841685622930527,-0.23396120965480804,0.21441353857517242
1761330861743248600,3.20124853515625,0.06291907280683517,-0.043371398001909256,0.23335035145282745
1761330861761949400,3.219949462890625,0.09651663154363632,0.10384701192378998,0.24312418699264526
1761330861780650200,3.238650146484375,0.05436696484684944,0.14538581669330597,0.2003636509180069
1761330861799351300,3.257351318359375,-0.010995565913617611,0.17715078592300415,0.0513126403093338
1761330861818052000,3.276052001953125,-0.0616973415017128,0.29016077518463135,-0.16676609218120575
1761330861836753200,3.294753173828125,-0.06902772188186646,0.35796675086021423,-0.3530798554420471
1761330861855454000,3.313453857421875,-0.08857539296150208,0.258395791053772,-0.481361448764801
1761330861874154800,3.33215478515625,-0.09407317638397217,0.13744457066059113,-0.5473348498344421
1761330861892855800,3.350855712890625,-0.07941242307424545,0.01282816007733345,-0.5125155448913574
1761330861911556600,3.369556640625,-0.04520399495959282,-0.059864748269319534,-0.4147771894931793
1761330861930257700,3.388257568359375,-0.000610864779446274,-0.053145237267017365,-0.3274235129356384
1761330861948958500,3.40695849609375,0.05742128938436508,-0.053145237267017365,-0.3133736252784729
1761330861967659500,3.425659423828125,0.06047561392188072,-0.05803215503692627,-0.2779434621334076
1761330861986360300,3.4443603515625,-0.01649334840476513,-0.1282816082239151,-0.20891575515270233
1761330862005061000,3.46306103515625,-0.1539379209280014,0.17165300250053406,-0.21685700118541718
1761330862023762200,3.48176220703125,-0.30115634202957153,0.3017672002315521,-0.35124725103378296
1761330862042463000,3.500462890625,-0.43004879355430603,0.17287473380565643,-0.40255987644195557
1761330862061163800,3.519163818359375,-0.5528326034545898,0.18325942754745483,-0.14660754799842834
1761330862079864800,3.53786474609375,-0.6395754218101501,0.25900667905807495,0.18264856934547424
1761330862098565600,3.556565673828125,-0.6334667801856995,0.42821621894836426,0.401949018239975
1761330862117266700,3.5752666015625,-0.5436696410179138,0.49602219462394714,0.5711585879325867
1761330862135967500,3.593967529296875,-0.4630354940891266,0.3384190797805786,0.7238747477531433
1761330862154668300,3.612668212890625,-0.4214966893196106,0.2254091054201126,0.823445737361908
1761330862173369300,3.631369384765625,-0.3298669755458832,0.20463970303535461,0.8301652073860168
1761330862192070100,3.650070068359375,-0.17531819641590118,0.1893680840730667,0.7776308655738831
1761330862210771200,3.668771240234375,-0.021380268037319183,0.08918625861406326,0.7440332770347595
1761330862229472000,3.687471923828125,0.1178968995809555,-0.013439024798572063,0.7067705392837524
1761330862248173000,3.706173095703125,0.16859868168830872,-0.1026252806186676,0.6688969135284424
1761330862266873900,3.724873779296875,0.16615521907806396,-0.15271618962287903,0.565049946308136
1761330862285574700,3.74357470703125,0.2565632164478302,-0.017715077847242355,0.411722868680954
1761330862304275700,3.762275634765625,0.4618137776851654,0.10445787757635117,0.2614501118659973
1761330862322976500,3.7809765625,0.5571087002754211,-0.08124501258134842,0.11545344442129135
1761330862341677600,3.799677490234375,0.5027416944503784,-0.11606431007385254,-0.07513637095689774
1761330862360378400,3.81837841796875,0.43371400237083435,0.21502439677715302,-0.2254091054201126
1761330862379079400,3.837079345703125,0.3591884970664978,0.39828383922576904,-0.24006985127925873
1761330862397780200,3.8557802734375,0.3640754222869873,0.4972439408302307,-0.24801109731197357
1761330862416481000,3.87448095703125,0.5064069032669067,0.536339282989502,-0.2828303873538971
1761330862435182000,3.89318212890625,0.6896663308143616,0.360410213470459,-0.37629270553588867
1761330862453883000,3.9118828125,0.7672461867332458,0.28954991698265076,-0.41294458508491516
1761330862472583700,3.930583740234375,0.8051197528839111,0.18570289015769958,-0.44959646463394165
1761330862491284700,3.94928466796875,0.7709113359451294,0.3488037884235382,-0.4477638900279999
1761330862509985500,3.967985595703125,0.656679630279541,0.4667007029056549,-0.27427828311920166
1761330862528686600,3.9866865234375,0.5216785073280334,0.4563159942626953,0.02871064469218254
1761330862547387400,4.005387451171875,0.370184063911438,0.33047783374786377,0.3384190797805786
1761330862566088400,4.02408837890625,0.21319180727005005,0.19364413619041443,0.5406153202056885
1761330862584789200,4.042789306640625,0.059864748269319534,0.06597339361906052,0.6304124593734741
1761330862603490300,4.061490234375,-0.01282816007733345,-0.007941242307424545,0.685390293598175
1761330862622191000,4.080191162109375,-0.09285144507884979,-0.12217295914888382,0.6725621223449707
1761330862640892000,4.098891845703125,-0.11545344442129135,-0.020158538594841957,0.45326167345046997
1761330862659593000,4.117593017578125,-0.05742128938436508,0.0616973415017128,0.11728604137897491
1761330862678293800,4.136293701171875,-0.0720820426940918,-0.10567960888147354,-0.10323614627122879
1761330862696994800,4.154994873046875,-0.1954767256975174,-0.22846342623233795,-0.11178825795650482
1761330862715695600,4.173695556640625,-0.2412915825843811,-0.13622283935546875,-0.12156209349632263
1761330862743747000,4.2017470703125,-0.13683371245861053,0.19364413619041443,-0.23029601573944092
1761330862762448000,4.22044775390625,-0.10445787757635117,0.44898560643196106,-0.1802051067352295
1761330862781149000,4.23914892578125,-0.13744457066059113,0.44959646463394165,-0.07574722915887833
1761330862799849700,4.257849609375,-0.23945899307727814,0.24251331388950348,0.10567960888147354
1761330862818550800,4.27655078125,-0.4214966893196106,0.12156209349632263,0.24495677649974823
1761330862837251600,4.29525146484375,-0.6145299673080444,0.02260199747979641,0.23396120965480804
1761330862855952600,4.31395263671875,-0.6707295179367065,-0.02871064469218254,0.11911863088607788
1761330862874653400,4.3326533203125,-0.5754346251487732,-0.015271619893610477,0.02871064469218254
1761330862893354200,4.351354248046875,-0.5094612240791321,0.06780599057674408,0.03787361457943916
1761330862912055300,4.37005517578125,-0.49052441120147705,0.18387030065059662,0.06719512492418289
1761330862930756000,4.388756103515625,-0.46486809849739075,0.1899789422750473,0.09590577334165573
1761330862949457200,4.40745703125,-0.4251618981361389,0.03787361457943916,0.1441640853881836
1761330862968158000,4.426157958984375,-0.3805687427520752,-0.04276053607463837,0.1844811588525772
1761330862986859000,4.44485888671875,-0.3384190797805786,0.000610864779446274,0.2107483446598053
1761330863005559800,4.463559814453125,-0.30054548382759094,0.10934479534626007,0.2009745091199875
1761330863024260900,4.4822607421875,-0.2675587832927704,0.18142683804035187,0.13683371245861053
1761330863042961700,4.500961669921875,-0.2419024556875229,0.18631376326084137,0.029932374134659767
1761330863061662500,4.519662353515625,-0.22418737411499023,0.17531819641590118,-0.10018182545900345
1761330863080363500,4.538363525390625,-0.205861434340477,0.13500112295150757,-0.21930044889450073
1761330863099064300,4.557064208984375,-0.1490510106086731,0.011606430634856224,-0.2822195291519165
1761330863117765000,4.57576513671875,-0.10140355676412582,-0.16004657745361328,-0.2626718580722809
1761330863136466200,4.594466064453125,-0.08491020649671555,-0.20158538222312927,-0.22418737411499023
1761330863155167200,4.613167236328125,-0.12583814561367035,-0.13683371245861053,-0.18325942754745483
1761330863173868000,4.631867919921875,-0.1795942485332489,-0.05803215503692627,-0.07635809481143951
1761330863192569000,4.650569091796875,-0.18692462146282196,-0.05436696484684944,0.06841685622930527
1761330863211270000,4.669269775390625,-0.19303326308727264,-0.028099779039621353,0.1844811588525772
1761330863229970700,4.687970703125,-0.2205221801996231,0.0818558782339096,0.25350889563560486
1761330863248671700,4.706671630859375,-0.21807873249053955,0.32559093832969666,0.26878049969673157
1761330863267372500,4.72537255859375,-0.17715078592300415,0.6426297426223755,0.18325942754745483
1761330863286073600,4.744073486328125,-0.1496618688106537,0.7672461867332458,0.0360410213470459
1761330863304774400,4.7627744140625,-0.08857539296150208,0.3848448097705841,-0.025045456364750862
1761330863323475500,4.781475341796875,0.06291907280683517,-0.19425499439239502,0
1761330863342176300,4.80017626953125,0.15210533142089844,-0.1893680840730667,-0.053756099194288254
1761330863360877300,4.818877197265625,0.14477495849132538,0.1282816082239151,-0.059864748269319534
1761330863379578000,4.837578125,0.18753549456596375,0.4062250852584839,0.04764745384454727
1761330863398279200,4.856279052734375,0.32192572951316833,0.46975502371788025,0.19120067358016968
1761330863416980000,4.87497998046875,0.5290089249610901,0.2816086709499359,0.32009315490722656
1761330863435680800,4.8936806640625,0.6615665555000305,-0.050090912729501724,0.3176496922969818
1761330863454381800,4.9123818359375,0.6194168925285339,-0.401949018239975,0.17837251722812653
1761330863473082600,4.93108251953125,0.47586366534233093,-0.648127555847168,0.01649334840476513
1761330863491783700,4.94978369140625,0.2974911332130432,-0.6927206516265869,-0.009773836471140385
1761330863510484700,4.968484619140625,0.19730933010578156,-0.6181951761245728,0.06597339361906052
1761330863529185500,4.987185546875,0.18570289015769958,-0.4972439408302307,0.12156209349632263
1761330863547886300,5.00588623046875,0.22357651591300964,-0.4202749729156494,0.09407317638397217
1761330863566587400,5.02458740234375,0.2767217457294464,-0.4062250852584839,0.03787361457943916
1761330863585288200,5.0432880859375,0.2987128794193268,-0.3970620930194855,-0.0054977829568088055
1761330863603989200,5.0619892578125,0.25534147024154663,-0.2718348205089569,0.002443459117785096
1761330863622690000,5.08068994140625,0.1496618688106537,-0.1081230640411377,0.03848448023200035
1761330863641390800,5.099390869140625,0.0030543238390237093,0.04581485688686371,0.033597562462091446
1761330863660092000,5.118091796875,-0.09590577334165573,0.11606431007385254,-0.021991131827235222
1761330863678793000,5.13679296875,-0.14294235408306122,0.12767073512077332,-0.12278381735086441
1761330863697493800,5.15549365234375,-0.14233149588108063,0.06230820715427399,-0.2260199636220932
1761330863716194800,5.17419482421875,-0.12644900381565094,-0.004886918235570192,-0.3090975880622864
1761330863734895600,5.1928955078125,-0.12950333952903748,0.02626718580722809,-0.3347539007663727
1761330863753596400,5.211596435546875,-0.143553227186203,0.006719512399286032,-0.25350889563560486
1761330863772297500,5.23029736328125,-0.1380554437637329,-0.036651886999607086,-0.11117739230394363
1761330863790998300,5.248998291015625,-0.08429934084415436,-0.10445787757635117,0.036651886999607086
1761330863809699300,5.26769921875,0.02626718580722809,-0.16859868168830872,0.16187916696071625
1761330863828400000,5.286400146484375,0.11178825795650482,-0.08307760953903198,0.205861434340477
1761330863847101200,5.30510107421875,0.09529490768909454,0.1185077652335167,0.12583814561367035
1761330863865802000,5.323802001953125,-0.014049889519810677,0.24556763470172882,-0.056199558079242706
1761330863884503000,5.3425029296875,-0.19303326308727264,0.16554436087608337,-0.3347539007663727
1761330863903203800,5.361203857421875,-0.44470956921577454,-0.31642794609069824,-0.4575377106666565
1761330863921905000,5.37990478515625,-0.5748237371444702,-0.7055488228797913,-0.25411975383758545
1761330863940605700,5.398605712890625,-0.5369501113891602,-0.6682860851287842,-0.014049889519810677
1761330863959306800,5.417306640625,-0.5009090900421143,-0.42943793535232544,0.000610864779446274
1761330863978007600,5.436007568359375,-0.3909534513950348,-0.33169957995414734,-0.004886918235570192
1761330863996708600,5.45470849609375,-0.3396408259868622,-0.4557051360607147,0.12767073512077332
1761330864015409400,5.473409423828125,-0.37323838472366333,-0.35185810923576355,0.39889469742774963
1761330864034110500,5.4921103515625,-0.39767298102378845,-0.004886918235570192,0.7073814272880554
1761330864052811300,5.510811279296875,-0.3964512348175049,0.23396120965480804,0.896138608455658
1761330864071512300,5.52951220703125,-0.41233372688293457,0.21319180727005005,0.9016364216804504
1761330864090213000,5.548213134765625,-0.45387253165245056,0.010384701192378998,0.711046576499939
1761330864108914200,5.5669140625,-0.5125155448913574,-0.12400554865598679,0.4098902642726898
1761330864127615000,5.585614990234375,-0.5766563415527344,-0.12095122784376144,0.13988803327083588
1761330864146316000,5.60431591796875,-0.5943714380264282,0.04214967042207718,-0.009773836471140385
1761330864165016800,5.623016845703125,-0.5180133581161499,0.1954767256975174,-0.01954767294228077
1761330864183718000,5.6417177734375,-0.3695732057094574,0.19181154668331146,0.040317077189683914
1761330864202418700,5.660418701171875,-0.2419024556875229,0.11667517572641373,0.08002328872680664
1761330864221119700,5.67911962890625,-0.1594357043504715,0.12278381735086441,0.03298669680953026
1761330864239820500,5.697820556640625,-0.10995566099882126,0.18203771114349365,-0.09529490768909454
1761330864258521600,5.716521484375,-0.06291907280683517,0.19181154668331146,-0.2626718580722809
1761330864277222400,5.735222412109375,-0.000610864779446274,0.09651663154363632,-0.4471530318260193
1761330864295923500,5.75392333984375,0.026878049597144127,-0.12034036219120026,-0.6530144214630127
1761330864314624300,5.772624267578125,0.004886918235570192,-0.37812530994415283,-0.8662062287330627
1761330864333325300,5.7913251953125,-0.012217295356094837,-0.5845975875854492,-1.0054833889007568
1761330864352026000,5.810026123046875,0.003665188793092966,-0.6597339510917664,-1.0091485977172852
1761330864370727200,5.82872705078125,0.01282816007733345,-0.56382817029953,-0.8405499458312988
1761330864389428000,5.847427978515625,-0.01954767294228077,-0.3280344009399414,-0.5283980369567871
1761330864408128800,5.866128662109375,-0.0977383628487587,-0.07147117704153061,-0.13744457066059113
1761330864426829800,5.884829833984375,-0.18325942754745483,0.12583814561367035,0.22235478460788727
1761330864445531000,5.90353076171875,-0.2052505612373352,0.23884813487529755,0.4373791813850403
1761330864464231700,5.922231689453125,-0.11239911615848541,0.3384190797805786,0.4410443603992462
1761330864482932700,5.9409326171875,0.021991131827235222,0.47097674012184143,0.24556763470172882
1761330864501633500,5.959633544921875,0.10690133273601532,0.6273581385612488,0.009162971749901772
1761330864520334600,5.97833447265625,0.10629047453403473,0.7073814272880554,-0.12034036219120026
1761330864539035400,5.997035400390625,0.05925388261675835,0.5540543794631958,-0.11728604137897491
1761330864557736400,6.015736328125,0.049480047076940536,0.38301220536231995,-0.0409279391169548
1761330864576437200,6.034437255859375,0.025045456364750862,0.3646862804889679,0.030543239787220955
1761330864595138300,6.05313818359375,0.012217295356094837,0.45998117327690125,0.13683371245861053
1761330864613839000,6.071839111328125,0.07880155742168427,0.4581485986709595,0.36712974309921265
1761330864632540200,6.0905400390625,0.20891575515270233,0.27916520833969116,0.6511818766593933
1761330864651241000,6.109240966796875,0.2828303873538971,0.056199558079242706,0.7654135823249817
1761330864669942000,6.12794189453125,0.23457208275794983,-0.15149445831775665,0.648127555847168
1761330864688643000,6.14664306640625,0.11728604137897491,-0.318871408700943,0.4416552484035492
1761330864707344000,6.16534375,0.017715077847242355,-0.370184063911438,0.3072649836540222
1761330864726044700,6.184044677734375,-0.04764745384454727,-0.3249800503253937,0.2926042377948761
1761330864744745700,6.202745849609375,-0.10384701192378998,-0.2822195291519165,0.337808221578598
1761330864763446500,6.221446533203125,-0.15699224174022675,-0.2919933497905731,0.34147340059280396
1761330864782147600,6.240147705078125,-0.21930044889450073,-0.3738492429256439,0.27427828311920166
1761330864800848400,6.258848388671875,-0.2974911332130432,-0.4569268524646759,0.18814635276794434
1761330864819549400,6.277549560546875,-0.41233372688293457,-0.5033525824546814,0.12583814561367035
1761330864838250200,6.296250244140625,-0.5186241865158081,-0.45326167345046997,0.10506874322891235
1761330864856951300,6.314951416015625,-0.5607738494873047,-0.3433060050010681,0.11362084746360779
1761330864875652400,6.33365234375,-0.5699368119239807,-0.22968515753746033,0.10079269111156464
1761330864894353200,6.352353271484375,-0.5595521330833435,-0.17287473380565643,0.017104214057326317
1761330864913054200,6.37105419921875,-0.5693259835243225,-0.20280711352825165,-0.14110976457595825
1761330864931755000,6.389755126953125,-0.6218603253364563,-0.26389357447624207,-0.34147340059280396
1761330864950456000,6.4084560546875,-0.6841685771942139,-0.3249800503253937,-0.48930269479751587
1761330864969156900,6.427156982421875,-0.720820426940918,-0.38301220536231995,-0.5296197533607483
1761330864987858000,6.44585791015625,-0.740368127822876,-0.4477638900279999,-0.46486809849739075
1761330865006558700,6.464558837890625,-0.739757239818573,-0.4862483739852905,-0.2993237376213074
1761330865025259800,6.483259765625,-0.7379246354103088,-0.41416633129119873,-0.06475166976451874
1761330865043960600,6.501960693359375,-0.7037162184715271,-0.3958403766155243,0.17592905461788177
1761330865062661600,6.52066162109375,-0.6713404059410095,-0.3549124300479889,0.2822195291519165
1761330865081362400,6.539362548828125,-0.7018836140632629,-0.26511532068252563,0.23945899307727814
1761330865100063500,6.5580634765625,-0.8106175661087036,-0.14782927930355072,0.09529490768909454
1761330865118764300,6.576764404296875,-0.9963204264640808,-0.07024945318698883,-0.10873392969369888
1761330865137465300,6.59546533203125,-1.22234046459198,-0.10201441496610641,-0.21991132199764252
1761330865156166400,6.61416650390625,-1.4257583618164062,-0.3170388340950012,-0.07269290834665298
1761330865174867200,6.6328671875,-1.5894701480865479,-0.48013970255851746,0.2767217457294464
1761330865193568300,6.651568359375,-1.6316198110580444,-0.38179048895835876,0.5870410799980164
1761330865212269000,6.67026904296875,-1.6224569082260132,-0.23457208275794983,0.6389645338058472
1761330865230970000,6.68897021484375,-1.6609413623809814,-0.32070401310920715,0.544891357421875
1761330865249671000,6.7076708984375,-1.7434080839157104,-0.5479456782341003,0.4416552484035492
1761330865268372000,6.7263720703125,-1.775783896446228,-0.6450732350349426,0.3396408259868622
1761330865287072800,6.74507275390625,-1.8289291858673096,-0.6811142563819885,0.22479823231697083
1761330865305773800,6.76377392578125,-1.9565998315811157,-0.657290518283844,0.09834922850131989
1761330865324474600,6.782474609375,-2.0769402980804443,-0.6597339510917664,0.05192350596189499
1761330865343175700,6.80117578125,-2.146578788757324,-0.6218603253364563,0.0665842592716217
1761330865361876500,6.81987646484375,-2.184452533721924,-0.5039634704589844,0.11484257876873016
1761330865380577500,6.83857763671875,-2.153909206390381,-0.31459537148475647,0.164322629570961
1761330865399278600,6.857278564453125,-2.023184061050415,-0.2052505612373352,0.20463970303535461
1761330865417979400,6.8759794921875,-1.8374812602996826,-0.2608392536640167,0.21135921776294708
1761330865436680400,6.894680419921875,-1.6780455112457275,-0.4581485986709595,0.1905898153781891
1761330865455381200,6.91338134765625,-1.5876375436782837,-0.7037162184715271,0.18142683804035187
1761330865474082300,6.932082275390625,-1.5906919240951538,-0.9132428169250488,0.17287473380565643
1761330865492783000,6.950783203125,-1.616348147392273,-1.0262528657913208,0.08368847519159317
1761330865511484200,6.969484130859375,-1.6132938861846924,-1.0018181800842285,-0.0720820426940918
1761330865530185000,6.98818505859375,-1.5680898427963257,-0.8735366463661194,-0.23335035145282745
1761330865548886000,7.006885986328125,-1.499062180519104,-0.7385355234146118,-0.34208428859710693
1761330865567586800,7.0255869140625,-1.434921383857727,-0.6835576891899109,-0.401949018239975
1761330865586287900,7.044287841796875,-1.3817760944366455,-0.758694052696228,-0.4630354940891266
1761330865604988700,7.06298876953125,-1.3585633039474487,-0.9230166673660278,-0.4862483739852905
1761330865623689700,7.081689697265625,-1.3506220579147339,-1.0421353578567505,-0.43310311436653137
1761330865642390800,7.100390869140625,-1.3481786251068115,-1.05496346950531,-0.3072649836540222
1761330865661091600,7.119091552734375,-1.3518437147140503,-0.9810488224029541,-0.1484401375055313
1761330865679792600,7.137792724609375,-1.3585633039474487,-0.8075632452964783,0.000610864779446274
1761330865698493400,7.156493408203125,-1.3768892288208008,-0.6145299673080444,0.1740964651107788
1761330865717194500,7.175194580078125,-1.3445134162902832,-0.4831940531730652,0.3298669755458832
1761330865735895300,7.193895263671875,-1.2412772178649902,-0.38301220536231995,0.39278605580329895
1761330865754596400,7.212596435546875,-1.1343759298324585,-0.24862197041511536,0.3237583339214325
1761330865773297200,7.231297119140625,-1.074511170387268,-0.056810423731803894,0.15027274191379547
1761330865791998200,7.249998291015625,-1.0793980360031128,0.15760311484336853,-0.026878049597144127
1761330865810699000,7.268698974609375,-1.0610721111297607,0.39828383922576904,-0.12705987691879272
1761330865829400000,7.287400146484375,-0.9963204264640808,0.536339282989502,-0.10567960888147354
1761330865848100900,7.306100830078125,-0.916297197341919,0.5229002237319946,0.05925388261675835
1761330865866802000,7.324802001953125,-0.8197805285453796,0.3652971386909485,0.27855435013771057
1761330865885503000,7.3435029296875,-0.6798924803733826,0.16065743565559387,0.3958403766155243
1761330865904203800,7.362203857421875,-0.5473348498344421,-0.07147117704153061,0.3958403766155243
1761330865922904800,7.38090478515625,-0.4929678738117218,-0.2987128794193268,0.41416633129119873
1761330865941605600,7.399605712890625,-0.500298261642456,-0.5051851868629456,0.49968740344047546
1761330865960306700,7.418306640625,-0.500298261642456,-0.5894845128059387,0.6004800796508789
1761330865979007500,7.437007568359375,-0.4465421438217163,-0.42332929372787476,0.6805033683776855
1761330865997708500,7.45570849609375,-0.28038692474365234,-0.12095122784376144,0.7043271064758301
1761330866016409300,7.474409423828125,-0.04214967042207718,0.07391463965177536,0.6291907429695129
1761330866035110400,7.4931103515625,0.15027274191379547,0.000610864779446274,0.4373791813850403
1761330866053811200,7.511811279296875,0.27427828311920166,-0.3029889166355133,0.18814635276794434
1761330866072512300,7.53051220703125,0.3659079968929291,-0.6884446144104004,0.02932151034474373
1761330866091213000,7.549213134765625,0.4410443603992462,-0.8753692507743835,0.007941242307424545
1761330866109914000,7.5679140625,0.4972439408302307,-0.8503237962722778,0.07635809481143951
1761330866128615000,7.586614990234375,0.5516108870506287,-0.7342594861984253,0.14172062277793884
1761330866147316000,7.60531591796875,0.5845975875854492,-0.554665207862854,0.13133592903614044
1761330866166017000,7.62401708984375,0.62857985496521,-0.4111120104789734,0.0824667438864708
1761330866184717800,7.6427177734375,0.6695078015327454,-0.44837474822998047,-0.06536252796649933
1761330866203419000,7.6614189453125,0.6896663308143616,-0.6194168925285339,-0.2974911332130432
1761330866222119700,7.68011962890625,0.7049379348754883,-0.8032872080802917,-0.5082395076751709
1761330866240820700,7.69882080078125,0.6921098232269287,-0.8295543789863586,-0.5852084755897522
1761330866259521500,7.717521484375,0.6633991599082947,-0.6597339510917664,-0.4557051360607147
1761330866278222600,7.73622265625,0.500298261642456,-0.33231043815612793,-0.2162461280822754
1761330866296923400,7.75492333984375,0.4166097939014435,-0.10323614627122879,0.02871064469218254
1761330866315624400,7.77362451171875,0.39217519760131836,-0.03176496922969818,0.17348559200763702
1761330866334325200,7.7923251953125,0.3897317349910736,0.007941242307424545,0.26450446248054504
1761330866353026300,7.8110263671875,0.4105011224746704,0.06841685622930527,0.3439168632030487
1761330866371727000,7.82972705078125,0.42088583111763,0.0513126403093338,0.36163195967674255
1761330866390428200,7.84842822265625,0.4404335021972656,0.08918625861406326,0.24923282861709595
1761330866409129200,7.867129150390625,0.5027416944503784,0.2009745091199875,0.13194678723812103
1761330866427830000,7.885830078125,0.5222893953323364,0.328645259141922,0.06902772188186646
1761330866446531000,7.904531005859375,0.44470956921577454,0.3494146466255188,-0.02260199747979641
1761330866465232100,7.923232177734375,0.3536907136440277,0.2205221801996231,-0.15515965223312378
1761330866483933000,7.941932861328125,0.24312418699264526,0.056199558079242706,-0.19608759880065918
1761330866502634000,7.960634033203125,0.19853104650974274,0.1637117564678192,-0.21502439677715302
1761330866521334800,7.979334716796875,0.21441353857517242,0.3689623177051544,-0.3243691921234131
1761330866540035800,7.998035888671875,0.25411975383758545,0.3396408259868622,-0.4098902642726898
1761330866558736600,8.016736572265625,0.2779434621334076,0.02932151034474373,-0.3659079968929291
1761330866577437700,8.035437744140625,0.185092031955719,-0.4410443603992462,-0.235793799161911
1761330866596138500,8.054138427734374,-0.03543015569448471,-0.6603448390960693,-0.05192350596189499
1761330866614839600,8.072839599609376,-0.3170388340950012,-0.544891357421875,0.14294235408306122
1761330866633540400,8.091540283203125,-0.5235111117362976,-0.22357651591300964,0.2993237376213074
1761330866652241400,8.110241455078125,-0.6499601006507874,0.18814635276794434,0.3842339515686035
1761330866670942200,8.128942138671874,-0.6921098232269287,0.36285367608070374,0.37690356373786926
1761330866689643300,8.147643310546876,-0.6389645338058472,0.2822195291519165,0.2419024556875229
1761330866708344300,8.16634423828125,-0.5326740741729736,0.1545487940311432,0.046425722539424896
1761330866727045000,8.185045166015625,-0.3964512348175049,0.08796452730894089,-0.0824667438864708
1761330866745746200,8.20374609375,-0.30054548382759094,0.06108647957444191,-0.05192350596189499
1761330866764447000,8.222447021484374,-0.25961753726005554,0.03787361457943916,0.09834922850131989
1761330866783148000,8.24114794921875,-0.25534147024154663,0.03787361457943916,0.2315177470445633
1761330866801848800,8.259848876953125,-0.24740023910999298,0.06352993845939636,0.22846342623233795
1761330866820550000,8.2785498046875,-0.22418737411499023,0.07147117704153061,0.10506874322891235
1761330866839250700,8.297250732421874,-0.16615521907806396,-0.007941242307424545,-0.056810423731803894
1761330866857951700,8.31595166015625,-0.09407317638397217,-0.0922405794262886,-0.2162461280822754
1761330866876652500,8.334652587890625,-0.04825831577181816,-0.10995566099882126,-0.3237583339214325
1761330866895353600,8.353353515625,-0.025045456364750862,-0.1185077652335167,-0.3842339515686035
1761330866914054400,8.372054443359374,-0.000610864779446274,-0.10751219838857651,-0.411722868680954
1761330866932755500,8.39075537109375,0.03543015569448471,-0.0769689604640007,-0.41783151030540466
1761330866951456500,8.40945654296875,0.10140355676412582,-0.08979712426662445,-0.4202749729156494
1761330866970157300,8.4281572265625,0.1130099818110466,-0.10934479534626007,-0.3707949221134186
1761330866988858400,8.4468583984375,0.09712749719619751,-0.17653992772102356,-0.2919933497905731
1761330867007559200,8.46555908203125,0.13255766034126282,-0.1649334877729416,-0.20952661335468292
1761330867026260200,8.48426025390625,0.20830489695072174,0.009162971749901772,-0.1380554437637329
1761330867044961300,8.502961181640625,0.2834412455558777,0.24495677649974823,-0.10445787757635117
1761330867063662000,8.521662109375,0.32559093832969666,0.4013381600379944,-0.11667517572641373
1761330867082363100,8.540363037109374,0.31459537148475647,0.3426951467990875,-0.1081230640411377
1761330867101064000,8.55906396484375,0.277332603931427,0.06719512492418289,-0.001221729558892548
1761330867119765000,8.577764892578125,0.2974911332130432,-0.1026252806186676,0.13133592903614044
1761330867138465800,8.5964658203125,0.40866854786872864,0.16004657745361328,0.1490510106086731
1761330867157166800,8.615166748046875,0.5564978122711182,0.48013970255851746,0.07574722915887833
1761330867175867600,8.63386767578125,0.6823359727859497,0.554665207862854,-0.012217295356094837
1761330867194568700,8.652568603515626,0.7874047160148621,0.3756818473339081,-0.000610864779446274
1761330867213269500,8.67126953125,0.8649845123291016,0.14172062277793884,0.0513126403093338
1761330867231970600,8.689970458984375,0.8833104968070984,0.07513637095689774,0.05497783049941063
1761330867250671600,8.708671630859374,0.831997811794281,0.21685700118541718,0.000610864779446274
1761330867269372400,8.727372314453126,0.758083164691925,0.3451386094093323,-0.03848448023200035
1761330867288073500,8.746073486328125,0.7244856357574463,0.3182605504989624,-0.029932374134659767
1761330867306774300,8.764774169921875,0.8026763200759888,0.18753549456596375,-0.01893680728971958
1761330867325475300,8.783475341796875,0.9932661056518555,0.07819069176912308,-0.047036588191986084
1761330867344176000,8.802176025390626,1.1673625707626343,0.08857539296150208,-0.13927717506885529
1761330867362877200,8.820877197265625,1.3029745817184448,0.12461641430854797,-0.21807873249053955
1761330867381578000,8.839577880859375,1.3445134162902832,0.16310089826583862,-0.21930044889450073
1761330867400279000,8.858279052734375,1.2681553363800049,0.1545487940311432,-0.17653992772102356
1761330867418979800,8.876979736328124,1.1123847961425781,0.20647229254245758,-0.10323614627122879
1761330867437681000,8.895680908203126,1.0054833889007568,0.3494146466255188,-0.009773836471140385
1761330867456381700,8.914381591796875,0.9804379940032959,0.4770853817462921,-0.001221729558892548
1761330867475082800,8.933082763671875,0.9731075763702393,0.5345066785812378,-0.10445787757635117
1761330867493783800,8.95178369140625,0.9462295174598694,0.5485565662384033,-0.24801109731197357
1761330867512484600,8.970484619140626,0.8698714375495911,0.43921178579330444,-0.3750709891319275
1761330867531185700,8.989185546875,0.7666352987289429,0.2419024556875229,-0.4043924808502197
1761330867549886500,9.007886474609375,0.7000510096549988,0.0818558782339096,-0.26878049969673157
1761330867568587500,9.02658740234375,0.66645348072052,0.01649334840476513,-0.02871064469218254
1761330867587288300,9.045288330078124,0.6432406306266785,0.014660755172371864,0.22174391150474548
1761330867605989400,9.0639892578125,0.6053670048713684,0.12583814561367035,0.3964512348175049
1761330867624690200,9.082690185546875,0.5076286196708679,0.31031930446624756,0.48930269479751587
1761330867643391200,9.10139111328125,0.3530798554420471,0.5125155448913574,0.4990765154361725
1761330867662092000,9.120092041015624,0.21441353857517242,0.6786707639694214,0.35735589265823364
1761330867680793000,9.13879296875,0.15638138353824615,0.6395754218101501,0.017715077847242355
1761330867699494000,9.157493896484375,0.13561198115348816,0.09040798991918564,-0.2657261788845062
1761330867718195000,9.17619482421875,0.13622283935546875,-0.49418962001800537,-0.2675587832927704
1761330867736895700,9.194895751953124,0.143553227186203,-0.573602020740509,-0.24312418699264526
1761330867755596800,9.2135966796875,0.0977383628487587,-0.4416552484035492,-0.3543015718460083
1761330867774297900,9.2322978515625,0.037262752652168274,-0.3756818473339081,-0.3341430425643921
1761330867792998700,9.25099853515625,-0.001221729558892548,-0.31031930446624756,-0.023212861269712448
1761330867811699700,9.26969970703125,0.012217295356094837,-0.10201441496610641,0.46914416551589966
1761330867830400500,9.288400390625,0.000610864779446274,0.26878049969673157,0.8582650423049927
1761330867849101600,9.3071015625,-0.05497783049941063,0.6432406306266785,1.0018181800842285
1761330867867802400,9.32580224609375,-0.1337793916463852,0.7623592615127563,0.8894191384315491
1761330867886503400,9.34450341796875,-0.16859868168830872,0.6249146461486816,0.6267472505569458
1761330867905204200,9.363204345703124,-0.09651663154363632,0.4324922561645508,0.35674503445625305
1761330867923905300,9.3819052734375,0.04214967042207718,0.31642794609069824,0.14782927930355072
1761330867942606000,9.400606201171875,0.16004657745361328,0.26878049969673157,0.03909534588456154
1761330867961307100,9.41930712890625,0.23518294095993042,0.205861434340477,0.07452550530433655
1761330867980008000,9.438008056640625,0.2809978127479553,0.1545487940311432,0.22235478460788727
1761330867998709000,9.456708984375,0.2822195291519165,0.1899789422750473,0.34147340059280396
1761330868017410000,9.47541015625,0.22418737411499023,0.3249800503253937,0.3249800503253937
1761330868036110800,9.49411083984375,0.15210533142089844,0.4404335021972656,0.2009745091199875
1761330868054812000,9.51281201171875,0.12644900381565094,0.46425724029541016,0.01954767294228077
1761330868073512700,9.5315126953125,0.12278381735086441,0.35063639283180237,-0.164322629570961
1761330868092213800,9.5502138671875,0.14172062277793884,0.1637117564678192,-0.31093016266822815
1761330868110914600,9.56891455078125,0.15760311484336853,-0.007330377586185932,-0.38667741417884827
1761330868129615600,9.58761572265625,0.15149445831775665,-0.09407317638397217,-0.35124725103378296
1761330868148316400,9.60631640625,0.14660754799842834,-0.08307760953903198,-0.2370155304670334
1761330868167017500,9.625017578125,0.14477495849132538,-0.030543239787220955,-0.12400554865598679
1761330868185718300,9.64371826171875,0.13988803327083588,0.007330377586185932,-0.05192350596189499
1761330868204419300,9.66241943359375,0.13683371245861053,0.011606430634856224,0.036651886999607086
1761330868223120100,9.6811201171875,0.1386663019657135,0.03176496922969818,0.15577052533626556
1761330868241821200,9.6998212890625,0.16187916696071625,0.09285144507884979,0.26389357447624207
1761330868260522200,9.718522216796876,0.2370155304670334,0.18264856934547424,0.32192572951316833
1761330868279223000,9.73722314453125,0.328645259141922,0.32009315490722656,0.2657261788845062
1761330868297924000,9.755924072265625,0.3488037884235382,0.3543015718460083,0.08429934084415436
1761330868316625000,9.774625,0.30482152104377747,0.06291907280683517,-0.08429934084415436
1761330868335326000,9.793325927734376,0.29077163338661194,-0.360410213470459,-0.08429934084415436
1761330868354026800,9.81202685546875,0.3390299379825592,-0.3237583339214325,-0.025045456364750862
1761330868372727800,9.830727783203125,0.347582072019577,0.07635809481143951,-0.07452550530433655
1761330868391428600,9.8494287109375,0.36835145950317383,0.3335321843624115,-0.13927717506885529
1761330868410129700,9.868129638671874,0.46975502371788025,0.30543237924575806,-0.09590577334165573
1761330868428830500,9.88683056640625,0.6090322136878967,0.24312418699264526,0.03909534588456154
1761330868447531500,9.905531494140625,0.6982184648513794,0.3543015718460083,0.04459312930703163
1761330868466232300,9.924232421875,0.6866120100021362,0.4056142270565033,-0.11667517572641373
1761330868484933400,9.942933349609374,0.5974257588386536,0.25961753726005554,-0.24251331388950348
1761330868503634200,9.96163427734375,0.48502662777900696,0.02626718580722809,-0.2156352698802948
1761330868522335200,9.980335205078125,0.4367683231830597,-0.16187916696071625,-0.07086031138896942
1761330868541036000,9.9990361328125,0.49052441120147705,-0.36835145950317383,0.0616973415017128
1761330868559737000,10.017737060546875,0.5772672295570374,-0.5290089249610901,0.08552107214927673
1761330868578438000,10.03643798828125,0.6426297426223755,-0.573602020740509,0.03298669680953026
1761330868597139000,10.055138916015625,0.647516667842865,-0.4508182108402252,0.01649334840476513
1761330868615839700,10.07383984375,0.6133082509040833,-0.18387030065059662,0.08429934084415436
1761330868634540800,10.092540771484375,0.5913171172142029,0.09040798991918564,0.1740964651107788
1761330868653241600,10.11124169921875,0.56382817029953,0.2412915825843811,0.18631376326084137
1761330868671942700,10.129942626953126,0.5601630210876465,0.24862197041511536,0.10018182545900345
1761330868690643500,10.1486435546875,0.6108647584915161,0.13194678723812103,-0.026878049597144127
1761330868709344500,10.167344482421875,0.657290518283844,-0.04764745384454727,-0.16310089826583862
1761330868728045600,10.186045654296874,0.6487383842468262,-0.18264856934547424,-0.22174391150474548
1761330868746746400,10.204746337890626,0.5754346251487732,-0.15577052533626556,-0.1649334877729416
1761330868765447400,10.223447509765625,0.4526508152484894,-0.046425722539424896,-0.03481929376721382
1761330868784148200,10.242148193359375,0.35735589265823364,0.037262752652168274,0.08491020649671555
1761330868802849300,10.260849365234375,0.31093016266822815,0.2315177470445633,0.3029889166355133
1761330868821550000,10.279550048828124,0.28527384996414185,0.42455101013183594,0.3842339515686035
1761330868840251000,10.2982509765625,0.22174391150474548,0.2877173125743866,0.13622283935546875
1761330868858952000,10.316951904296875,0.11667517572641373,0.028099779039621353,-0.2571740746498108
1761330868877652700,10.33565283203125,0.05864302068948746,-0.011606430634856224,-0.5057960152626038
