time,seconds_elapsed,z,y,x
1761334327307051500,0.053051513671875,0,0,0
1761334327325752800,0.0717529296875,-1.9824104309082031,-1.2817950248718262,0.16964572668075562
1761334327344454400,0.090454345703125,-3.293848991394043,-2.4410061836242676,-0.07007092237472534
1761334327363155700,0.10915576171875,-5.230356216430664,-3.3705949783325195,-0.4282492399215698
1761334327381857000,0.12785693359375,-7.341950416564941,-3.9828996658325195,-0.9697098135948181
1761334327400558300,0.146558349609375,-8.209695816040039,-3.833375930786133,-1.3858951330184937
1761334327419260000,0.165260009765625,-7.838926792144775,-3.3419036865234375,-1.3142056465148926
1761334327437961200,0.183961181640625,-6.91597843170166,-2.861713409423828,-0.5739569067955017
1761334327456662500,0.20266259765625,-5.446364879608154,-2.5150113105773926,0.14279109239578247
1761334327475364000,0.221364013671875,-3.916414737701416,-2.260544776916504,0.917558491230011
1761334327494065400,0.2400654296875,-1.8745371103286743,-1.665248990058899,1.8211859464645386
1761334327512766700,0.2587666015625,0.31087589263916016,-1.051833152770996,1.7641078233718872
1761334327531468000,0.277468017578125,1.127377986907959,-0.752152681350708,1.0420299768447876
1761334327550169600,0.296169677734375,1.9765939712524414,-0.03492939472198486,0.11537972092628479
1761334327568871000,0.314870849609375,4.082561492919922,1.65731942653656,0.3809623122215271
1761334327587572200,0.333572265625,7.104133129119873,4.404847621917725,0.9649902582168579
1761334327606273500,0.3522734375,8.320573806762695,8.349709510803223,1.7049580812454224
1761334327624975000,0.37097509765625,10.910147666931152,12.621746063232422,2.95147705078125
1761334327643676400,0.389676513671875,16.203601837158203,14.506988525390625,2.545776844024658
1761334327662377700,0.408377685546875,18.407405853271484,13.016414642333984,1.3081018924713135
1761334327681079300,0.427079345703125,24.74925422668457,8.19313907623291,3.0065224170684814
1761334327699780600,0.445780517578125,32.211082458496094,4.683537483215332,2.180117130279541
1761334327718482000,0.46448193359375,23.861927032470703,4.006242275238037,-0.944240152835846
1761334327737183200,0.483183349609375,8.330602645874023,3.0355472564697266,-1.0512349605560303
1761334327755884800,0.501884765625,-5.311636924743652,0.5443987846374512,-0.30183565616607666
1761334327774586000,0.520586181640625,-12.222976684570312,-2.4651591777801514,0.10082250833511353
1761334327793287400,0.539287353515625,-13.833076477050781,-4.727420330047607,0.4403465688228607
1761334327811989000,0.557989013671875,-14.708641052246094,-6.002608299255371,-0.3372451663017273
1761334327830690300,0.576690185546875,-14.558231353759766,-6.690115451812744,-1.3875657320022583
1761334327849391600,0.5953916015625,-12.752920150756836,-6.681943893432617,-1.6556503772735596
1761334327868093000,0.614093017578125,-10.291814804077148,-6.607678413391113,-1.2359546422958374
1761334327886794500,0.63279443359375,-8.168106079101562,-6.314028263092041,-0.4716028869152069
1761334327905495800,0.651495849609375,-6.653225898742676,-5.702251434326172,0.6807887554168701
1761334327924197000,0.670197021484375,-4.3246941566467285,-4.687808513641357,2.188140869140625
1761334327942898400,0.6888984375,-2.011026382446289,-3.641244888305664,2.8388044834136963
1761334327961600000,0.70760009765625,-0.4695277214050293,-2.7779877185821533,1.9097049236297607
1761334327980301300,0.72630126953125,1.9986648559570312,-1.5185744762420654,1.690150499343872
1761334327999002600,0.745002685546875,4.472853183746338,1.4296817779541016,1.5249969959259033
1761334328017704200,0.7637041015625,9.806365966796875,6.634002685546875,1.9989583492279053
1761334328036405500,0.782405517578125,13.826360702514648,9.293912887573242,-1.440488576889038
1761334328055106800,0.80110693359375,15.017578125,11.097838401794434,-3.905102014541626
1761334328073808100,0.81980810546875,15.420299530029297,12.54930591583252,-3.064117670059204
1761334328092509700,0.838509765625,19.68854331970215,12.260128021240234,1.2419624328613281
1761334328111211000,0.8572109375,19.408414840698242,11.301612854003906,4.548223495483398
1761334328129912300,0.875912353515625,11.343199729919434,9.328460693359375,4.1436967849731445
1761334328148614000,0.89461376953125,4.801048278808594,5.398173809051514,2.252114772796631
1761334328167315200,0.913315185546875,0.10652923583984375,1.0165009498596191,-0.29273754358291626
1761334328186016500,0.9320166015625,-4.9700751304626465,-2.5715270042419434,-1.45438814163208
1761334328204717800,0.9507177734375,-8.622635841369629,-5.425976276397705,-2.080937385559082
1761334328223419400,0.96941943359375,-10.949371337890625,-7.313371658325195,-2.7081139087677
1761334328242120700,0.98812060546875,-12.727727890014648,-7.911441326141357,-2.8374204635620117
1761334328260822000,1.006822021484375,-13.283638000488281,-7.896295547485352,-2.48563551902771
1761334328279523600,1.025523681640625,-12.62714958190918,-7.727730751037598,-2.2129814624786377
1761334328298225000,1.044224853515625,-11.210745811462402,-7.504706382751465,-1.7866110801696777
1761334328316926200,1.06292626953125,-9.467246055603027,-6.467321872711182,-0.6645148396492004
1761334328335627500,1.08162744140625,-6.969290256500244,-5.26473331451416,1.1208001375198364
1761334328354329000,1.1003291015625,-4.7919769287109375,-4.272885322570801,2.355532646179199
1761334328373030400,1.119030517578125,-2.7432594299316406,-2.966684341430664,2.1014606952667236
1761334328391731700,1.137731689453125,0.5444931983947754,-0.821357011795044,1.0564770698547363
1761334328410433300,1.156433349609375,7.7581305503845215,2.044113874435425,1.33087158203125
1761334328429134600,1.175134521484375,11.699758529663086,5.146331787109375,-1.387689232826233
1761334328447836000,1.1938359375,12.198708534240723,7.9852213859558105,-2.6902828216552734
1761334328466537200,1.212537109375,12.124204635620117,10.131425857543945,-2.8482210636138916
1761334328485238800,1.23123876953125,13.275508880615234,10.059576034545898,-3.851893901824951
1761334328503940000,1.249940185546875,15.646225929260254,9.801258087158203,-2.238025426864624
1761334328522641400,1.268641357421875,23.268997192382812,7.859992027282715,1.9679230451583862
1761334328541343000,1.287343017578125,20.077266693115234,5.615111827850342,3.4759888648986816
1761334328560044300,1.306044189453125,6.870695114135742,4.04443883895874,2.815638542175293
1761334328578745600,1.32474560546875,-3.230365753173828,1.5397768020629883,2.585071563720703
1761334328597447000,1.343447021484375,-7.179990768432617,-1.7727465629577637,2.160834550857544
1761334328616148500,1.3621484375,-9.38988971710205,-4.435750961303711,1.2026216983795166
1761334328634849800,1.380849853515625,-10.790116310119629,-5.9872517585754395,-0.203488290309906
1761334328653551000,1.399551025390625,-12.523462295532227,-6.474727630615234,-1.166414499282837
1761334328672252700,1.418252685546875,-13.685070991516113,-6.546633243560791,-2.4323654174804688
1761334328690954000,1.4369541015625,-13.077028274536133,-6.7482709884643555,-2.9491302967071533
1761334328709655300,1.4556552734375,-11.397000312805176,-6.414425849914551,-2.568416118621826
1761334328728356900,1.47435693359375,-8.892107963562012,-5.923717975616455,-1.7354995012283325
1761334328747058200,1.49305810546875,-6.7263898849487305,-4.981114387512207,0.17765527963638306
1761334328765759500,1.511759521484375,-4.317539215087891,-3.988096237182617,1.214813470840454
1761334328784460800,1.530460693359375,-2.051562786102295,-3.20756459236145,2.0143511295318604
1761334328803162400,1.549162353515625,0.40306711196899414,-1.9836184978485107,1.571770191192627
1761334328821863700,1.56786376953125,4.7413716316223145,0.7442798614501953,1.3727636337280273
1761334328840565000,1.58656494140625,9.035127639770508,3.97735857963562,-1.0169050693511963
1761334328859266600,1.6052666015625,12.192014694213867,7.014157295227051,-4.499035358428955
1761334328877968000,1.6239677734375,14.796537399291992,10.082592010498047,-3.4939472675323486
1761334328896669200,1.642669189453125,17.893280029296875,11.425949096679688,-1.081094741821289
1761334328915370800,1.661370849609375,22.343059539794922,9.645023345947266,2.641266107559204
1761334328934072000,1.680072021484375,21.819286346435547,7.450703144073486,4.269432067871094
1761334328952773400,1.6987734375,12.540176391601562,6.255095481872559,3.6250741481781006
1761334328971474700,1.717474609375,3.4566850662231445,3.6037793159484863,3.215987205505371
1761334328990176300,1.73617626953125,-3.2554006576538086,0.39827632904052734,2.1414551734924316
1761334329008877600,1.754877685546875,-8.06267261505127,-2.7684807777404785,1.0451761484146118
1761334329027579000,1.773578857421875,-12.204486846923828,-4.907013893127441,-0.16542655229568481
1761334329046280400,1.792280517578125,-13.600303649902344,-6.063864707946777,-1.4382085800170898
1761334329064981500,1.8109814453125,-13.8349609375,-6.449409484863281,-2.1057658195495605
1761334329083683000,1.82968310546875,-13.843579292297363,-6.536261558532715,-2.499478340148926
1761334329102384400,1.84838427734375,-13.023941993713379,-6.626491069793701,-2.8527846336364746
1761334329121086000,1.8670859375,-10.935235977172852,-6.472509384155273,-2.4651002883911133
1761334329139787300,1.885787353515625,-8.374469757080078,-5.708614826202393,-0.9886916875839233
1761334329158488600,1.904488525390625,-6.64627742767334,-4.802532196044922,0.5872354507446289
1761334329177190000,1.92318994140625,-4.381776332855225,-3.795698881149292,1.6426836252212524
1761334329195891500,1.941891357421875,-0.1520085334777832,-2.502345323562622,2.709791660308838
1761334329214592800,1.9605927734375,6.633727073669434,-0.48102402687072754,4.028808116912842
1761334329233294000,1.979294189453125,10.239738464355469,2.555267095565796,1.8724497556686401
1761334329251995600,1.99799560546875,9.213785171508789,6.316850662231445,-2.558072566986084
1761334329270697000,2.016697021484375,11.353341102600098,9.466477394104004,-4.127964973449707
1761334329289398300,2.035398193359375,16.91250991821289,10.095804214477539,-1.575424313545227
1761334329308099600,2.054099609375,20.727432250976562,9.316423416137695,0.9747179746627808
1761334329326801200,2.07280126953125,24.408092498779297,7.453949451446533,3.030327796936035
1761334329345502500,2.09150244140625,18.56363296508789,6.062176704406738,3.8615472316741943
1761334329364203800,2.110203857421875,6.581145286560059,3.9436750411987305,3.470643997192383
1761334329382905300,2.1289052734375,-3.5250205993652344,0.986060619354248,3.071915626525879
1761334329401606700,2.147606689453125,-8.7923002243042,-2.5439209938049316,1.7352771759033203
1761334329420308000,2.166307861328125,-10.030470848083496,-5.410091400146484,-0.09985005855560303
1761334329439009300,2.18500927734375,-11.179059028625488,-6.69700288772583,-1.442313313484192
1761334329457710800,2.2037109375,-13.68630313873291,-6.641117095947266,-2.7527410984039307
1761334329476412200,2.222412109375,-14.617234230041504,-6.531347274780273,-3.240846633911133
1761334329495113500,2.241113525390625,-13.17911148071289,-6.702923774719238,-2.7123467922210693
1761334329513814800,2.259814697265625,-10.894886016845703,-6.492295265197754,-1.951557993888855
1761334329532516400,2.278516357421875,-8.481040000915527,-5.954390525817871,-0.41346630454063416
1761334329551217700,2.2972177734375,-7.031114101409912,-4.95197057723999,1.0715925693511963
1761334329569919000,2.3159189453125,-6.211461544036865,-3.822347640991211,2.2990288734436035
1761334329588620500,2.33462060546875,-4.720419883728027,-2.8881893157958984,2.57045316696167
1761334329607321900,2.35332177734375,-0.6023759841918945,-1.7579846382141113,2.742516040802002
1761334329626023200,2.372023193359375,3.2490196228027344,0.8369975090026855,1.5583173036575317
1761334329644724500,2.390724365234375,5.595799446105957,5.157286643981934,-1.5748718976974487
1761334329663426000,2.409426025390625,10.2007417678833,9.213191986083984,-3.8185391426086426
1761334329682127400,2.42812744140625,14.939882278442383,10.57044792175293,-3.6185619831085205
1761334329700828700,2.44682861328125,18.444637298583984,10.542640686035156,-2.29935884475708
1761334329719530200,2.4655302734375,25.9238224029541,8.727021217346191,2.095723867416382
1761334329738231600,2.4842314453125,24.95879364013672,7.417705059051514,2.8584771156311035
1761334329756932900,2.502932861328125,15.230571746826172,6.069032669067383,1.6268314123153687
1761334329775634200,2.52163427734375,6.136194229125977,3.0143227577209473,2.112755298614502
1761334329794335700,2.540335693359375,-2.367110252380371,-0.33554935455322266,1.9332845211029053
1761334329813037000,2.559037109375,-7.810648441314697,-3.2599663734436035,1.4386807680130005
1761334329831738400,2.57773828125,-10.879210472106934,-5.481721878051758,0.21773964166641235
1761334329850440000,2.59643994140625,-12.492752075195312,-6.614424705505371,-1.0995569229125977
1761334329869141200,2.615141357421875,-13.722261428833008,-6.996881008148193,-2.1408746242523193
1761334329887842600,2.633842529296875,-13.69506549835205,-7.11091423034668,-2.7734568119049072
1761334329906544000,2.652544189453125,-12.357054710388184,-7.473456382751465,-2.87556529045105
1761334329925245400,2.671245361328125,-10.666749954223633,-7.262477874755859,-2.4944238662719727
1761334329943946800,2.68994677734375,-9.46953296661377,-6.6787519454956055,-1.241329312324524
1761334329962648300,2.7086484375,-8.596985816955566,-5.673157691955566,0.6607348918914795
1761334329981349600,2.727349609375,-6.847171783447266,-4.647274017333984,1.8237266540527344
1761334330000051000,2.746051025390625,-3.0755491256713867,-3.227400302886963,2.5068023204803467
1761334330018752500,2.76475244140625,2.99130916595459,-0.5483851432800293,4.169674396514893
1761334330037453800,2.783453857421875,7.3983612060546875,3.667886734008789,3.403048038482666
1761334330056155100,2.802155029296875,7.998390197753906,7.39021110534668,-0.45531314611434937
1761334330074856700,2.820856689453125,8.120205879211426,10.46092414855957,-4.488892555236816
1761334330093558000,2.83955810546875,10.589212417602539,10.427276611328125,-4.555398464202881
1761334330112259300,2.85825927734375,12.830241203308105,10.089479446411133,-2.3646159172058105
1761334330130960600,2.876960693359375,20.13898468017578,8.07390022277832,0.8282071948051453
1761334330149662200,2.895662109375,23.435653686523438,6.1403117179870605,3.2096972465515137
1761334330168363500,2.914363525390625,14.313658714294434,4.9591755867004395,2.953556537628174
1761334330187064800,2.93306494140625,5.052395820617676,2.7877326011657715,2.597227096557617
1761334330205766100,2.95176611328125,-0.7945938110351562,-0.2643771171569824,2.3631508350372314
1761334330224467700,2.9704677734375,-6.004551410675049,-3.3769421577453613,1.6028013229370117
1761334330243169000,2.9891689453125,-9.714298248291016,-5.899384498596191,-0.3780547082424164
1761334330261870300,3.007870361328125,-11.941610336303711,-6.782973289489746,-1.5023967027664185
1761334330280572000,3.026572021484375,-13.46043586730957,-6.878223419189453,-1.8565428256988525
1761334330299273200,3.045273193359375,-14.111326217651367,-6.974274635314941,-2.1456778049468994
1761334330317974500,3.063974609375,-13.545344352722168,-7.271300792694092,-2.1911020278930664
1761334330336675800,3.08267578125,-11.513683319091797,-7.138373374938965,-1.8801345825195312
1761334330355377400,3.10137744140625,-9.567168235778809,-6.53555965423584,-1.0217711925506592
1761334330374078700,3.12007861328125,-7.566961288452148,-5.74104642868042,0.1479175090789795
1761334330392780000,3.138780029296875,-5.5180511474609375,-4.749700546264648,1.3129935264587402
1761334330411481600,3.157481689453125,-2.5283379554748535,-3.9646048545837402,1.7634904384613037
1761334330430183000,3.176182861328125,2.9612245559692383,-2.1387271881103516,2.612517833709717
1761334330448884200,3.19488427734375,8.355695724487305,1.1313419342041016,1.7403146028518677
1761334330467585500,3.21358544921875,9.758533477783203,4.393333435058594,-1.452613353729248
1761334330486287000,3.232287109375,8.291748046875,8.270256042480469,-4.924823760986328
1761334330504988400,3.250988525390625,10.203670501708984,10.132101058959961,-4.451186656951904
1761334330523689700,3.269689697265625,13.809784889221191,10.946296691894531,-2.378598690032959
1761334330542391300,3.288391357421875,17.116962432861328,10.806339263916016,1.3230822086334229
1761334330561092600,3.307092529296875,21.132492065429688,8.88531494140625,4.977388381958008
1761334330579794200,3.325794189453125,14.853493690490723,6.680502414703369,4.651697158813477
1761334330598495500,3.34449560546875,5.797534942626953,4.026007175445557,3.2969841957092285
1761334330617196800,3.36319677734375,-1.1511473655700684,1.1770448684692383,2.3704376220703125
1761334330635898400,3.3818984375,-6.69536018371582,-1.8582086563110352,1.0874338150024414
1761334330654599700,3.400599609375,-11.243124008178711,-4.154051780700684,-0.36754345893859863
1761334330673301000,3.419301025390625,-13.3845853805542,-5.838468551635742,-1.5437846183776855
1761334330692002300,3.438002197265625,-14.068134307861328,-6.504852294921875,-1.9552414417266846
1761334330710703900,3.456703857421875,-13.469630241394043,-7.074248313903809,-2.6074280738830566
1761334330729405200,3.4754052734375,-11.982880592346191,-7.47463846206665,-3.2710776329040527
1761334330748106500,3.4941064453125,-10.758989334106445,-7.332880020141602,-2.8265833854675293
1761334330766807800,3.512807861328125,-9.393832206726074,-6.853188514709473,-0.7897787094116211
1761334330785509400,3.53150927734375,-8.627351760864258,-5.990128517150879,0.5698516964912415
1761334330804210700,3.550210693359375,-6.203712463378906,-5.249893665313721,1.5841022729873657
1761334330822912000,3.568912109375,-2.525186538696289,-4.211031913757324,2.3207197189331055
1761334330841613600,3.587613525390625,2.307915687561035,-2.19124698638916,2.6385180950164795
1761334330860315000,3.60631494140625,9.534558296203613,0.4800570011138916,2.0982162952423096
1761334330879016200,3.62501611328125,13.720463752746582,2.4752426147460938,-0.6923854351043701
1761334330897717500,3.643717529296875,11.921759605407715,7.168344497680664,-6.368124485015869
1761334330916419000,3.662419189453125,12.491717338562012,11.59889030456543,-5.6708784103393555
1761334330935120400,3.681120361328125,14.240497589111328,12.766745567321777,-2.166935682296753
1761334330953821700,3.69982177734375,18.418895721435547,10.28671646118164,2.527914047241211
1761334330972523300,3.718523193359375,18.810531616210938,6.757019519805908,2.9540839195251465
1761334330991224600,3.737224609375,10.551864624023438,4.5904622077941895,1.9503462314605713
1761334331009926100,3.755926025390625,1.5790700912475586,1.570220947265625,1.3126227855682373
1761334331028627500,3.77462744140625,-4.138552665710449,-1.9280771017074585,0.8495126962661743
1761334331047328800,3.793328857421875,-5.284212112426758,-5.311737060546875,-0.02392098307609558
1761334331066030300,3.8120302734375,-8.873427391052246,-6.852578163146973,0.10751082748174667
1761334331084731600,3.830731689453125,-14.147523880004883,-6.937211036682129,-0.7349592447280884
1761334331103433000,3.849432861328125,-16.328584671020508,-6.755613327026367,-1.3016701936721802
1761334331122134300,3.86813427734375,-14.668946266174316,-7.178837776184082,-1.5755008459091187
1761334331140835800,3.8868359375,-11.8578462600708,-7.334090709686279,-1.5535717010498047
1761334331159537200,3.905537109375,-10.050838470458984,-6.600094795227051,-0.33922079205513
1761334331178238500,3.924238525390625,-8.882594108581543,-5.425292491912842,0.7627755403518677
1761334331196940000,3.94293994140625,-7.795993804931641,-4.314866542816162,1.1000698804855347
1761334331215641300,3.961641357421875,-6.096675872802734,-3.5681982040405273,1.0695172548294067
1761334331234342700,3.9803427734375,-4.228025436401367,-2.294558048248291,0.6160643100738525
1761334331253044000,3.9990439453125,0.12108707427978516,-0.26404595375061035,0.1666935682296753
1761334331271745500,4.01774560546875,7.107320785522461,2.6871981620788574,-0.7339968681335449
1761334331290446800,4.03644677734375,10.99560546875,6.563450336456299,-2.2358036041259766
1761334331309148200,4.055148193359375,13.332730293273926,10.219850540161133,-3.1802380084991455
1761334331327849700,4.073849609375,16.68609619140625,11.640303611755371,-2.206155776977539
1761334331346551000,4.092551025390625,23.68671417236328,11.520386695861816,2.2622506618499756
1761334331365252600,4.111252685546875,31.370086669921875,7.597233772277832,3.9374208450317383
1761334331383954000,4.129953857421875,24.774654388427734,5.870177268981934,0.8853135704994202
1761334331402655200,4.1486552734375,12.952383041381836,3.6177003383636475,0.3897177577018738
1761334331421356800,4.167356689453125,2.6924009323120117,0.7167847156524658,0.37461185455322266
1761334331440058000,4.18605810546875,-5.764636039733887,-2.238596200942993,-0.34025031328201294
1761334331458759400,4.204759521484375,-12.821533203125,-4.356396675109863,-1.3190183639526367
1761334331477460700,4.223460693359375,-15.926239967346191,-5.912721633911133,-2.75651216506958
1761334331496162300,4.242162353515625,-15.604917526245117,-6.853362560272217,-3.3195531368255615
1761334331514863600,4.260863525390625,-13.4158353805542,-7.477930545806885,-3.2573726177215576
1761334331533565000,4.27956494140625,-12.032105445861816,-7.900278091430664,-2.955538511276245
1761334331552266500,4.2982666015625,-11.400486946105957,-7.564029693603516,-2.4573609828948975
1761334331570967800,4.3169677734375,-10.448509216308594,-6.880211353302002,-0.15509845316410065
1761334331589669000,4.335669189453125,-9.116336822509766,-5.334094524383545,2.8359720706939697
1761334331608370700,4.35437060546875,-7.792102813720703,-4.351187229156494,3.282670021057129
1761334331627072000,4.373072021484375,-5.98828125,-3.538775682449341,3.3348915576934814
1761334331645773300,4.391773193359375,-2.0513410568237305,-2.443739414215088,4.042225360870361
1761334331664475000,4.410474853515625,2.5824947357177734,-0.3605647087097168,3.4742696285247803
1761334331683176200,4.42917626953125,5.548022270202637,2.6475210189819336,1.7621504068374634
1761334331701877500,4.44787744140625,7.108858108520508,6.65711784362793,-1.636976957321167
1761334331720579000,4.4665791015625,9.140756607055664,9.022069931030273,-3.585336208343506
1761334331739280400,4.4852802734375,11.339129447937012,10.213089942932129,-4.580047130584717
1761334331757981700,4.503981689453125,11.023055076599121,10.944034576416016,-5.212656021118164
1761334331776683300,4.522683349609375,17.489246368408203,8.971721649169922,-0.927304744720459
1761334331795384600,4.541384521484375,25.912349700927734,4.809986591339111,3.949288845062256
1761334331814086000,4.5600859375,18.203262329101562,3.3396964073181152,2.620957851409912
1761334331832787200,4.578787109375,6.145389556884766,2.1665353775024414,1.5112643241882324
1761334331851488800,4.59748876953125,-2.566005229949951,0.12434053421020508,2.7272403240203857
1761334331870190000,4.616190185546875,-8.039836883544922,-2.602260112762451,3.7737739086151123
1761334331888891600,4.6348916015625,-11.540602684020996,-5.038869380950928,1.8997787237167358
1761334331907593000,4.653593017578125,-13.639147758483887,-6.229299545288086,0.3201857805252075
1761334331926294300,4.672294189453125,-14.653388977050781,-6.859711647033691,-0.5249635577201843
1761334331944995800,4.690995849609375,-13.71801471710205,-7.392971992492676,-0.909008264541626
1761334331963697200,4.709697265625,-12.188262939453125,-7.767493724822998,-1.016552209854126
1761334331982398500,4.7283984375,-10.82319164276123,-7.898293495178223,-1.3678772449493408
1761334332001100000,4.74710009765625,-9.735793113708496,-7.2930521965026855,-0.9162871241569519
1761334332019801300,4.76580126953125,-8.80606460571289,-6.446535110473633,-0.13482394814491272
1761334332038502700,4.784502685546875,-7.683712959289551,-5.80483865737915,0.4928087592124939
1761334332057204000,4.803203857421875,-6.013822555541992,-4.539820194244385,0.7856333255767822
1761334332075905500,4.821905517578125,-2.7864980697631836,-2.155003547668457,0.49416694045066833
1761334332094606800,4.84060693359375,2.576709747314453,2.0234317779541016,1.2041667699813843
1761334332113308400,4.859308349609375,11.1087007522583,6.7013163566589355,-0.9245900511741638
1761334332132009700,4.878009765625,16.572402954101562,8.771892547607422,-3.6034607887268066
1761334332150711000,4.8967109375,18.64130401611328,10.156342506408691,-2.7136759757995605
1761334332169412600,4.91541259765625,17.96145248413086,11.369024276733398,0.212703675031662
1761334332188114000,4.934114013671875,21.790971755981445,10.204952239990234,4.547999858856201
1761334332206815200,4.952815185546875,23.611984252929688,8.507100105285645,5.9552483558654785
1761334332225516800,4.971516845703125,15.164973258972168,6.660799980163574,3.1952619552612305
1761334332244218000,4.990218017578125,5.047178268432617,3.677067279815674,1.3473865985870361
1761334332262919400,5.00891943359375,-3.4926233291625977,0.20645713806152344,0.9882081747055054
1761334332281621000,5.02762109375,-10.047731399536133,-3.5208492279052734,0.11115235090255737
1761334332300322300,5.046322265625,-14.204618453979492,-5.515038013458252,-1.2107170820236206
1761334332319023600,5.065023681640625,-16.016080856323242,-6.373442649841309,-2.172719955444336
1761334332337725200,5.08372509765625,-14.828474044799805,-7.02042818069458,-2.05012845993042
1761334332356426500,5.102426513671875,-13.329763412475586,-7.496327877044678,-1.8194997310638428
1761334332375127800,5.1211279296875,-11.797531127929688,-7.828474044799805,-1.5909593105316162
1761334332393829400,5.139829345703125,-9.393736839294434,-7.48082160949707,-0.4483679533004761
1761334332412530700,5.15853076171875,-7.718654632568359,-6.371984004974365,0.5350475311279297
1761334332431232000,5.17723193359375,-6.801291465759277,-5.2342095375061035,0.8837810158729553
1761334332449933600,5.19593359375,-5.578183174133301,-3.905660390853882,1.2025443315505981
1761334332468635000,5.214634765625,-4.550469398498535,-2.180586814880371,1.341176986694336
1761334332487336200,5.233336181640625,-2.0306930541992188,0.07629585266113281,-0.3364822566509247
1761334332506037800,5.252037841796875,2.848891258239746,3.1365647315979004,-1.5284382104873657
1761334332524739000,5.270739013671875,7.141364097595215,6.6777191162109375,-2.3224422931671143
1761334332543440600,5.289440673828125,14.154362678527832,9.181646347045898,-0.3267425298690796
1761334332562142000,5.308141845703125,19.647418975830078,9.156536102294922,1.5792628526687622
1761334332580843300,5.32684326171875,22.404159545898438,8.052093505859375,3.695143461227417
1761334332599544600,5.345544677734375,27.86894989013672,6.3011980056762695,8.524340629577637
1761334332618246100,5.36424609375,22.62551498413086,6.13417911529541,5.1126179695129395
1761334332636947500,5.382947509765625,9.367802619934082,5.465574264526367,1.6011629104614258
1761334332655648800,5.401648681640625,-1.2845821380615234,3.504793643951416,0.4118351936340332
1761334332674350300,5.420350341796875,-7.734635353088379,0.7661042213439941,0.4430963099002838
1761334332693051600,5.4390517578125,-11.815759658813477,-2.3576252460479736,-0.2044726312160492
1761334332711753200,5.457753173828125,-14.296055793762207,-5.204742908477783,-1.9877970218658447
1761334332730454500,5.47645458984375,-14.661336898803711,-7.064850807189941,-2.9751455783843994
1761334332749155800,5.49515576171875,-13.294554710388184,-7.916976451873779,-2.5555922985076904
1761334332767857400,5.513857421875,-12.001875877380371,-8.132014274597168,-1.3536044359207153
1761334332786558700,5.532558837890625,-11.016845703125,-8.134918212890625,-0.6295003890991211
1761334332805260000,5.551260009765625,-9.853096008300781,-7.7132673263549805,0.31536149978637695
1761334332823961600,5.569961669921875,-8.455021858215332,-7.004180908203125,0.8154778480529785
1761334332842663000,5.588662841796875,-7.546031475067139,-6.273358345031738,0.8689568042755127
1761334332861364200,5.6073642578125,-7.087296485900879,-5.4584059715271,1.2382776737213135
1761334332880065800,5.626065673828125,-7.076284408569336,-4.557469844818115,1.7180800437927246
1761334332898767000,5.64476708984375,-6.884525299072266,-3.298116683959961,1.508639931678772
1761334332917468700,5.66346875,-1.9458446502685547,-0.9480443000793457,0.32234787940979004
1761334332936170000,5.682169921875,4.580787658691406,2.883889675140381,-0.026398539543151855
1761334332954871300,5.700871337890625,8.529997825622559,8.174331665039062,-0.3950299620628357
1761334332973572600,5.719572509765625,18.57489585876465,12.308748245239258,3.156564712524414
1761334332992274200,5.738274169921875,31.85342025756836,11.595523834228516,9.399596214294434
1761334333010975500,5.7569755859375,34.600120544433594,10.426422119140625,9.382427215576172
1761334333029677000,5.775677001953125,26.335880279541016,8.833440780639648,4.988602161407471
1761334333048378400,5.79437841796875,15.324661254882812,6.714730739593506,0.620213508605957
1761334333067079700,5.81307958984375,4.757519721984863,3.4382576942443848,-1.7712335586547852
1761334333085781200,5.83178125,-5.282448768615723,0.05467700958251953,-1.379062294960022
1761334333104482600,5.850482666015625,-12.17481517791748,-2.6996090412139893,-0.13704949617385864
1761334333123183900,5.869183837890625,-16.036556243896484,-5.107568264007568,-1.1626204252243042
1761334333141885400,5.887885498046875,-18.783021926879883,-6.435769081115723,-3.7401952743530273
1761334333160586800,5.906586669921875,-18.981107711791992,-6.924072265625,-5.106144428253174
1761334333179288000,5.9252880859375,-15.859634399414062,-7.623224258422852,-5.27634334564209
1761334333197989600,5.94398974609375,-12.463427543640137,-7.794857025146484,-4.822487831115723
1761334333216691000,5.96269091796875,-10.00574779510498,-7.399684906005859,-3.774296760559082
1761334333235392500,5.981392578125,-8.195842742919922,-6.286777496337891,-2.1902241706848145
1761334333254093800,6.00009375,-7.469288349151611,-5.210474491119385,-1.0779999494552612
1761334333272795100,6.018795166015625,-7.111644744873047,-4.352076053619385,-1.1371355056762695
1761334333291496700,6.03749658203125,-5.73551082611084,-3.4994871616363525,-0.5030852556228638
1761334333310198000,6.056197998046875,-3.3168649673461914,-2.505230188369751,-0.9751902222633362
1761334333328899600,6.074899658203125,-0.5775775909423828,-1.0183658599853516,-2.0556859970092773
1761334333347601000,6.093600830078125,4.6212568283081055,2.6508848667144775,-1.7539442777633667
1761334333366302200,6.11230224609375,13.597139358520508,7.518996238708496,-0.7072885036468506
1761334333385003800,6.131003662109375,25.59071922302246,8.76401424407959,4.0240068435668945
1761334333403705000,6.149705078125,37.45738220214844,8.115766525268555,10.622623443603516
1761334333422406400,6.168406494140625,39.3056755065918,6.542481422424316,10.344868659973145
1761334333441108000,6.18710791015625,28.462482452392578,5.798164367675781,4.139921188354492
1761334333459809300,6.205809326171875,17.32937240600586,4.198330879211426,0.5259863138198853
1761334333478510800,6.2245107421875,7.007351875305176,1.2437708377838135,-0.218741774559021
1761334333497212200,6.243212158203125,-4.239769458770752,-0.8905313014984131,2.017397880554199
1761334333515913500,6.26191357421875,-11.514102935791016,-3.093970537185669,2.874704360961914
1761334333534614800,6.28061474609375,-14.964662551879883,-5.210287570953369,1.6340208053588867
1761334333553316400,6.29931640625,-17.477127075195312,-6.271283149719238,-0.9396688938140869
1761334333572017700,6.318017578125,-17.72742462158203,-6.160768032073975,-2.0621273517608643
1761334333590719200,6.33671923828125,-15.13273811340332,-6.307007789611816,-2.0024893283843994
1761334333609420500,6.355420654296875,-13.556360244750977,-6.5747389793396,-0.7532494068145752
1761334333628122000,6.3741220703125,-13.480236053466797,-6.357804298400879,-0.23087939620018005
1761334333646823400,6.392823486328125,-12.728769302368164,-5.793341159820557,0.38679957389831543
1761334333665524700,6.411524658203125,-11.314163208007812,-5.017053127288818,1.0567779541015625
1761334333684226000,6.43022607421875,-9.52302074432373,-4.942019462585449,0.9235212802886963
1761334333702927600,6.448927734375,-8.100606918334961,-4.727573394775391,0.8754563331604004
1761334333721629000,6.46762890625,-6.572506904602051,-4.1404290199279785,0.3100804090499878
1761334333740330500,6.48633056640625,-4.2830963134765625,-2.267045497894287,-0.22808504104614258
1761334333759031800,6.50503173828125,-1.1663999557495117,0.8596093654632568,-0.9605246782302856
1761334333777733000,6.523733154296875,5.635780334472656,4.530011177062988,-2.376502513885498
1761334333796434700,6.5424345703125,13.41313362121582,7.96500825881958,0.08623051643371582
1761334333815136000,6.561135986328125,25.11874771118164,10.272161483764648,8.136621475219727
1761334333833837600,6.579837646484375,38.708961486816406,9.013609886169434,13.559077262878418
1761334333852539000,6.598538818359375,33.674495697021484,8.622091293334961,9.329904556274414
1761334333871240400,6.617240478515625,22.189788818359375,8.201078414916992,3.3513083457946777
1761334333889941800,6.635941650390625,14.28505802154541,5.2977614402771,-0.38255608081817627
1761334333908643000,6.65464306640625,6.096867561340332,1.540670394897461,-1.769960880279541
1761334333927344400,6.673344482421875,-3.9128808975219727,-1.2332146167755127,-0.7315268516540527
1761334333946046000,6.6920458984375,-11.885464668273926,-3.4177210330963135,-0.02690112590789795
1761334333964747300,6.710747314453125,-15.424135208129883,-5.237033367156982,-1.1832823753356934
1761334333983448800,6.72944873046875,-16.204113006591797,-6.649901390075684,-3.542208671569824
1761334334002150100,6.748150146484375,-15.671107292175293,-7.285919189453125,-4.681366920471191
1761334334020851500,6.7668515625,-14.84015941619873,-7.429805755615234,-3.81093692779541
1761334334039553000,6.785552978515625,-14.70979118347168,-7.466822624206543,-2.2593281269073486
1761334334058254300,6.80425439453125,-14.112602233886719,-6.988385200500488,-2.014407157897949
1761334334076956000,6.822955810546875,-13.21560001373291,-6.415164947509766,-2.28446888923645
1761334334095657200,6.8416572265625,-11.248678207397461,-5.548428535461426,-1.805010437965393
1761334334114358800,6.86035888671875,-9.618756294250488,-4.6273956298828125,-1.2172530889511108
1761334334133060000,6.87906005859375,-8.673563003540039,-3.767334461212158,-0.8837633728981018
1761334334151761400,6.897761474609375,-6.954585075378418,-2.775499105453491,-0.34413206577301025
1761334334170462700,6.916462646484375,-4.2649335861206055,-0.9946701526641846,-0.6325168013572693
1761334334189164300,6.935164306640625,-0.3924531936645508,2.0663037300109863,-1.4357043504714966
1761334334207865600,6.953865478515625,6.6627607345581055,6.314742088317871,-1.3895559310913086
1761334334226567200,6.972567138671875,21.918411254882812,8.085552215576172,4.821356773376465
1761334334245268500,6.9912685546875,37.97286605834961,7.803854942321777,14.600120544433594
1761334334263969800,7.0099697265625,39.34994125366211,7.936982154846191,14.21387767791748
1761334334282671400,7.02867138671875,32.52597427368164,7.91794490814209,9.165225982666016
1761334334301372700,7.04737255859375,23.571523666381836,6.204098701477051,3.7677369117736816
1761334334320074200,7.06607421875,12.770550727844238,3.3248348236083984,2.0196268558502197
1761334334338775600,7.084775634765625,-0.5300407409667969,0.9837982654571533,1.9948017597198486
1761334334357477000,7.10347705078125,-9.896581649780273,-1.1939096450805664,1.6175179481506348
1761334334376178400,7.122178466796875,-13.331306457519531,-3.761115789413452,0.4640517234802246
1761334334394879700,7.140879638671875,-14.579980850219727,-5.748434066772461,-1.4246934652328491
1761334334413581300,7.159581298828125,-15.323736190795898,-6.961215972900391,-2.874150514602661
1761334334432282600,7.17828271484375,-15.963484764099121,-7.357006072998047,-3.543309450149536
1761334334450984200,7.196984130859375,-15.622060775756836,-7.727170944213867,-3.2628023624420166
1761334334469685500,7.215685546875,-15.214299201965332,-7.8320488929748535,-2.60341739654541
1761334334488386800,7.23438671875,-14.996992111206055,-7.455391883850098,-2.2815449237823486
1761334334507088400,7.25308837890625,-13.945178985595703,-6.823142051696777,-1.8611083030700684
1761334334525789700,7.271789794921875,-11.899765014648438,-5.864344596862793,-0.6281461119651794
1761334334544491300,7.2904912109375,-9.88441276550293,-4.9639177322387695,0.20032376050949097
1761334334563192600,7.309192626953125,-7.320140361785889,-4.588329315185547,0.20684075355529785
1761334334581894000,7.327893798828125,-4.315113067626953,-3.802049398422241,-0.15272462368011475
1761334334600595200,7.34659521484375,-1.708503246307373,-1.6659126281738281,0.1894698143005371
1761334334619296800,7.365296875,1.982029914855957,1.6720404624938965,-0.7253214120864868
1761334334637998000,7.383998046875,8.125676155090332,6.335127353668213,-0.7032510042190552
1761334334656699600,7.40269970703125,20.241960525512695,8.668926239013672,3.661444664001465
1761334334675401000,7.42140087890625,34.66040802001953,8.720808982849121,9.049125671386719
1761334334694102500,7.4401025390625,35.82706832885742,9.129898071289062,10.342066764831543
1761334334712803800,7.458803955078125,28.714841842651367,9.381397247314453,7.972874164581299
1761334334731505200,7.477505126953125,21.941646575927734,7.863523483276367,5.12008810043335
1761334334750206700,7.496206787109375,13.188796997070312,5.01025390625,3.1453871726989746
1761334334768908000,7.514907958984375,2.942084312438965,1.7150299549102783,1.5276025533676147
1761334334787609600,7.533609619140625,-4.673543453216553,-1.2418341636657715,0.9230047464370728
1761334334806311000,7.552310791015625,-9.979920387268066,-4.0222015380859375,0.6514405012130737
1761334334825012200,7.57101220703125,-14.056387901306152,-6.239156246185303,-0.9078322052955627
1761334334843713800,7.5897138671875,-15.948579788208008,-7.424997329711914,-2.3063573837280273
1761334334862415000,7.6084150390625,-15.786201477050781,-7.9706926345825195,-2.9192633628845215
1761334334881116700,7.62711669921875,-14.893917083740234,-8.354074478149414,-2.809847354888916
1761334334899818000,7.64581787109375,-14.210318565368652,-8.405784606933594,-2.8021223545074463
1761334334918519300,7.664519287109375,-14.274171829223633,-8.009340286254883,-2.5628812313079834
1761334334937220900,7.683220947265625,-13.669837951660156,-7.044367790222168,-1.422189474105835
1761334334955922200,7.701922119140625,-11.949874877929688,-5.948136329650879,0.08267366886138916
1761334334974623700,7.720623779296875,-10.490955352783203,-5.369141578674316,0.4886855483055115
1761334334993325000,7.739324951171875,-8.723071098327637,-4.503240585327148,0.29595738649368286
1761334335012026400,7.7580263671875,-7.891637325286865,-3.512305736541748,-0.04221618175506592
1761334335030728000,7.77672802734375,-6.061307907104492,-2.0538620948791504,-0.9282981753349304
1761334335049429200,7.79542919921875,-0.8644790649414062,0.026201248168945312,-0.6987529993057251
1761334335068130800,7.814130859375,9.831713676452637,3.469851016998291,0.5244122743606567
1761334335086832000,7.83283203125,19.403472900390625,7.428903579711914,3.0178794860839844
1761334335105533400,7.851533447265625,30.608240127563477,8.194321632385254,8.488669395446777
1761334335124235000,7.870235107421875,38.89140701293945,6.003040313720703,12.185640335083008
1761334335142936300,7.888936279296875,32.747947692871094,5.974673748016357,8.6965970993042
1761334335161638000,7.907637939453125,20.593505859375,7.101365089416504,4.28061580657959
1761334335180339200,7.926339111328125,11.12132453918457,5.726413726806641,2.2460837364196777
1761334335199040500,7.94504052734375,0.840632438659668,2.8180158138275146,1.6203843355178833
1761334335217742000,7.9637421875,-7.563908100128174,-0.28649187088012695,0.9193910360336304
1761334335236443400,7.982443359375,-11.40095329284668,-3.066688299179077,-0.18503552675247192
1761334335255145000,8.00114501953125,-13.57270622253418,-4.943528175354004,-1.445146918296814
1761334335273846300,8.01984619140625,-14.577204704284668,-6.173653602600098,-2.893946886062622
1761334335292547800,8.0385478515625,-14.278175354003906,-6.758209228515625,-2.9645819664001465
1761334335311249200,8.057249267578126,-13.917447090148926,-6.867511749267578,-2.5232715606689453
1761334335329950500,8.075950439453125,-13.409838676452637,-6.830328941345215,-2.1713004112243652
1761334335348652000,8.094652099609375,-12.30160903930664,-6.3989458084106445,-1.4987071752548218
1761334335367353300,8.113353271484375,-11.025571823120117,-5.38111686706543,-0.8635340332984924
1761334335386055000,8.132054931640624,-9.18417739868164,-4.225155353546143,-0.33748602867126465
1761334335404756200,8.150756103515626,-7.447329521179199,-3.1742939949035645,0.4129941463470459
1761334335423457500,8.16945751953125,-6.408647537231445,-2.375748634338379,0.4450181722640991
1761334335442159000,8.1881591796875,-4.558124542236328,-1.649751901626587,-0.006885945796966553
1761334335460860400,8.2068603515625,-2.9392027854919434,-0.48123741149902344,-0.8830508589744568
1761334335479562000,8.22556201171875,0.9229516983032227,0.7260470390319824,-0.03405219316482544
1761334335498263300,8.24426318359375,5.876925468444824,4.3762969970703125,-1.2664763927459717
1761334335516964600,8.262964599609376,9.649298667907715,5.919173240661621,0.7525348663330078
1761334335535666200,8.281666259765625,19.639923095703125,7.288143157958984,3.5523643493652344
1761334335554367500,8.300367431640625,33.07559585571289,4.4317626953125,9.860208511352539
1761334335573069000,8.319069091796875,33.689910888671875,3.367849826812744,8.53178882598877
1761334335591770400,8.337770263671874,23.711952209472656,4.865181922912598,5.755088806152344
1761334335610471700,8.3564716796875,11.298222541809082,4.852376937866211,2.5574262142181396
1761334335629173200,8.37517333984375,0.13930892944335938,2.629546642303467,-1.2287864685058594
1761334335647874600,8.39387451171875,-7.433342933654785,-0.40258240699768066,-1.0840139389038086
1761334335666576100,8.412576171875,-11.740678787231445,-2.2809154987335205,-0.27396607398986816
1761334335685277400,8.43127734375,-14.191263198852539,-4.254449844360352,-1.8078351020812988
1761334335703978800,8.449978759765624,-15.223363876342773,-4.838289737701416,-2.4863195419311523
1761334335722680300,8.468680419921874,-15.312748908996582,-5.153524398803711,-2.688100814819336
1761334335741381600,8.487381591796876,-14.312358856201172,-5.4063720703125,-2.801629066467285
1761334335760083200,8.506083251953125,-12.949888229370117,-5.149723052978516,-2.345233917236328
1761334335778784500,8.524784423828125,-11.644633293151855,-4.914762020111084,-1.7864919900894165
1761334335797486000,8.543486083984375,-9.00429916381836,-4.75465202331543,-1.4672199487686157
1761334335816187400,8.5621875,-6.358833312988281,-4.292747974395752,-1.2068053483963013
1761334335834888700,8.580888671875,-5.918234348297119,-3.1460306644439697,-0.86424720287323
1761334335853590300,8.59959033203125,-5.922473907470703,-2.1973214149475098,-1.2413911819458008
1761334335872291600,8.61829150390625,-4.231261253356934,-1.4256041049957275,-1.3280534744262695
1761334335890993200,8.6369931640625,-2.6378393173217773,0.48951172828674316,-1.4216680526733398
1761334335909694500,8.655694580078125,-0.3595314025878906,3.303640842437744,-0.657989501953125
1761334335928395800,8.674395751953124,6.042323112487793,5.898885726928711,-0.25589418411254883
1761334335947097300,8.693097412109376,16.31021499633789,7.072735786437988,0.7215721607208252
1761334335965798700,8.711798583984375,28.659709930419922,5.927201271057129,4.165397644042969
1761334335984500200,8.730500244140625,34.081756591796875,4.654317855834961,7.467702865600586
1761334336003201500,8.749201416015625,31.48357391357422,6.019647598266602,7.4961347579956055
1761334336021903000,8.767903076171875,23.742874145507812,7.109796047210693,4.488640308380127
1761334336040604400,8.7866044921875,10.529276847839355,5.564552307128906,2.2596096992492676
1761334336059305700,8.8053056640625,-2.6690378189086914,1.8120827674865723,0.08635342121124268
1761334336078007300,8.82400732421875,-10.97709846496582,-1.873471975326538,-0.46195995807647705
1761334336096708600,8.84270849609375,-15.064935684204102,-4.510545253753662,-1.60263991355896
1761334336115410200,8.86141015625,-17.423786163330078,-5.724761962890625,-3.0286641120910645
1761334336134111500,8.880111572265625,-18.48128890991211,-6.55349588394165,-3.3830409049987793
1761334336152813000,8.89881298828125,-17.63658332824707,-6.9249725341796875,-3.356912612915039
1761334336171514400,8.917514404296876,-15.188385009765625,-6.990229606628418,-3.259042978286743
1761334336190215700,8.936215576171875,-12.555520057678223,-6.841528415679932,-2.6913461685180664
1761334336208917000,8.9549169921875,-10.266133308410645,-6.429230690002441,-1.6456621885299683
1761334336227618600,8.97361865234375,-8.296539306640625,-5.47241735458374,-0.7406971454620361
1761334336246320000,8.992320068359374,-7.099609375,-4.093163967132568,-0.4095824956893921
1761334336265021400,9.011021484375,-6.336143970489502,-2.597489356994629,-0.25572121143341064
1761334336283722800,9.02972265625,-4.559270858764648,-1.0041301250457764,-0.45883727073669434
1761334336302424300,9.04842431640625,-2.2902679443359375,1.0867247581481934,-0.36364734172821045
1761334336321125600,9.067125732421875,2.3010950088500977,3.230991840362549,0.08910882472991943
1761334336339827200,9.0858271484375,8.50506591796875,4.960282325744629,0.27689874172210693
1761334336358528500,9.104528564453124,14.206567764282227,5.738371849060059,0.4590812921524048
1761334336377229800,9.123229736328126,20.759096145629883,5.227783203125,2.5261850357055664
1761334336395931400,9.141931396484376,28.39608383178711,3.7257869243621826,6.15138053894043
1761334336414632700,9.1606328125,31.778188705444336,4.297354698181152,9.612030029296875
1761334336433334300,9.179334228515625,23.892047882080078,6.4865193367004395,5.463009834289551
1761334336452035600,9.19803564453125,11.308940887451172,6.346735954284668,-0.0806429386138916
1761334336470737000,9.21673681640625,0.33719348907470703,3.9491524696350098,-1.7519227266311646
1761334336489438500,9.2354384765625,-4.557302474975586,0.46085619926452637,-1.3767786026000977
1761334336508139800,9.254139892578126,-6.53751802444458,-2.354489326477051,-0.3021554946899414
1761334336526841300,9.27284130859375,-9.956028938293457,-4.061321258544922,-0.9238477945327759
1761334336545542700,9.291542724609375,-13.005454063415527,-5.039859771728516,-1.2902978658676147
1761334336564244000,9.310243896484375,-12.968783378601074,-5.4638991355896,-1.4982149600982666
1761334336582945500,9.328945556640624,-11.833297729492188,-5.791830539703369,-2.32031512260437
1761334336601646800,9.347646728515626,-11.262718200683594,-5.727273941040039,-2.587157726287842
1761334336620348400,9.366348388671875,-11.069900512695312,-5.490910053253174,-2.7293009757995605
1761334336639049700,9.3850498046875,-10.24970817565918,-5.364175319671631,-2.6046366691589355
1761334336657751000,9.4037509765625,-8.960441589355469,-5.0654449462890625,-1.6231536865234375
1761334336676452600,9.42245263671875,-6.95474910736084,-4.398592472076416,-1.442091703414917
1761334336695154200,9.441154296875,-4.501331329345703,-3.500868082046509,-2.1983580589294434
1761334336713855500,9.45985546875,-3.262692451477051,-2.29878568649292,-2.427546501159668
1761334336732556800,9.478556884765625,-2.360306739807129,-0.5644140243530273,-1.7183257341384888
1761334336751258400,9.49725830078125,-0.4497108459472656,1.2854394912719727,0.17157578468322754
1761334336769959700,9.515959716796875,2.902132034301758,2.797741413116455,0.9041566848754883
1761334336788661200,9.5346611328125,6.380561828613281,3.6851553916931152,1.8051784038543701
1761334336807362600,9.553362548828124,10.390649795532227,3.8151657581329346,3.19106125831604
1761334336826064000,9.57206396484375,16.53481101989746,2.9150359630584717,5.529390335083008
1761334336844765400,9.590765380859375,16.975116729736328,2.988553524017334,4.972560882568359
1761334336863466800,9.609466796875,10.937525749206543,3.7728939056396484,2.8853492736816406
1761334336882168300,9.628168212890625,5.312543869018555,3.826921224594116,1.6577962636947632
1761334336900869600,9.64686962890625,1.8221797943115234,3.3522582054138184,0.9395045042037964
1761334336919571000,9.665571044921874,-0.1660146713256836,2.41794490814209,-0.08818793296813965
1761334336938272500,9.6842724609375,-1.3475971221923828,1.4497559070587158,-0.8397848606109619
1761334336956973800,9.702973876953125,-2.2726593017578125,0.44982242584228516,-1.3040605783462524
1761334336975675400,9.72167529296875,-3.062216281890869,-0.5417177677154541,-1.3367313146591187
1761334336994376700,9.740376708984375,-3.481928825378418,-1.3938603401184082,-1.0392212867736816
1761334337013078000,9.759078125,-5.674813747406006,-1.3769066333770752,0.18633151054382324
1761334337031779600,9.777779541015626,-4.252767562866211,-2.111656427383423,-0.3791983127593994
1761334337050481000,9.79648095703125,-3.0946359634399414,-2.448077917098999,-1.123267412185669
