time,seconds_elapsed,z,y,x
1761334327307051500,0.053051513671875,0.0769689604640007,0.34315329790115356,-0.3430005609989166
1761334327325752800,0.0717529296875,0.0360410213470459,-0.039248060435056686,-0.013133592903614044
1761334327344454400,0.090454345703125,-0.03298669680953026,-0.1663079410791397,0.35094180703163147
1761334327363155700,0.10915576171875,-0.14049890637397766,-0.20540328323841095,0.6423243284225464
1761334327381857000,0.12785693359375,-0.22846342623233795,-0.14981459081172943,0.6343830823898315
1761334327400558300,0.146558349609375,-0.2370155304670334,-0.08811724185943604,0.46517354249954224
1761334327419260000,0.165260009765625,-0.14233149588108063,-0.141262486577034,0.2684750556945801
1761334327437961200,0.183961181640625,-0.0409279391169548,-0.19685117900371552,0.07116574794054031
1761334327456662500,0.20266259765625,0.03848448023200035,-0.18890993297100067,-0.1279761642217636
1761334327475364000,0.221364013671875,0.10079269111156464,-0.0850629210472107,-0.3381136655807495
1761334327494065400,0.2400654296875,0.05864302068948746,0.18432845175266266,-0.47006043791770935
1761334327512766700,0.2587666015625,-0.03298669680953026,0.54962557554245,-0.36682429909706116
1761334327531468000,0.277468017578125,-0.07757982611656189,0.661413848400116,-0.21960589289665222
1761334327550169600,0.296169677734375,0.008552107028663158,0.38408124446868896,-0.04550942778587341
1761334327568871000,0.314870849609375,0.07452550530433655,-0.026419902220368385,0.19944734871387482
1761334327587572200,0.333572265625,-0.009162971749901772,-0.13393209874629974,0.499381959438324
1761334327606273500,0.3522734375,-0.27855435013771057,0.047494735568761826,0.3081812858581543
1761334327624975000,0.37097509765625,-0.5925388336181641,0.2759581506252289,-0.41325002908706665
1761334327643676400,0.389676513671875,-0.6945532560348511,0.13545925915241241,-0.8280271887779236
1761334327662377700,0.408377685546875,-0.42088583111763,-0.22189663350582123,-1.6740748882293701
1761334327681079300,0.427079345703125,-0.22785256803035736,0.5490147471427917,-2.3142611980438232
1761334327699780600,0.445780517578125,-0.08674279600381851,1.7640247344970703,-0.8994984030723572
1761334327718482000,0.46448193359375,0.2461785078048706,1.1281145811080933,1.0876446962356567
1761334327737183200,0.483183349609375,0.4001164436340332,-0.0154243353754282,2.014937400817871
1761334327755884800,0.501884765625,0.2938259541988373,-0.33918267488479614,1.701563835144043
1761334327774586000,0.520586181640625,0.17531819641590118,0.030390523374080658,0.952032744884491
1761334327793287400,0.539287353515625,0.010995565913617611,0.2435823380947113,0.5244274139404297
1761334327811989000,0.557989013671875,-0.15149445831775665,0.2124282270669937,0.22937972843647003
1761334327830690300,0.576690185546875,-0.2162461280822754,0.11713331937789917,-0.1438586562871933
1761334327849391600,0.5953916015625,-0.19425499439239502,-0.17486004531383514,-0.4169152081012726
1761334327868093000,0.614093017578125,-0.07819069176912308,-0.5328267812728882,-0.48960810899734497
1761334327886794500,0.63279443359375,0.07941242307424545,-0.7435751557350159,-0.4358520209789276
1761334327905495800,0.651495849609375,0.22724169492721558,-0.7600684762001038,-0.4608974754810333
1761334327924197000,0.670197021484375,0.2260199636220932,-0.5945241451263428,-0.4266890585422516
1761334327942898400,0.6888984375,0.14660754799842834,-0.23533566296100616,-0.21777328848838806
1761334327961600000,0.70760009765625,0.15271618962287903,0.07376192510128021,-0.025350889191031456
1761334327980301300,0.72630126953125,0.18081597983837128,0.3058905303478241,0.12675444781780243
1761334327999002600,0.745002685546875,0.008552107028663158,0.31444263458251953,0.10109812021255493
1761334328017704200,0.7637041015625,-0.45998117327690125,0.4543306827545166,0.20677772164344788
1761334328036405500,0.782405517578125,-0.5320632457733154,0.9546289443969727,0.37293294072151184
1761334328055106800,0.80110693359375,-0.12950333952903748,0.8025236129760742,0.3454440236091614
1761334328073808100,0.81980810546875,0.29565855860710144,-0.8834632039070129,0.1383608728647232
1761334328092509700,0.838509765625,0.46975502371788025,-2.36114501953125,0.36193737387657166
1761334328111211000,0.8572109375,0.42882707715034485,-1.982408881187439,0.7363975048065186
1761334328129912300,0.875912353515625,0.2516762912273407,-0.5468766689300537,0.3643808364868164
1761334328148614000,0.89461376953125,0.018325943499803543,0.588110089302063,-0.08155044913291931
1761334328167315200,0.913315185546875,-0.15210533142089844,0.7047852277755737,-0.013744457624852657
1761334328186016500,0.9320166015625,-0.3347539007663727,0.393244206905365,0.1853974610567093
1761334328204717800,0.9507177734375,-0.4453204274177551,0.4127918779850006,0.23365578055381775
1761334328223419400,0.96941943359375,-0.41233372688293457,0.7414371371269226,0.189673513174057
1761334328242120700,0.98812060546875,-0.35124725103378296,0.9356921315193176,0.0204639695584774
1761334328260822000,1.006822021484375,-0.3292561173439026,0.8410080671310425,-0.21288637816905975
1761334328279523600,1.025523681640625,-0.2663370370864868,0.5899426341056824,-0.4315759539604187
1761334328298225000,1.044224853515625,-0.04153880476951599,0.5074759125709534,-0.6386591196060181
1761334328316926200,1.06292626953125,0.16615521907806396,0.5673406720161438,-0.8090903759002686
1761334328335627500,1.08162744140625,0.1899789422750473,0.6357575058937073,-0.8090903759002686
1761334328354329000,1.1003291015625,0.10018182545900345,0.8086322546005249,-0.7095194458961487
1761334328373030400,1.119030517578125,0.07330377399921417,0.845894992351532,-0.6239983439445496
1761334328391731700,1.137731689453125,0.10751219838857651,0.24052800238132477,-0.5140427350997925
1761334328410433300,1.156433349609375,-0.08613193035125732,-0.10827577859163284,0.09804379940032959
1761334328429134600,1.175134521484375,-0.07269290834665298,0.07192932814359665,0.5513054728507996
1761334328447836000,1.1938359375,0.05742128938436508,0.6876810193061829,0.3436114490032196
1761334328466537200,1.212537109375,-0.001832594396546483,0.7970257997512817,-0.28985533118247986
1761334328485238800,1.23123876953125,0.17898337543010712,0.1922696828842163,-1.0522146224975586
1761334328503940000,1.249940185546875,0.5558869242668152,-0.9659299254417419,-1.6117666959762573
1761334328522641400,1.268641357421875,0.8008437156677246,-1.234710454940796,-0.6062833070755005
1761334328541343000,1.287343017578125,0.8875865340232849,-0.7203623056411743,0.99968022108078
1761334328560044300,1.306044189453125,0.8142827749252319,-0.5768090486526489,1.471267819404602
1761334328578745600,1.32474560546875,0.5290089249610901,-0.687986433506012,1.0326669216156006
1761334328597447000,1.343447021484375,0.16187916696071625,-0.6495019793510437,0.5354229807853699
1761334328616148500,1.3621484375,-0.1441640853881836,-0.14492766559123993,0.1945604383945465
1761334328634849800,1.380849853515625,-0.30970844626426697,0.4903717041015625,0.000305432389723137
1761334328653551000,1.399551025390625,-0.4630354940891266,0.7261655330657959,-0.1444695144891739
1761334328672252700,1.418252685546875,-0.5051851868629456,0.40118545293807983,-0.3295615613460541
1761334328690954000,1.4369541015625,-0.4166097939014435,-0.0019853105768561363,-0.47067132592201233
1761334328709655300,1.4556552734375,-0.2461785078048706,-0.22006404399871826,-0.5690205693244934
1761334328728356900,1.47435693359375,-0.012217295356094837,-0.21151192486286163,-0.5396990180015564
1761334328747058200,1.49305810546875,0.04581485688686371,-0.26160284876823425,-0.3943132162094116
1761334328765759500,1.511759521484375,0.04520399495959282,-0.2286161482334137,-0.22266021370887756
1761334328784460800,1.530460693359375,0.023823726922273636,0.08414662629365921,-0.013133592903614044
1761334328803162400,1.549162353515625,0.056199558079242706,0.27779075503349304,0.11698060482740402
1761334328821863700,1.56786376953125,-0.04886918142437935,0.18677189946174622,0.20616686344146729
1761334328840565000,1.58656494140625,-0.09957095980644226,0.37064221501350403,0.26419901847839355
1761334328859266600,1.6052666015625,0.31581708788871765,0.4848739206790924,0.029016077518463135
1761334328877968000,1.6239677734375,0.5882627964019775,-0.29153522849082947,-0.3582721948623657
1761334328896669200,1.642669189453125,0.6701186895370483,-1.6360485553741455,-0.7467821836471558
1761334328915370800,1.661370849609375,0.6798924803733826,-1.6238312721252441,-0.5494728684425354
1761334328934072000,1.680072021484375,0.7953459620475769,-0.09117157012224197,0.18845178186893463
1761334328952773400,1.6987734375,0.8087849617004395,0.7011200785636902,0.5635227560997009
1761334328971474700,1.717474609375,0.5888736248016357,0.6168206930160522,0.712573766708374
1761334328990176300,1.73617626953125,0.258395791053772,0.0847574844956398,0.7883210182189941
1761334329008877600,1.754877685546875,-0.027488915249705315,-0.03497200831770897,0.7089085578918457
1761334329027579000,1.773578857421875,-0.1905898153781891,0.4237874448299408,0.3069595396518707
1761334329046280400,1.792280517578125,-0.2211330533027649,0.8104648590087891,-0.04917461425065994
1761334329064981500,1.8109814453125,-0.2632827162742615,0.6479747891426086,-0.1951712965965271
1761334329083683000,1.82968310546875,-0.28527384996414185,0.11163553595542908,-0.282524973154068
1761334329102384400,1.84838427734375,-0.15271618962287903,-0.24510949850082397,-0.41813695430755615
1761334329121086000,1.8670859375,0.10995566099882126,-0.3196350038051605,-0.4718930423259735
1761334329139787300,1.885787353515625,0.24495677649974823,-0.3782780170440674,-0.3393353819847107
1761334329158488600,1.904488525390625,0.19730933010578156,-0.4747946560382843,-0.19089524447917938
1761334329177190000,1.92318994140625,0.09834922850131989,-0.47784897685050964,-0.1945604383945465
1761334329195891500,1.941891357421875,0.021380268037319183,-0.1565341055393219,-0.2977965772151947
1761334329214592800,1.9605927734375,-0.18264856934547424,0.5514581799507141,-0.05711585655808449
1761334329233294000,1.979294189453125,-0.3090975880622864,1.2942698001861572,0.2525925934314728
1761334329251995600,1.99799560546875,-0.08124501258134842,1.569158911705017,-0.18784092366695404
1761334329270697000,2.016697021484375,0.21197007596492767,0.5795579552650452,-0.7699950337409973
1761334329289398300,2.035398193359375,0.21319180727005005,-0.994029700756073,-0.8084795475006104
1761334329308099600,2.054099609375,0.3023780584335327,-1.4845541715621948,-0.7290670871734619
1761334329326801200,2.07280126953125,0.5992583632469177,-0.34345871210098267,-0.05222893878817558
1761334329345502500,2.09150244140625,0.6352993845939636,0.31383177638053894,0.8830050230026245
1761334329364203800,2.110203857421875,0.37629270553588867,0.1305723488330841,1.2257001399993896
1761334329382905300,2.1289052734375,-0.04520399495959282,0.13484840095043182,0.8640682101249695
1761334329401606700,2.147606689453125,-0.3445277214050293,0.48792824149131775,0.31551164388656616
1761334329420308000,2.166307861328125,-0.4001164436340332,0.8275690674781799,0.1493564397096634
1761334329439009300,2.18500927734375,-0.36285367608070374,0.9369138479232788,0.31612253189086914
1761334329457710800,2.2037109375,-0.30970844626426697,0.5563451051712036,0.25381430983543396
1761334329476412200,2.222412109375,-0.2364046722650528,0.015729768201708794,-0.038789913058280945
1761334329495113500,2.241113525390625,-0.11117739230394363,-0.25182899832725525,-0.282524973154068
1761334329513814800,2.259814697265625,0.07086031138896942,-0.3153589367866516,-0.374765545129776
1761334329532516400,2.278516357421875,0.19730933010578156,-0.3068068325519562,-0.27458372712135315
1761334329551217700,2.2972177734375,0.18264856934547424,-0.26710063219070435,-0.1127045527100563
1761334329569919000,2.3159189453125,0.04459312930703163,-0.17486004531383514,-0.05589412897825241
1761334329588620500,2.33462060546875,-0.04459312930703163,0.10430516302585602,-0.14630211889743805
1761334329607321900,2.35332177734375,-0.17898337543010712,0.43661558628082275,-0.04367683082818985
1761334329626023200,2.372023193359375,-0.30482152104377747,0.6388118267059326,0.2733619809150696
1761334329644724500,2.390724365234375,-0.2938259541988373,0.3565923273563385,0.1279761642217636
1761334329663426000,2.409426025390625,-0.20219624042510986,0.16050471365451813,-0.35766133666038513
1761334329682127400,2.42812744140625,-0.16737695038318634,-0.19929464161396027,-0.8115338683128357
1761334329700828700,2.44682861328125,0,-1.2383756637573242,-1.3912445306777954
1761334329719530200,2.4655302734375,0.11239911615848541,-1.2224931716918945,-1.0577123165130615
1761334329738231600,2.4842314453125,0.24984370172023773,-0.27137666940689087,-0.022907428443431854
1761334329756932900,2.502932861328125,0.3970620930194855,-0.10155627131462097,0.6899717450141907
1761334329775634200,2.52163427734375,0.30054548382759094,-0.18829907476902008,1.17499840259552
1761334329794335700,2.540335693359375,0.04825831577181816,-0.42531460523605347,1.2238675355911255
1761334329813037000,2.559037109375,-0.2461785078048706,-0.22434009611606598,0.9752455949783325
1761334329831738400,2.57773828125,-0.430659681558609,0.30344706773757935,0.6411026120185852
1761334329850440000,2.59643994140625,-0.5064069032669067,0.6473639607429504,0.3998109996318817
1761334329869141200,2.615141357421875,-0.5271763205528259,0.5111411213874817,0.17745621502399445
1761334329887842600,2.633842529296875,-0.4783071279525757,0.1055268943309784,-0.024740023538470268
1761334329906544000,2.652544189453125,-0.30054548382759094,-0.15347976982593536,-0.10476330667734146
1761334329925245400,2.671245361328125,-0.028099779039621353,-0.24327689409255981,-0.06750056147575378
1761334329943946800,2.68994677734375,0.16065743565559387,-0.263435423374176,-0.011911863461136818
1761334329962648300,2.7086484375,0.14782927930355072,-0.29886558651924133,-0.032681263983249664
1761334329981349600,2.727349609375,0.0720820426940918,-0.2182314395904541,-0.10231985151767731
1761334330000051000,2.746051025390625,0.08552107214927673,0.0951421856880188,-0.15179990231990814
1761334330018752500,2.76475244140625,-0.10079269111156464,0.6284271478652954,0.10231985151767731
1761334330037453800,2.783453857421875,-0.5210676789283752,0.9375247359275818,0.43890634179115295
1761334330056155100,2.802155029296875,-0.5827649831771851,1.532507061958313,0.20127993822097778
1761334330074856700,2.820856689453125,-0.37812530994415283,1.6192498207092285,-0.37781986594200134
1761334330093558000,2.83955810546875,-0.3017672002315521,0.15439607203006744,-0.6728675365447998
1761334330112259300,2.85825927734375,-0.31520622968673706,-1.8700097799301147,-1.0204496383666992
1761334330130960600,2.876960693359375,-0.15271618962287903,-2.4875941276550293,-0.8274163603782654
1761334330149662200,2.895662109375,0.043982263654470444,-1.3617702722549438,0.2764163017272949
1761334330168363500,2.914363525390625,0.07941242307424545,-0.7600684762001038,0.878728985786438
1761334330187064800,2.93306494140625,-0.10690133273601532,-0.725860059261322,0.9269872903823853
1761334330205766100,2.95176611328125,-0.40927940607070923,-0.70753413438797,0.8921679854393005
1761334330224467700,2.9704677734375,-0.7269290685653687,-0.3355174660682678,0.7455604672431946
1761334330243169000,2.9891689453125,-0.7990111112594604,0.18066325783729553,0.4877755343914032
1761334330261870300,3.007870361328125,-0.7751874327659607,0.37003132700920105,0.30146175622940063
1761334330280572000,3.026572021484375,-0.7794634699821472,0.1049160286784172,0.1493564397096634
1761334330299273200,3.045273193359375,-0.7360920310020447,-0.3770562708377838,-0.06566796451807022
1761334330317974500,3.063974609375,-0.593149721622467,-0.6507236957550049,-0.3130682110786438
1761334330336675800,3.08267578125,-0.3536907136440277,-0.755181610584259,-0.416304349899292
1761334330355377400,3.10137744140625,-0.17592905461788177,-0.8107702732086182,-0.39797839522361755
1761334330374078700,3.12007861328125,-0.15149445831775665,-0.8547525405883789,-0.31551164388656616
1761334330392780000,3.138780029296875,-0.2932150959968567,-0.7136427760124207,-0.2764163017272949
1761334330411481600,3.157481689453125,-0.36163195967674255,-0.449138343334198,-0.33200499415397644
1761334330430183000,3.176182861328125,-0.4734202027320862,0.14217877388000488,-0.1493564397096634
1761334330448884200,3.19488427734375,-0.583375871181488,0.6204859018325806,0.2868010103702545
1761334330467585500,3.21358544921875,-0.462424635887146,0.9075923562049866,0.5940660238265991
1761334330486287000,3.232287109375,-0.1130099818110466,0.39141160249710083,0.3656025826931
1761334330504988400,3.250988525390625,0.17226386070251465,-0.8749110698699951,0.07299833744764328
1761334330523689700,3.269689697265625,0.39278605580329895,-2.058767080307007,-0.24404047429561615
1761334330542391300,3.288391357421875,0.5326740741729736,-2.302502155303955,-0.591622531414032
1761334330561092600,3.307092529296875,0.5094612240791321,-1.0380120277404785,-0.16829325258731842
1761334330579794200,3.325794189453125,0.4172206521034241,-0.06734783947467804,0.3069595396518707
1761334330598495500,3.34449560546875,0.2205221801996231,0.2075413018465042,0.5061014890670776
1761334330617196800,3.36319677734375,-0.1026252806186676,0.09941824525594711,0.6588176488876343
1761334330635898400,3.3818984375,-0.43860089778900146,0.014508038759231567,0.6991347670555115
1761334330654599700,3.400599609375,-0.638353705406189,0.37858346104621887,0.3857611119747162
1761334330673301000,3.419301025390625,-0.7098248600959778,0.9326378107070923,-0.11026109009981155
1761334330692002300,3.438002197265625,-0.8081740736961365,1.1714859008789062,-0.518318772315979
1761334330710703900,3.456703857421875,-0.831997811794281,0.9790635108947754,-0.703410804271698
1761334330729405200,3.4754052734375,-0.6505709886550903,0.6491965651512146,-0.6673697829246521
1761334330748106500,3.4941064453125,-0.3970620930194855,0.4335612654685974,-0.5910117030143738
1761334330766807800,3.512807861328125,-0.33597561717033386,0.434783011674881,-0.5451968312263489
1761334330785509400,3.53150927734375,-0.38667741417884827,0.6944005489349365,-0.6783653497695923
1761334330804210700,3.550210693359375,-0.4068359434604645,1.0328196287155151,-0.8713986277580261
1761334330822912000,3.568912109375,-0.3811796307563782,1.4158318042755127,-0.926376461982727
1761334330841613600,3.587613525390625,-0.41233372688293457,1.1177297830581665,-0.7883210182189941
1761334330860315000,3.60631494140625,-0.5283980369567871,0.8483384847640991,-0.09010255336761475
1761334330879016200,3.62501611328125,-0.3689623177051544,1.0566433668136597,0.8194751143455505
1761334330897717500,3.643717529296875,0.205861434340477,0.47815442085266113,0.7944296598434448
1761334330916419000,3.662419189453125,0.3549124300479889,-1.0532835721969604,0.32100942730903625
1761334330935120400,3.681120361328125,0.08491020649671555,-2.366032123565674,-0.4150826036930084
1761334330953821700,3.69982177734375,-0.15577052533626556,-1.9121594429016113,-0.9972367286682129
1761334330972523300,3.718523193359375,-0.10201441496610641,0.07009673118591309,-0.8469640016555786
1761334330991224600,3.737224609375,-0.15149445831775665,0.7878628373146057,-0.581848680973053
1761334331009926100,3.755926025390625,-0.3946186602115631,0.0896444097161293,-0.3136790692806244
1761334331028627500,3.77462744140625,-0.564439058303833,-0.8022181987762451,0.07238747924566269
1761334331047328800,3.793328857421875,-0.42088583111763,-0.7857248187065125,0.7724385261535645
1761334331066030300,3.8120302734375,-0.3390299379825592,-0.32330018281936646,1.2959495782852173
1761334331084731600,3.830731689453125,-0.347582072019577,-0.2597702443599701,1.0375537872314453
1761334331103433000,3.849432861328125,-0.3805687427520752,-0.5584831237792969,0.4010327160358429
1761334331122134300,3.86813427734375,-0.3035998046398163,-0.771064043045044,-0.07605266571044922
1761334331140835800,3.8868359375,-0.050090912729501724,-0.7399099469184875,-0.2660316228866577
1761334331159537200,3.905537109375,0.09896009415388107,-0.5975784659385681,-0.3326158821582794
1761334331178238500,3.924238525390625,0.0769689604640007,-0.49312058091163635,-0.3851502537727356
1761334331196940000,3.94293994140625,0.014049889519810677,-0.3623955249786377,-0.45967575907707214
1761334331215641300,3.961641357421875,-0.020769402384757996,-0.0025961752980947495,-0.4828886091709137
1761334331234342700,3.9803427734375,-0.0409279391169548,0.22647811472415924,-0.4761691093444824
1761334331253044000,3.9990439453125,-0.040317077189683914,-0.039858926087617874,-0.35277441143989563
1761334331271745500,4.01774560546875,-0.033597562462091446,-0.2548833191394806,0.14813470840454102
1761334331290446800,4.03644677734375,-0.009162971749901772,-0.16936226189136505,0.33017241954803467
1761334331309148200,4.055148193359375,0.12400554865598679,0.13851359486579895,-0.21777328848838806
1761334331327849700,4.073849609375,0.27000224590301514,-0.4405862092971802,-1.1224640607833862
1761334331346551000,4.092551025390625,0.15210533142089844,-1.3770419359207153,-1.6771292686462402
1761334331365252600,4.111252685546875,0.10323614627122879,-0.1821904182434082,-0.7302888631820679
1761334331383954000,4.129953857421875,0.40317076444625854,0.8764382600784302,0.3863719701766968
1761334331402655200,4.1486552734375,0.42271843552589417,0.651029109954834,1.1603376865386963
1761334331421356800,4.167356689453125,0.22724169492721558,-0.029474224895238876,1.7137811183929443
1761334331440058000,4.18605810546875,-0.0054977829568088055,-0.14004075527191162,1.8249585628509521
1761334331458759400,4.204759521484375,-0.10629047453403473,0.4634936451911926,1.232419729232788
1761334331477460700,4.223460693359375,-0.0256563201546669,1.0865757465362549,0.41935867071151733
1761334331496162300,4.242162353515625,0.1380554437637329,1.0737475156784058,-0.03634645417332649
1761334331514863600,4.260863525390625,0.3274235129356384,0.5954404473304749,0.023518294095993042
1761334331533565000,4.27956494140625,0.593149721622467,0.18005239963531494,0.27947062253952026
1761334331552266500,4.2982666015625,0.9126319885253906,-0.017867794260382652,0.3698786199092865
1761334331570967800,4.3169677734375,1.018311619758606,0.027336198836565018,0.30024003982543945
1761334331589669000,4.335669189453125,0.6603448390960693,0.1568395346403122,0.20372340083122253
1761334331608370700,4.35437060546875,0.3347539007663727,0.360868364572525,0.04062250629067421
1761334331627072000,4.373072021484375,0.2101374864578247,0.6125446557998657,-0.1591302752494812
1761334331645773300,4.391773193359375,0.10995566099882126,0.9399681687355042,-0.15546508133411407
1761334331664475000,4.410474853515625,-0.025045456364750862,0.855668842792511,0.18173226714134216
1761334331683176200,4.42917626953125,-0.1905898153781891,0.6766854524612427,0.5488619804382324
1761334331701877500,4.44787744140625,-0.20891575515270233,0.688902735710144,0.5677987933158875
1761334331720579000,4.4665791015625,-0.08857539296150208,0.69012451171875,0.21471896767616272
1761334331739280400,4.4852802734375,0.03237583488225937,0.46654796600341797,-0.16096286475658417
1761334331757981700,4.503981689453125,0.23945899307727814,-0.5761982202529907,-0.9605848789215088
1761334331776683300,4.522683349609375,0.37751442193984985,-1.820529818534851,-1.4663809537887573
1761334331795384600,4.541384521484375,0.37262752652168274,-0.7655662894248962,-0.44990190863609314
1761334331814086000,4.5600859375,0.4917461574077606,0.42012226581573486,0.5207622051239014
1761334331832787200,4.578787109375,0.5290089249610901,0.4757109582424164,0.9416480660438538
1761334331851488800,4.59748876953125,0.2614501118659973,0.004123337101191282,1.0699297189712524
1761334331870190000,4.616190185546875,-0.24006985127925873,0.06215549260377884,1.0161736011505127
1761334331888891600,4.6348916015625,-0.4984656572341919,0.3657552897930145,0.8109229803085327
1761334331907593000,4.653593017578125,-0.5907062292098999,0.36514443159103394,0.5531380772590637
1761334331926294300,4.672294189453125,-0.6414080262184143,0.0487164668738842,0.22327107191085815
1761334331944995800,4.690995849609375,-0.6316341757774353,-0.2952004075050354,-0.03145953640341759
1761334331963697200,4.709697265625,-0.5711585879325867,-0.43203410506248474,-0.15668681263923645
1761334331982398500,4.7283984375,-0.38850998878479004,-0.31841325759887695,-0.25503605604171753
1761334332001100000,4.74710009765625,-0.21197007596492767,-0.18646647036075592,-0.3228420317173004
1761334332019801300,4.76580126953125,-0.13988803327083588,-0.2591593861579895,-0.33689191937446594
1761334332038502700,4.784502685546875,-0.08613193035125732,-0.34345871210098267,-0.31490078568458557
1761334332057204000,4.803203857421875,-0.027488915249705315,-0.32757624983787537,-0.30146175622940063
1761334332075905500,4.821905517578125,0.06414080411195755,-0.23594652116298676,-0.3399462401866913
1761334332094606800,4.84060693359375,-0.1026252806186676,-0.07895427197217941,-0.4572322964668274
1761334332113308400,4.859308349609375,-0.27550002932548523,-0.04718930274248123,-0.364991694688797
1761334332132009700,4.878009765625,-0.05742128938436508,-0.19624030590057373,-0.19272783398628235
1761334332150711000,4.8967109375,0.2467893660068512,-0.5658134818077087,-0.2672533392906189
1761334332169412600,4.91541259765625,0.4361574649810791,-1.3055707216262817,-0.9728021621704102
1761334332188114000,4.934114013671875,0.4257727563381195,-1.0135773420333862,-1.2947279214859009
1761334332206815200,4.952815185546875,0.205861434340477,0.37919431924819946,-0.5048797130584717
1761334332225516800,4.971516845703125,0.07819069176912308,0.9784526824951172,0.33628106117248535
1761334332244218000,4.990218017578125,-0.021991131827235222,0.8122974634170532,0.9337068200111389
1761334332262919400,5.00891943359375,-0.3194822669029236,0.3455967605113983,1.240360975265503
1761334332281621000,5.02762109375,-0.535728394985199,0.4085158109664917,1.0748165845870972
1761334332300322300,5.046322265625,-0.564439058303833,0.6754637360572815,0.5867356061935425
1761334332319023600,5.065023681640625,-0.471587598323822,0.48731738328933716,0.05833758786320686
1761334332337725200,5.08372509765625,-0.34086254239082336,0.006566796451807022,-0.1945604383945465
1761334332356426500,5.102426513671875,-0.18142683804035187,-0.28725916147232056,-0.2770271897315979
1761334332375127800,5.1211279296875,0.05803215503692627,-0.37522369623184204,-0.383928507566452
1761334332393829400,5.139829345703125,0.2315177470445633,-0.3966039717197418,-0.3539961278438568
1761334332412530700,5.15853076171875,0.2834412455558777,-0.44791659712791443,-0.27091851830482483
1761334332431232000,5.17723193359375,0.29993459582328796,-0.4381427764892578,-0.2984074354171753
1761334332449933600,5.19593359375,0.24373504519462585,-0.1766926348209381,-0.3295615613460541
1761334332468635000,5.214634765625,0.10201441496610641,0.1611155867576599,-0.3857611119747162
1761334332487336200,5.233336181640625,0.09101885557174683,0.25763222575187683,-0.3546070158481598
1761334332506037800,5.252037841796875,0.08063415437936783,-0.03130681812763214,0.04367683082818985
1761334332524739000,5.270739013671875,0.08368847519159317,-0.9036217331886292,0.13225223124027252
1761334332543440600,5.289440673828125,0.04276053607463837,-1.0593922138214111,-0.09315688163042068
1761334332562142000,5.308141845703125,-0.004276053514331579,-0.7490729093551636,-0.3656025826931
1761334332580843300,5.32684326171875,0.21502439677715302,-1.032514214515686,-0.8823941946029663
1761334332599544600,5.345544677734375,0.10140355676412582,0.0639880821108818,-0.48044514656066895
1761334332618246100,5.36424609375,0.06047561392188072,1.35657799243927,0.5592467188835144
1761334332636947500,5.382947509765625,0.06047561392188072,1.3724604845046997,1.0528254508972168
1761334332655648800,5.401648681640625,-0.06352993845939636,0.8532254099845886,1.13712477684021
1761334332674350300,5.420350341796875,-0.31031930446624756,0.44089165329933167,1.0180062055587769
1761334332693051600,5.4390517578125,-0.5589412450790405,0.596662163734436,0.703410804271698
1761334332711753200,5.457753173828125,-0.5345066785812378,0.7524327039718628,0.29901832342147827
1761334332730454500,5.47645458984375,-0.2968802750110626,0.5471821427345276,0.01802051067352295
1761334332749155800,5.49515576171875,-0.04764745384454727,0.1513417512178421,-0.03451386094093323
1761334332767857400,5.513857421875,0.09896009415388107,-0.1052214577794075,-0.03940077871084213
1761334332786558700,5.532558837890625,0.2412915825843811,-0.17363831400871277,-0.14691297709941864
1761334332805260000,5.551260009765625,0.30115634202957153,-0.11866047978401184,-0.28435754776000977
1761334332823961600,5.569961669921875,0.29626941680908203,-0.02825249545276165,-0.3277289569377899
1761334332842663000,5.588662841796875,0.31520622968673706,0.13179408013820648,-0.3081812858581543
1761334332861364200,5.6073642578125,0.32070401310920715,0.4634936451911926,-0.2764163017272949
1761334332880065800,5.626065673828125,0.27977606654167175,0.8617774844169617,-0.26908594369888306
1761334332898767000,5.64476708984375,0.24434591829776764,0.7151699662208557,-0.4010327160358429
1761334332917468700,5.66346875,0.41294458508491516,0.23014330863952637,-0.41813695430755615
1761334332936170000,5.682169921875,0.5729911923408508,-0.3257436454296112,-0.15118902921676636
1761334332954871300,5.700871337890625,0.7079922556877136,-1.5712969303131104,-0.5885682106018066
1761334332973572600,5.719572509765625,0.6322450637817383,-2.9121451377868652,-1.648418664932251
1761334332992274200,5.738274169921875,0.3035998046398163,-1.7539454698562622,-1.8469496965408325
1761334333010975500,5.7569755859375,0.010384701192378998,0.6308705806732178,-1.387579321861267
1761334333029677000,5.775677001953125,-0.1484401375055313,1.734092354774475,-0.5940660238265991
1761334333048378400,5.79437841796875,-0.20647229254245758,0.7377719283103943,0.42424559593200684
1761334333067079700,5.81307958984375,-0.1795942485332489,-0.8211549520492554,1.4114030599594116
1761334333085781200,5.83178125,-0.20891575515270233,-1.4442371129989624,1.6526947021484375
1761334333104482600,5.850482666015625,-0.5656607747077942,-0.9237802624702454,1.1804962158203125
1761334333123183900,5.869183837890625,-0.9388991594314575,-0.1107192412018776,0.5433642268180847
1761334333141885400,5.887885498046875,-1.0293071269989014,0.06215549260377884,-0.17318016290664673
1761334333160586800,5.906586669921875,-0.9101884961128235,-0.3361283540725708,-0.8390227556228638
1761334333179288000,5.9252880859375,-0.6298015713691711,-0.7936660647392273,-1.0980294942855835
1761334333197989600,5.94398974609375,-0.2510654330253601,-0.9830341339111328,-1.0424407720565796
1761334333216691000,5.96269091796875,0.08124501258134842,-0.8449786901473999,-0.8860593438148499
1761334333235392500,5.981392578125,0.20830489695072174,-0.605519711971283,-0.6722567081451416
1761334333254093800,6.00009375,0.18814635276794434,-0.3355174660682678,-0.5225948095321655
1761334333272795100,6.018795166015625,0.2712239623069763,0.07009673118591309,-0.5885682106018066
1761334333291496700,6.03749658203125,0.34636032581329346,0.5575668215751648,-0.6979129910469055
1761334333310198000,6.056197998046875,0.43921178579330444,0.6791289448738098,-0.6026180982589722
1761334333328899600,6.074899658203125,0.6536253094673157,0.2845102846622467,-0.43890634179115295
1761334333347601000,6.093600830078125,0.7098248600959778,-0.8553634285926819,-0.41935867071151733
1761334333366302200,6.11230224609375,0.7892373204231262,-1.7484476566314697,-0.9532544612884521
1761334333385003800,6.131003662109375,0.7776308655738831,-1.5657991170883179,-1.500589370727539
1761334333403705000,6.149705078125,0.46425724029541016,-0.34895649552345276,-1.3661991357803345
1761334333422406400,6.168406494140625,0.19608759880065918,1.4781399965286255,-0.5073232054710388
1761334333441108000,6.18710791015625,0.3549124300479889,2.2056798934936523,0.3399462401866913
1761334333459809300,6.205809326171875,0.5790998339653015,1.2881611585617065,1.3362667560577393
1761334333478510800,6.2245107421875,0.6860011219978333,0.037720900028944016,2.3258676528930664
1761334333497212200,6.243212158203125,0.3500255048274994,-0.09117157012224197,2.291659116744995
1761334333515913500,6.26191357421875,-0.15577052533626556,1.0236566066741943,1.4785982370376587
1761334333534614800,6.28061474609375,-0.5149590373039246,1.9552254676818848,0.8127555847167969
1761334333553316400,6.29931640625,-0.545502245426178,1.74508798122406,0.4841103255748749
1761334333572017700,6.318017578125,-0.4062250852584839,0.5752819180488586,0.38209593296051025
1761334333590719200,6.33671923828125,-0.1692095398902893,-0.4124864339828491,0.499381959438324
1761334333609420500,6.355420654296875,0.009162971749901772,-0.5181660652160645,0.5623010396957397
1761334333628122000,6.3741220703125,0.13988803327083588,-0.2182314395904541,0.3032943606376648
1761334333646823400,6.392823486328125,0.17653992772102356,-0.010537417605519295,-0.060781046748161316
1761334333665524700,6.411524658203125,0.05803215503692627,-0.11255183815956116,-0.282524973154068
1761334333684226000,6.43022607421875,0.003665188793092966,-0.25610506534576416,-0.31490078568458557
1761334333702927600,6.448927734375,0.03237583488225937,-0.2848156988620758,-0.23976442217826843
1761334333721629000,6.46762890625,0.1948658674955368,-0.1259908676147461,-0.21716243028640747
1761334333740330500,6.48633056640625,0.3836230933666229,-0.15042544901371002,-0.29901832342147827
1761334333759031800,6.50503173828125,0.4838049113750458,-0.7038689255714417,-0.4523453712463379
1761334333777733000,6.523733154296875,0.8112284541130066,-2.0410518646240234,-0.6869174242019653
1761334333796434700,6.5424345703125,1.1685843467712402,-2.9524621963500977,-1.2159262895584106
1761334333815136000,6.561135986328125,0.8796452879905701,-2.9127559661865234,-1.7712024450302124
1761334333833837600,6.579837646484375,0.24740023910999298,-0.5371028780937195,-1.1902700662612915
1761334333852539000,6.598538818359375,-0.11606431007385254,1.5184571743011475,-0.5097666382789612
1761334333871240400,6.617240478515625,-0.22663083672523499,1.6204715967178345,-0.051618073135614395
1761334333889941800,6.635941650390625,-0.17226386070251465,0.8538362383842468,0.7779362797737122
1761334333908643000,6.65464306640625,-0.0818558782339096,0.1672242283821106,1.6838487386703491
1761334333927344400,6.673344482421875,-0.26878049969673157,0.13851359486579895,1.8341214656829834
1761334333946046000,6.6920458984375,-0.6633991599082947,0.7163916826248169,1.1774418354034424
1761334333964747300,6.710747314453125,-0.934012234210968,1.1470513343811035,0.4321868419647217
1761334333983448800,6.72944873046875,-0.8252783417701721,0.938746452331543,0.11942406743764877
1761334334002150100,6.748150146484375,-0.4868592321872711,0.028557928279042244,0.210442915558815
1761334334020851500,6.7668515625,-0.20891575515270233,-0.7509055137634277,0.3069595396518707
1761334334039553000,6.785552978515625,-0.0873536616563797,-0.7283035516738892,0.11026109009981155
1761334334058254300,6.80425439453125,-0.011606430634856224,-0.347123920917511,-0.23915356397628784
1761334334076956000,6.822955810546875,0.15821397304534912,-0.06001746281981468,-0.5861247777938843
1761334334095657200,6.8416572265625,0.28405213356018066,-0.11133010685443878,-0.7040216326713562
1761334334114358800,6.86035888671875,0.3023780584335327,-0.3092502951622009,-0.6026180982589722
1761334334133060000,6.87906005859375,0.3555232882499695,-0.3513999581336975,-0.5910117030143738
1761334334151761400,6.897761474609375,0.42455101013183594,-0.06979130208492279,-0.6478220820426941
1761334334170462700,6.916462646484375,0.4679224193096161,0.04199695214629173,-0.6783653497695923
1761334334189164300,6.935164306640625,0.5607738494873047,-0.7496837973594666,-0.8035926222801208
1761334334207865600,6.953865478515625,0.7721330523490906,-2.735605239868164,-1.1939351558685303
1761334334226567200,6.972567138671875,1.0054833889007568,-3.9023568630218506,-1.4401136636734009
1761334334245268500,6.9912685546875,0.6774490475654602,-1.5548036098480225,-0.9978476166725159
1761334334263969800,7.0099697265625,0.37262752652168274,1.448818564414978,-0.620333194732666
1761334334282671400,7.02867138671875,0.10445787757635117,2.184910535812378,-0.003359756199643016
1761334334301372700,7.04737255859375,0.08552107214927673,1.333975911140442,1.10230553150177
1761334334320074200,7.06607421875,0.03787361457943916,0.782365083694458,2.1334452629089355
1761334334338775600,7.084775634765625,-0.2632827162742615,0.8220712542533875,2.1920883655548096
1761334334357477000,7.10347705078125,-0.7354812026023865,1.0829105377197266,1.397353172302246
1761334334376178400,7.122178466796875,-1.0751219987869263,1.4072797298431396,0.6569850444793701
1761334334394879700,7.140879638671875,-1.082452416419983,1.5416699647903442,0.27397283911705017
1761334334413581300,7.159581298828125,-0.8393282294273376,1.3498584032058716,0.1847866028547287
1761334334432282600,7.17828271484375,-0.5467239618301392,0.6595812439918518,0.20861032605171204
1761334334450984200,7.196984130859375,-0.27366742491722107,-0.017256930470466614,0.2458730787038803
1761334334469685500,7.215685546875,-0.020158538594841957,-0.2530507445335388,0.14691297709941864
1761334334488386800,7.23438671875,0.23945899307727814,-0.21212279796600342,-0.13591741025447845
1761334334507088400,7.25308837890625,0.472198486328125,-0.17302745580673218,-0.4572322964668274
1761334334525789700,7.271789794921875,0.5149590373039246,-0.34895649552345276,-0.6166679859161377
1761334334544491300,7.2904912109375,0.4159989058971405,-0.6348412036895752,-0.6087267398834229
1761334334563192600,7.309192626953125,0.3909534513950348,-0.735633909702301,-0.509155809879303
1761334334581894000,7.327893798828125,0.5027416944503784,-0.4082103967666626,-0.3381136655807495
1761334334600595200,7.34659521484375,0.5259546041488647,-0.29214608669281006,-0.2965748608112335
1761334334619296800,7.365296875,0.6004800796508789,-0.6171261668205261,-0.4889972507953644
1761334334637998000,7.383998046875,0.7440332770347595,-1.7105741500854492,-1.0497710704803467
1761334334656699600,7.40269970703125,0.7922916412353516,-2.2304201126098633,-1.4034618139266968
1761334334675401000,7.42140087890625,0.6065887212753296,-1.1895064115524292,-0.7333431839942932
1761334334694102500,7.4401025390625,0.29626941680908203,0.16050471365451813,-0.061391908675432205
1761334334712803800,7.458803955078125,0.02626718580722809,0.8874338269233704,0.18845178186893463
1761334334731505200,7.477505126953125,-0.1539379209280014,1.1592686176300049,0.6459894776344299
1761334334750206700,7.496206787109375,-0.337808221578598,1.4518728256225586,1.273958444595337
1761334334768908000,7.514907958984375,-0.48563748598098755,1.3791799545288086,1.5726714134216309
1761334334787609600,7.533609619140625,-0.7293725609779358,0.9753983616828918,1.564730167388916
1761334334806311000,7.552310791015625,-1.0042617321014404,0.8880446553230286,1.3643665313720703
1761334334825012200,7.57101220703125,-1.0348049402236938,1.1305580139160156,0.9648609161376953
1761334334843713800,7.5897138671875,-0.8307760953903198,1.0596976280212402,0.6032289862632751
1761334334862415000,7.6084150390625,-0.5723803043365479,0.5465712547302246,0.48594292998313904
1761334334881116700,7.62711669921875,-0.3341430425643921,-0.11133010685443878,0.5494728684425354
1761334334899818000,7.64581787109375,-0.036651886999607086,-0.502894401550293,0.5745183229446411
1761334334918519300,7.664519287109375,0.2981020212173462,-0.48701193928718567,0.33017241954803467
1761334334937220900,7.683220947265625,0.44348782300949097,-0.3611738085746765,-0.03695731982588768
1761334334955922200,7.701922119140625,0.3329212963581085,-0.35384342074394226,-0.29413139820098877
1761334334974623700,7.720623779296875,0.20769402384757996,-0.33368489146232605,-0.4657844007015228
1761334334993325000,7.739324951171875,0.1899789422750473,-0.11743875592947006,-0.5299251675605774
1761334335012026400,7.7580263671875,0.2052505612373352,-0.019700389355421066,-0.6313287615776062
1761334335030728000,7.77672802734375,0.2968802750110626,-0.5468766689300537,-0.7999274134635925
1761334335049429200,7.79542919921875,0.3970620930194855,-1.4705042839050293,-0.9703587293624878
1761334335068130800,7.814130859375,0.5149590373039246,-2.1326816082000732,-0.9172134399414062
1761334335086832000,7.83283203125,0.5790998339653015,-1.9439244270324707,-1.352149248123169
1761334335105533400,7.851533447265625,0.35124725103378296,-0.8523091077804565,-1.7076724767684937
1761334335124235000,7.870235107421875,0.001832594396546483,0.6675224900245667,-0.9343177080154419
1761334335142936300,7.888936279296875,-0.11545344442129135,1.530063509941101,0.08155044913291931
1761334335161638000,7.907637939453125,-0.07147117704153061,1.355356216430664,0.6661480665206909
1761334335180339200,7.926339111328125,-0.1997527778148651,0.8098539710044861,1.2880083322525024
1761334335199040500,7.94504052734375,-0.4367683231830597,0.5325213670730591,1.4608831405639648
1761334335217742000,7.9637421875,-0.6725621223449707,0.7646499872207642,0.9770781993865967
1761334335236443400,7.982443359375,-0.7916807532310486,1.0822997093200684,0.4633409380912781
1761334335255145000,8.00114501953125,-0.7935133576393127,0.9179770350456238,0.1597411334514618
1761334335273846300,8.01984619140625,-0.5925388336181641,0.47693267464637756,0.013744457624852657
1761334335292547800,8.0385478515625,-0.34208428859710693,0.07009673118591309,0.03145953640341759
1761334335311249200,8.057249267578126,-0.143553227186203,-0.233503058552742,0.061391908675432205
1761334335329950500,8.075950439453125,0.043982263654470444,-0.33918267488479614,-0.016798781231045723
1761334335348652000,8.094652099609375,0.19120067358016968,-0.24755294620990753,-0.15668681263923645
1761334335367353300,8.113353271484375,0.2712239623069763,-0.22678354382514954,-0.24953825771808624
1761334335386055000,8.132054931640624,0.3072649836540222,-0.2897026240825653,-0.250149130821228
1761334335404756200,8.150756103515626,0.2620609998703003,-0.26282456517219543,-0.16279546916484833
1761334335423457500,8.16945751953125,0.17287473380565643,-0.3092502951622009,-0.08277218043804169
1761334335442159000,8.1881591796875,0.13683371245861053,-0.18952079117298126,0.03940077871084213
1761334335460860400,8.2068603515625,0.16065743565559387,-0.30253079533576965,0.05406153202056885
1761334335479562000,8.22556201171875,0.14538581669330597,0.04321868345141411,-0.06872228533029556
1761334335498263300,8.24426318359375,0.06841685622930527,-0.08933897316455841,-0.14508038759231567
1761334335516964600,8.262964599609376,-0.010384701192378998,-1.2536472082138062,-0.7718276381492615
1761334335535666200,8.281666259765625,0.09346231073141098,-2.9469645023345947,-1.510363221168518
1761334335554367500,8.300367431640625,-0.03298669680953026,-2.1748313903808594,-1.2085959911346436
1761334335573069000,8.319069091796875,0.017715077847242355,0.32849252223968506,-0.48044514656066895
1761334335591770400,8.337770263671874,-0.05558869615197182,1.2502875328063965,0.15546508133411407
1761334335610471700,8.3564716796875,-0.34697118401527405,0.8501710295677185,0.7156280875205994
1761334335629173200,8.37517333984375,-0.3799578845500946,0.32788166403770447,0.8402445316314697
1761334335647874600,8.39387451171875,-0.42088583111763,0.208152174949646,0.6209440231323242
1761334335666576100,8.412576171875,-0.6426297426223755,0.5166388750076294,0.40225446224212646
1761334335685277400,8.43127734375,-0.665842592716217,0.6760746240615845,0.30573782324790955
1761334335703978800,8.449978759765624,-0.5601630210876465,0.4433351159095764,0.3185659945011139
1761334335722680300,8.468680419921874,-0.4557051360607147,-0.042913250625133514,0.3277289569377899
1761334335741381600,8.487381591796876,-0.25350889563560486,-0.3825540542602539,0.29413139820098877
1761334335760083200,8.506083251953125,-0.05192350596189499,-0.5871937870979309,0.18295399844646454
1761334335778784500,8.524784423828125,0.036651886999607086,-0.49739664793014526,-0.07544180005788803
1761334335797486000,8.543486083984375,0.01649334840476513,-0.27259841561317444,-0.21349723637104034
1761334335816187400,8.5621875,-0.01649334840476513,-0.030695954337716103,-0.09865466505289078
1761334335834888700,8.580888671875,-0.07819069176912308,0.047494735568761826,0.03023780696094036
1761334335853590300,8.59959033203125,-0.11178825795650482,0.09330959618091583,0.07055488228797913
1761334335872291600,8.61829150390625,-0.12767073512077332,0.1055268943309784,0.1737910360097885
1761334335890993200,8.6369931640625,-0.12522727251052856,0.02977965772151947,0.17562362551689148
1761334335909694500,8.655694580078125,-0.11911863088607788,-0.11988221108913422,-0.3552178740501404
1761334335928395800,8.674395751953124,0.024434590712189674,0.07131846249103546,-1.181717872619629
1761334335947097300,8.693097412109376,0.268169641494751,-0.30863943696022034,-1.7088942527770996
1761334335965798700,8.711798583984375,0.2993237376213074,-0.7087558507919312,-1.5140283107757568
1761334335984500200,8.730500244140625,0.021991131827235222,-0.3263545036315918,-0.9147700071334839
1761334336003201500,8.749201416015625,-0.2052505612373352,0.258853942155838,-0.17256930470466614
1761334336021903000,8.767903076171875,-0.14294235408306122,0.4634936451911926,0.9514219164848328
1761334336040604400,8.7866044921875,-0.0769689604640007,0.5227475166320801,1.7327179908752441
1761334336059305700,8.8053056640625,-0.0873536616563797,0.40057456493377686,1.7174463272094727
1761334336078007300,8.82400732421875,-0.24495677649974823,0.5270236134529114,1.2605195045471191
1761334336096708600,8.84270849609375,-0.3750709891319275,0.5673406720161438,0.8842267394065857
1761334336115410200,8.86141015625,-0.34574946761131287,0.1262962967157364,0.5983420610427856
1761334336134111500,8.880111572265625,-0.26511532068252563,-0.3263545036315918,0.2415970265865326
1761334336152813000,8.89881298828125,-0.1337793916463852,-0.5248855352401733,-0.15057817101478577
1761334336171514400,8.917514404296876,0.07941242307424545,-0.6904299259185791,-0.3992001414299011
1761334336190215700,8.936215576171875,0.2864955961704254,-0.8486438989639282,-0.49999281764030457
1761334336208917000,8.9549169921875,0.36224281787872314,-0.7478511929512024,-0.5885682106018066
1761334336227618600,8.97361865234375,0.2718348205089569,-0.5236638188362122,-0.6062833070755005
1761334336246320000,8.992320068359374,0.14294235408306122,-0.34468045830726624,-0.5867356061935425
1761334336265021400,9.011021484375,-0.000610864779446274,-0.22434009611606598,-0.619722306728363
1761334336283722800,9.02972265625,-0.11484257876873016,-0.006872228812426329,-0.6270527243614197
1761334336302424300,9.04842431640625,-0.20463970303535461,0.2124282270669937,-0.6960803866386414
1761334336321125600,9.067125732421875,-0.2919933497905731,0.24174973368644714,-0.5751292109489441
1761334336339827200,9.0858271484375,-0.3023780584335327,0.10186170041561127,-0.4407389461994171
1761334336358528500,9.104528564453124,-0.07574722915887833,-0.25182899832725525,-0.5323686599731445
1761334336377229800,9.123229736328126,0.22357651591300964,-0.7411317229270935,-0.7357866168022156
1761334336395931400,9.141931396484376,0.2632827162742615,-0.8859066367149353,-0.6288852691650391
1761334336414632700,9.1606328125,-0.1233946830034256,0.19654574990272522,0.08399390429258347
1761334336433334300,9.179334228515625,-0.3029889166355133,1.0639737844467163,0.8994984030723572
1761334336452035600,9.19803564453125,-0.0720820426940918,0.967457115650177,1.3405427932739258
1761334336470737000,9.21673681640625,0.10079269111156464,0.39568766951560974,1.166446328163147
1761334336489438500,9.2354384765625,0.10629047453403473,-0.009315688163042068,0.9392045736312866
1761334336508139800,9.254139892578126,-0.07391463965177536,-0.1302669197320938,1.0344995260238647
1761334336526841300,9.27284130859375,-0.185092031955719,-0.30314165353775024,1.0571014881134033
1761334336545542700,9.291542724609375,-0.22968515753746033,-0.24205516278743744,0.7082977294921875
1761334336564244000,9.310243896484375,-0.21930044889450073,-0.18035782873630524,0.4303542375564575
1761334336582945500,9.328945556640624,-0.1185077652335167,-0.27809619903564453,0.3601047992706299
1761334336601646800,9.347646728515626,0.013439024798572063,-0.41615164279937744,0.3582721948623657
1761334336620348400,9.366348388671875,0.12095122784376144,-0.5261073112487793,0.29535311460494995
1761334336639049700,9.3850498046875,0.1747073233127594,-0.46807512640953064,0.12614357471466064
1761334336657751000,9.4037509765625,0.06414080411195755,-0.10338886082172394,-0.07483093440532684
1761334336676452600,9.42245263671875,-0.07391463965177536,0.23441936075687408,-0.16584978997707367
1761334336695154200,9.441154296875,-0.09285144507884979,0.2234237939119339,0.0027488914784044027
1761334336713855500,9.45985546875,-0.033597562462091446,0.00045814859913662076,0.250149130821228
1761334336732556800,9.478556884765625,0.04459312930703163,-0.10583232343196869,0.23182319104671478
1761334336751258400,9.49725830078125,0.040317077189683914,0.07620538026094437,0.025350889191031456
1761334336769959700,9.515959716796875,0.10995566099882126,0.08414662629365921,-0.24037529528141022
1761334336788661200,9.5346611328125,0.20952661335468292,-0.16081015765666962,-0.5073232054710388
1761334336807362600,9.553362548828124,0.258395791053772,-0.26648977398872375,-0.9196569323539734
1761334336826064000,9.57206396484375,0.10629047453403473,0.18982623517513275,-0.7541125416755676
1761334336844765400,9.590765380859375,-0.029932374134659767,0.30222535133361816,-0.09376774728298187
1761334336863466800,9.609466796875,-0.017104214057326317,0.05604684352874756,0.2055560052394867
1761334336882168300,9.628168212890625,-0.026878049597144127,0.014508038759231567,0.1389717310667038
1761334336900869600,9.64686962890625,-0.09101885557174683,0.18493930995464325,-0.008246674202382565
1761334336919571000,9.665571044921874,-0.16004657745361328,0.208152174949646,-0.08460476994514465
1761334336938272500,9.6842724609375,-0.1948658674955368,0.06276635825634003,-0.02779434807598591
1761334336956973800,9.702973876953125,-0.17287473380565643,-0.15531237423419952,0.0821613147854805
1761334336975675400,9.72167529296875,-0.14599667489528656,-0.3520108163356781,0.1805105358362198
1761334336994376700,9.740376708984375,-0.05558869615197182,-0.5560396909713745,0.3698786199092865
1761334337013078000,9.759078125,-0.050090912729501724,0.019394956529140472,0.011300998739898205
1761334337031779600,9.777779541015626,-0.050090912729501724,0.3113883137702942,-0.1340848207473755
1761334337050481000,9.79648095703125,0.017104214057326317,0.3559814393520355,-0.024740023538470268
