time,seconds_elapsed,z,y,x
1761315213727799300,0.06379931640625,-0.96405029296875,-0.20245361328125,-0.0174713134765625
1761315213737846300,0.07384619140625,-0.97735595703125,-0.2023468017578125,-0.0024566650390625
1761315213747893200,0.083893310546875,-0.984161376953125,-0.208038330078125,0.010955810546875
1761315213757941200,0.093941162109375,-0.9725494384765625,-0.213714599609375,0.0138092041015625
1761315213767988500,0.103988525390625,-0.95172119140625,-0.210906982421875,0.0108184814453125
1761315213778035500,0.114035400390625,-0.942840576171875,-0.21282958984375,0.0135650634765625
1761315213788082400,0.12408251953125,-0.9506988525390625,-0.218841552734375,0.021240234375
1761315213798130200,0.134130126953125,-0.9480133056640625,-0.220977783203125,0.0231170654296875
1761315213808177400,0.144177490234375,-0.9438934326171875,-0.21868896484375,0.020416259765625
1761315213818224400,0.154224365234375,-0.9463348388671875,-0.2181854248046875,0.0211944580078125
1761315213828271400,0.164271240234375,-0.9547119140625,-0.217315673828125,0.0159454345703125
1761315213838319400,0.1743193359375,-0.95733642578125,-0.21343994140625,0.0105133056640625
1761315213848366300,0.184366455078125,-0.961761474609375,-0.2122344970703125,0.0090789794921875
1761315213858413600,0.19441357421875,-0.9620819091796875,-0.2117156982421875,0.0068206787109375
1761315213868460500,0.20446044921875,-0.9635467529296875,-0.210662841796875,0.0120849609375
1761315213878508300,0.21450830078125,-0.97564697265625,-0.2082366943359375,0.02239990234375
1761315213888555300,0.22455517578125,-0.9873046875,-0.2032623291015625,0.032928466796875
1761315213898602200,0.234602294921875,-0.997344970703125,-0.196990966796875,0.039947509765625
1761315213908649500,0.2446494140625,-1.00091552734375,-0.191925048828125,0.04156494140625
1761315213918696400,0.254696533203125,-1.003570556640625,-0.1901092529296875,0.0392913818359375
1761315213928744200,0.264744140625,-1.004302978515625,-0.1850738525390625,0.0344696044921875
1761315213938791200,0.274791259765625,-0.9989013671875,-0.178680419921875,0.0302734375
1761315213948838400,0.28483837890625,-1.002960205078125,-0.173004150390625,0.017547607421875
1761315213958885400,0.294885498046875,-0.997894287109375,-0.1662445068359375,-0.00140380859375
1761315213968933400,0.304933349609375,-0.9935150146484375,-0.1637115478515625,-0.01153564453125
1761315213978980400,0.31498046875,-0.9976806640625,-0.1616363525390625,-0.0201416015625
1761315213989027300,0.32502734375,-0.995147705078125,-0.15869140625,-0.014739990234375
1761315213999074600,0.335074462890625,-0.985015869140625,-0.1583099365234375,-0.00286865234375
1761315214009122300,0.345122314453125,-0.97430419921875,-0.164794921875,0.01104736328125
1761315214019169300,0.355169189453125,-0.9599456787109375,-0.177642822265625,0.0203857421875
1761315214029216300,0.36521630859375,-0.9441986083984375,-0.1898651123046875,0.0234222412109375
1761315214039263200,0.37526318359375,-0.9343719482421875,-0.197021484375,0.0228271484375
1761315214049311500,0.3853115234375,-0.931488037109375,-0.2030181884765625,0.0223236083984375
1761315214059358500,0.3953583984375,-0.9394683837890625,-0.2064971923828125,0.01751708984375
1761315214069405400,0.405405517578125,-0.9503326416015625,-0.206146240234375,0.0118408203125
1761315214079452200,0.4154521484375,-0.95172119140625,-0.204315185546875,-0.0018310546875
1761315214089500400,0.42550048828125,-0.953125,-0.2035369873046875,-0.0109710693359375
1761315214099547400,0.43554736328125,-0.9595947265625,-0.20654296875,-0.015655517578125
1761315214109594400,0.445594482421875,-0.9649505615234375,-0.2104949951171875,-0.0179290771484375
1761315214119641300,0.455641357421875,-0.9720916748046875,-0.2134552001953125,-0.0144500732421875
1761315214129689300,0.465689453125,-0.974151611328125,-0.216064453125,-0.0146484375
1761315214139736300,0.475736328125,-0.962554931640625,-0.2180633544921875,-0.0144500732421875
1761315214149783300,0.485783203125,-0.952545166015625,-0.2233734130859375,-0.010833740234375
1761315214159830300,0.495830322265625,-0.942962646484375,-0.2278289794921875,-0.0068359375
1761315214169878500,0.50587841796875,-0.9365081787109375,-0.2304840087890625,-0.0034942626953125
1761315214179925500,0.515925537109375,-0.9340972900390625,-0.2351837158203125,0.001922607421875
1761315214189972500,0.525972412109375,-0.9358673095703125,-0.2393798828125,0.006805419921875
1761315214200019500,0.53601953125,-0.9471588134765625,-0.2386474609375,0.00726318359375
1761315214210067200,0.546067138671875,-0.9516754150390625,-0.231689453125,0.001373291015625
1761315214220114400,0.556114501953125,-0.951385498046875,-0.2238006591796875,0.00018310546875
1761315214230161400,0.566161376953125,-0.9525909423828125,-0.2213134765625,0.0005645751953125
1761315214240208400,0.57620849609375,-0.9547119140625,-0.21795654296875,-0.004058837890625
1761315214250256400,0.58625634765625,-0.9491729736328125,-0.218017578125,-0.000213623046875
1761315214260303400,0.596303466796875,-0.939300537109375,-0.2230072021484375,0.0059967041015625
1761315214270350300,0.606350341796875,-0.92120361328125,-0.2240447998046875,0.0091552734375
1761315214280397300,0.616397216796875,-0.8876495361328125,-0.22113037109375,0.000244140625
1761315214290445300,0.6264453125,-0.8647003173828125,-0.2222442626953125,-0.007659912109375
1761315214300496400,0.636496337890625,-0.867889404296875,-0.2228546142578125,0.0000762939453125
1761315214310543400,0.64654345703125,-0.915435791015625,-0.231658935546875,0.02642822265625
1761315214320590300,0.65659033203125,-0.9640045166015625,-0.2381744384765625,0.0397796630859375
1761315214330638000,0.66663818359375,-0.984222412109375,-0.2230224609375,0.02777099609375
1761315214340685300,0.676685302734375,-1.0023956298828125,-0.1994781494140625,0.0150299072265625
1761315214350732300,0.686732177734375,-1.0270538330078125,-0.1848602294921875,0.00323486328125
1761315214360779300,0.696779296875,-1.0215911865234375,-0.1772613525390625,-0.0139007568359375
1761315214370827300,0.7068271484375,-1.0202178955078125,-0.1691741943359375,-0.018768310546875
1761315214380874500,0.71687451171875,-1.018035888671875,-0.170074462890625,-0.01287841796875
1761315214390921500,0.72692138671875,-1.00689697265625,-0.1778106689453125,0.002899169921875
1761315214400968200,0.73696826171875,-0.994903564453125,-0.1834716796875,0.0250091552734375
1761315214411015200,0.74701513671875,-0.985260009765625,-0.18975830078125,0.04925537109375
1761315214421063200,0.757063232421875,-0.958221435546875,-0.1953277587890625,0.0621795654296875
1761315214431110400,0.7671103515625,-0.93377685546875,-0.198089599609375,0.06256103515625
1761315214441157400,0.777157470703125,-0.9422454833984375,-0.2005615234375,0.0782928466796875
1761315214451204400,0.787204345703125,-0.9664154052734375,-0.2225341796875,0.106597900390625
1761315214461252000,0.797252197265625,-1.0169219970703125,-0.2194366455078125,0.1023101806640625
1761315214471299000,0.807299072265625,-1.0334930419921875,-0.18292236328125,0.0850372314453125
1761315214481346300,0.81734619140625,-1.0303192138671875,-0.1600189208984375,0.078033447265625
1761315214491393300,0.827393310546875,-1.0020599365234375,-0.151153564453125,0.0681610107421875
1761315214501441300,0.837441162109375,-0.9105682373046875,-0.1436920166015625,0.0705108642578125
1761315214511488300,0.84748828125,-0.971221923828125,-0.1996002197265625,0.1359710693359375
1761315214521535500,0.857535400390625,-1.0206146240234375,-0.248382568359375,0.14678955078125
1761315214531582500,0.86758251953125,-0.973175048828125,-0.2515411376953125,0.1213836669921875
1761315214541630200,0.877630126953125,-0.9775238037109375,-0.2403717041015625,0.092529296875
1761315214551677200,0.88767724609375,-0.9687042236328125,-0.225250244140625,0.0584259033203125
1761315214561724200,0.89772412109375,-0.98138427734375,-0.2243804931640625,0.0437164306640625
1761315214571771400,0.907771484375,-0.9698333740234375,-0.22735595703125,0.033721923828125
1761315214581819400,0.9178193359375,-0.932861328125,-0.2387237548828125,0.013458251953125
1761315214591866400,0.927866455078125,-0.933013916015625,-0.22943115234375,0.0240478515625
1761315214601913000,0.9379130859375,-0.9466094970703125,-0.238311767578125,0.0503082275390625
1761315214611960000,0.9479599609375,-0.9274749755859375,-0.2576446533203125,0.076141357421875
1761315214622008300,0.95800830078125,-0.9251251220703125,-0.2608642578125,0.0871734619140625
1761315214632055300,0.96805517578125,-0.947357177734375,-0.2503204345703125,0.0897674560546875
1761315214642102300,0.978102294921875,-0.980499267578125,-0.2371368408203125,0.0958709716796875
1761315214652149200,0.988149169921875,-1.0036163330078125,-0.2227325439453125,0.09033203125
1761315214662197200,0.998197265625,-1.00799560546875,-0.20758056640625,0.0677490234375
1761315214672244200,1.008244140625,-1.003387451171875,-0.1915435791015625,0.0469207763671875
1761315214682291200,1.018291259765625,-1.0008392333984375,-0.1839599609375,0.032135009765625
1761315214692338200,1.028338134765625,-0.9930267333984375,-0.18634033203125,0.0216522216796875
1761315214702386400,1.038386474609375,-0.9911041259765625,-0.203125,0.02325439453125
1761315214712433400,1.048433349609375,-0.983489990234375,-0.21685791015625,0.0286865234375
1761315214722480400,1.05848046875,-0.9601593017578125,-0.222076416015625,0.02923583984375
1761315214732527400,1.06852734375,-0.943450927734375,-0.2253875732421875,0.0236053466796875
1761315214742575000,1.0785751953125,-0.92938232421875,-0.2325592041015625,0.0189208984375
1761315214752622300,1.088622314453125,-0.924346923828125,-0.2374114990234375,0.0220489501953125
1761315214762669300,1.09866943359375,-0.9310150146484375,-0.2365570068359375,0.0279388427734375
1761315214772716300,1.10871630859375,-0.930206298828125,-0.2315826416015625,0.02685546875
1761315214782764300,1.118764404296875,-0.9312286376953125,-0.2241973876953125,0.0236053466796875
1761315214792811500,1.1288115234375,-0.94989013671875,-0.2164154052734375,0.0230712890625
1761315214802858200,1.138858154296875,-0.9591522216796875,-0.2051544189453125,0.0203094482421875
1761315214812905200,1.1489052734375,-0.951690673828125,-0.1986083984375,0.01995849609375
1761315214822953200,1.158953125,-0.959686279296875,-0.203338623046875,0.027923583984375
1761315214833000200,1.169000244140625,-0.9761199951171875,-0.2104949951171875,0.0370635986328125
1761315214843047400,1.17904736328125,-0.9688720703125,-0.2087249755859375,0.040130615234375
1761315214853094400,1.189094482421875,-0.951690673828125,-0.207611083984375,0.0418243408203125
1761315214863142100,1.19914208984375,-0.9574432373046875,-0.21484375,0.046783447265625
1761315214873189000,1.209189208984375,-0.967071533203125,-0.2231903076171875,0.05120849609375
1761315214883236000,1.219236083984375,-0.9546051025390625,-0.2235107421875,0.0482025146484375
1761315214893283300,1.229283447265625,-0.9409027099609375,-0.22064208984375,0.0391082763671875
1761315214903331300,1.239331298828125,-0.9367218017578125,-0.225860595703125,0.0306243896484375
1761315214913378300,1.24937841796875,-0.94525146484375,-0.2355194091796875,0.0308837890625
1761315214923425300,1.25942529296875,-0.946014404296875,-0.233856201171875,0.0254974365234375
1761315214933472500,1.269472412109375,-0.9490966796875,-0.2274322509765625,0.01690673828125
1761315214943520300,1.279520263671875,-0.960113525390625,-0.225494384765625,0.0170135498046875
1761315214953567200,1.289567138671875,-0.9647674560546875,-0.22613525390625,0.0154266357421875
1761315214963614200,1.2996142578125,-0.9648284912109375,-0.225311279296875,0.0133209228515625
1761315214973661200,1.3096611328125,-0.969024658203125,-0.224609375,0.0126495361328125
1761315214983709400,1.31970947265625,-0.9664154052734375,-0.2263336181640625,0.0135040283203125
1761315214993756400,1.32975634765625,-0.9601593017578125,-0.230499267578125,0.01702880859375
1761315215003803100,1.33980322265625,-0.9619293212890625,-0.2353363037109375,0.0216217041015625
1761315215013850000,1.34985009765625,-0.9646453857421875,-0.2371826171875,0.0274810791015625
1761315215023898400,1.3598984375,-0.9657440185546875,-0.2323760986328125,0.0196990966796875
1761315215033945300,1.3699453125,-0.9654083251953125,-0.2281494140625,0.00775146484375
1761315215043992300,1.379992431640625,-0.9759063720703125,-0.23028564453125,0.01214599609375
1761315215054039300,1.390039306640625,-0.9851226806640625,-0.2294464111328125,0.016693115234375
1761315215064087300,1.40008740234375,-0.9802703857421875,-0.225189208984375,0.0133056640625
1761315215074134300,1.41013427734375,-0.9716644287109375,-0.228179931640625,0.00860595703125
1761315215084181200,1.42018115234375,-0.9649505615234375,-0.2327728271484375,0.009552001953125
1761315215094228200,1.430228271484375,-0.96014404296875,-0.23583984375,0.014739990234375
1761315215104276200,1.440276123046875,-0.957061767578125,-0.23748779296875,0.0165557861328125
1761315215114323500,1.450323486328125,-0.95428466796875,-0.2400360107421875,0.01556396484375
1761315215124370400,1.460370361328125,-0.9471435546875,-0.2389068603515625,0.0157928466796875
1761315215134417400,1.47041748046875,-0.951507568359375,-0.237457275390625,0.0198211669921875
1761315215144465200,1.480465087890625,-0.954437255859375,-0.2334442138671875,0.0206298828125
1761315215154512100,1.49051220703125,-0.9484710693359375,-0.2290802001953125,0.0161895751953125
1761315215164559400,1.500559326171875,-0.9417572021484375,-0.2281494140625,0.015960693359375
1761315215174606300,1.5106064453125,-0.9478759765625,-0.2288970947265625,0.0230255126953125
1761315215184654300,1.520654296875,-0.9495086669921875,-0.2274627685546875,0.026580810546875
1761315215194701300,1.530701416015625,-0.948638916015625,-0.2256622314453125,0.0322113037109375
1761315215204748300,1.540748291015625,-0.9534454345703125,-0.2260589599609375,0.0348052978515625
1761315215214795300,1.550795166015625,-0.95733642578125,-0.2238006591796875,0.0330047607421875
1761315215224843300,1.56084326171875,-0.9547119140625,-0.221282958984375,0.0284576416015625
1761315215234890200,1.57089013671875,-0.952911376953125,-0.220703125,0.026641845703125
1761315215244937200,1.580937255859375,-0.948211669921875,-0.22161865234375,0.02459716796875
1761315215254984400,1.590984375,-0.9447479248046875,-0.2230987548828125,0.0237579345703125
1761315215265032200,1.6010322265625,-0.9436798095703125,-0.22369384765625,0.022857666015625
1761315215275079200,1.6110791015625,-0.9406890869140625,-0.2245330810546875,0.020599365234375
1761315215285126100,1.621126220703125,-0.94146728515625,-0.2211456298828125,0.0130157470703125
1761315215295173000,1.631173095703125,-0.94818115234375,-0.2169036865234375,0.00506591796875
1761315215305221000,1.64122119140625,-0.9600677490234375,-0.218048095703125,0.0064697265625
1761315215315268000,1.65126806640625,-0.9720001220703125,-0.2236480712890625,0.007659912109375
1761315215325315000,1.661315185546875,-0.973846435546875,-0.2265167236328125,0.0045318603515625
1761315215335362000,1.671362060546875,-0.9691162109375,-0.2288665771484375,0.003875732421875
1761315215345410000,1.68141015625,-0.9634552001953125,-0.2314605712890625,0.00103759765625
1761315215355457000,1.69145703125,-0.9604949951171875,-0.2335052490234375,-0.0015106201171875
1761315215365504000,1.70150390625,-0.9614410400390625,-0.2315826416015625,-0.001983642578125
1761315215375551000,1.711551025390625,-0.96112060546875,-0.2296600341796875,-0.0046844482421875
1761315215385599000,1.721598876953125,-0.957763671875,-0.228790283203125,-0.00640869140625
1761315215395646200,1.731646240234375,-0.9528656005859375,-0.2289276123046875,-0.0066070556640625
1761315215405693000,1.74169287109375,-0.9484100341796875,-0.2326812744140625,-0.0023345947265625
1761315215415740000,1.751739990234375,-0.950469970703125,-0.234588623046875,0.0046539306640625
1761315215425788000,1.761787841796875,-0.9576416015625,-0.233154296875,0.0107574462890625
1761315215435835000,1.7718349609375,-0.9650421142578125,-0.23187255859375,0.012664794921875
1761315215445882000,1.781882080078125,-0.9655303955078125,-0.22930908203125,0.013397216796875
1761315215455929000,1.79192919921875,-0.9644012451171875,-0.2270965576171875,0.011627197265625
1761315215465976800,1.801976806640625,-0.962982177734375,-0.224365234375,0.0093231201171875
1761315215476023800,1.81202392578125,-0.9570159912109375,-0.2203826904296875,0.0046539306640625
1761315215486070800,1.82207080078125,-0.95098876953125,-0.2242889404296875,0.0016937255859375
1761315215496118000,1.832117919921875,-0.9543304443359375,-0.226898193359375,0.007171630859375
1761315215506166000,1.842166015625,-0.9565887451171875,-0.224945068359375,0.0068817138671875
1761315215516213000,1.852212890625,-0.9556121826171875,-0.2219390869140625,0.00494384765625
1761315215526260000,1.862260009765625,-0.9529571533203125,-0.219970703125,0.0022735595703125
1761315215536307200,1.87230712890625,-0.9587554931640625,-0.2216796875,0.0046234130859375
1761315215546355000,1.88235498046875,-0.96160888671875,-0.2216033935546875,0.0057373046875
1761315215556402000,1.89240185546875,-0.9580230712890625,-0.2199249267578125,0.0060882568359375
1761315215566449000,1.902448974609375,-0.959014892578125,-0.2199554443359375,0.0084228515625
1761315215576495900,1.912495849609375,-0.9561614990234375,-0.22113037109375,0.0106658935546875
1761315215586544000,1.922544189453125,-0.956817626953125,-0.2265777587890625,0.0160369873046875
1761315215596591000,1.932591064453125,-0.959564208984375,-0.2313385009765625,0.0202484130859375
1761315215606638000,1.94263818359375,-0.9631195068359375,-0.235687255859375,0.0232086181640625
1761315215616684800,1.952684814453125,-0.964599609375,-0.2374114990234375,0.024139404296875
1761315215626733000,1.962733154296875,-0.9662628173828125,-0.237640380859375,0.02374267578125
1761315215636780000,1.972780029296875,-0.9683990478515625,-0.2381134033203125,0.0234832763671875
1761315215646827000,1.982826904296875,-0.9680633544921875,-0.2392120361328125,0.0215911865234375
1761315215656874000,1.9928740234375,-0.9678802490234375,-0.2441864013671875,0.02227783203125
1761315215666922000,2.002921875,-0.967742919921875,-0.24945068359375,0.02667236328125
1761315215676969000,2.012968994140625,-0.970947265625,-0.2544097900390625,0.0291748046875
1761315215687016000,2.023015869140625,-0.974822998046875,-0.254974365234375,0.027862548828125
1761315215697063000,2.03306298828125,-0.975982666015625,-0.247589111328125,0.0247344970703125
1761315215707111000,2.04311083984375,-0.9781646728515625,-0.2432861328125,0.0215606689453125
1761315215717158100,2.053158203125,-0.9859619140625,-0.2433013916015625,0.0231475830078125
1761315215727205000,2.063205078125,-0.985321044921875,-0.239349365234375,0.0243377685546875
1761315215737252000,2.073252197265625,-0.9784088134765625,-0.23175048828125,0.0264434814453125
1761315215747299800,2.0832998046875,-0.975433349609375,-0.2295074462890625,0.031646728515625
1761315215757347000,2.09334716796875,-0.972503662109375,-0.2315216064453125,0.0352020263671875
1761315215767394000,2.10339404296875,-0.9643707275390625,-0.23236083984375,0.0390625
1761315215777441000,2.11344091796875,-0.9543914794921875,-0.2285614013671875,0.041015625
1761315215787489000,2.123489013671875,-0.9570159912109375,-0.22833251953125,0.04083251953125
1761315215797536000,2.133535888671875,-0.9590301513671875,-0.2292327880859375,0.03887939453125
1761315215807583000,2.1435830078125,-0.9574737548828125,-0.2224578857421875,0.0371246337890625
1761315215817630000,2.1536298828125,-0.9619140625,-0.2142181396484375,0.034759521484375
1761315215827678000,2.163677978515625,-0.9654388427734375,-0.2120208740234375,0.031585693359375
1761315215837725000,2.173724853515625,-0.962921142578125,-0.2095489501953125,0.02862548828125
1761315215847772000,2.18377197265625,-0.9653472900390625,-0.20880126953125,0.0295257568359375
1761315215857819100,2.193819091796875,-0.96722412109375,-0.2087860107421875,0.033782958984375
1761315215867867000,2.203866943359375,-0.9593048095703125,-0.21124267578125,0.0374603271484375
1761315215877913900,2.213913818359375,-0.952239990234375,-0.211639404296875,0.039642333984375
1761315215887960800,2.2239609375,-0.9499359130859375,-0.214935302734375,0.0455780029296875
1761315215898008000,2.234008056640625,-0.9455108642578125,-0.21417236328125,0.04925537109375
1761315215908056000,2.24405615234375,-0.944549560546875,-0.2119140625,0.049285888671875
1761315215918103000,2.25410302734375,-0.9539031982421875,-0.2116546630859375,0.0461883544921875
1761315215928150000,2.26414990234375,-0.9565582275390625,-0.2091827392578125,0.0399169921875
1761315215938197000,2.274197021484375,-0.9576568603515625,-0.20721435546875,0.03765869140625
1761315215948245000,2.284244873046875,-0.9604034423828125,-0.20941162109375,0.039520263671875
1761315215958292000,2.2942919921875,-0.9582672119140625,-0.2118072509765625,0.0414886474609375
1761315215968339000,2.3043388671875,-0.9521942138671875,-0.21282958984375,0.0411224365234375
1761315215978386000,2.314385986328125,-0.950836181640625,-0.215087890625,0.0432586669921875
1761315215988434200,2.32443408203125,-0.9513702392578125,-0.216949462890625,0.0417327880859375
1761315215998481200,2.334481201171875,-0.95404052734375,-0.2169647216796875,0.0416259765625
1761315216008528000,2.34452783203125,-0.9557647705078125,-0.21923828125,0.041961669921875
1761315216018576000,2.354575927734375,-0.95196533203125,-0.21954345703125,0.0404510498046875
1761315216028623000,2.364623046875,-0.95037841796875,-0.2215423583984375,0.0392303466796875
1761315216038670000,2.374670166015625,-0.949462890625,-0.22216796875,0.0391082763671875
1761315216048717000,2.384717041015625,-0.9534912109375,-0.220855712890625,0.0375518798828125
1761315216058765000,2.39476513671875,-0.9581756591796875,-0.2174224853515625,0.03369140625
1761315216068811800,2.404811767578125,-0.961395263671875,-0.2174072265625,0.0287933349609375
1761315216078859000,2.41485888671875,-0.9643402099609375,-0.2207183837890625,0.0288543701171875
1761315216088906000,2.424906005859375,-0.9693145751953125,-0.2239837646484375,0.0303955078125
1761315216098954000,2.4349541015625,-0.9691925048828125,-0.2250213623046875,0.0313873291015625
1761315216109001000,2.4450009765625,-0.964752197265625,-0.2238922119140625,0.0310821533203125
1761315216119048000,2.4550478515625,-0.96710205078125,-0.2245635986328125,0.0294647216796875
1761315216129095200,2.46509521484375,-0.96697998046875,-0.2243194580078125,0.0272979736328125
1761315216139143000,2.475142822265625,-0.96600341796875,-0.2227783203125,0.02325439453125
1761315216149190000,2.48518994140625,-0.97100830078125,-0.2184600830078125,0.0180206298828125
1761315216159236900,2.49523681640625,-0.9753265380859375,-0.215301513671875,0.014739990234375
1761315216169284000,2.5052841796875,-0.971435546875,-0.2162933349609375,0.0147552490234375
1761315216179332000,2.51533203125,-0.9681243896484375,-0.2197113037109375,0.0196380615234375
1761315216189379000,2.525379150390625,-0.9673004150390625,-0.22210693359375,0.0229949951171875
1761315216199426000,2.535426025390625,-0.9613037109375,-0.2243194580078125,0.0236358642578125
1761315216209472800,2.54547265625,-0.9581298828125,-0.2240447998046875,0.02197265625
1761315216219521000,2.55552099609375,-0.9589080810546875,-0.222930908203125,0.0212249755859375
1761315216229568000,2.565568115234375,-0.96221923828125,-0.2230224609375,0.0205230712890625
1761315216239615000,2.575614990234375,-0.962799072265625,-0.22393798828125,0.0208892822265625
1761315216249662000,2.585661865234375,-0.963592529296875,-0.222930908203125,0.0193634033203125
1761315216259710000,2.5957099609375,-0.967742919921875,-0.2220916748046875,0.0162506103515625
1761315216269757000,2.6057568359375,-0.9674224853515625,-0.2197265625,0.01397705078125
1761315216279804000,2.615803955078125,-0.9651336669921875,-0.218719482421875,0.0112762451171875
1761315216289851000,2.625850830078125,-0.9642486572265625,-0.2212677001953125,0.009857177734375
1761315216299898400,2.6358984375,-0.957611083984375,-0.221527099609375,0.0086517333984375
1761315216309945300,2.6459453125,-0.9512176513671875,-0.2183685302734375,0.008056640625
1761315216319992300,2.655992431640625,-0.9532623291015625,-0.2212371826171875,0.0122528076171875
1761315216330039300,2.666039306640625,-0.956085205078125,-0.22552490234375,0.0154876708984375
1761315216340087300,2.67608740234375,-0.9555816650390625,-0.2248382568359375,0.0159759521484375
1761315216350134300,2.68613427734375,-0.9603729248046875,-0.2232818603515625,0.0164947509765625
1761315216360181200,2.69618115234375,-0.9621734619140625,-0.2206268310546875,0.0124664306640625
1761315216370228200,2.706228271484375,-0.9575958251953125,-0.21893310546875,0.0076751708984375
1761315216380276200,2.716276123046875,-0.957427978515625,-0.217254638671875,0.0035247802734375
1761315216390323500,2.726323486328125,-0.9599151611328125,-0.2152862548828125,0.0019073486328125
1761315216400370400,2.736370361328125,-0.9654998779296875,-0.21197509765625,-0.0000762939453125
1761315216410417400,2.74641748046875,-0.968048095703125,-0.2106475830078125,-0.000762939453125
1761315216420465200,2.756465087890625,-0.9723358154296875,-0.2097625732421875,-0.0003814697265625
1761315216430512000,2.76651220703125,-0.974609375,-0.209564208984375,-0.00006103515625
1761315216440559400,2.776559326171875,-0.9671478271484375,-0.2083740234375,0.002288818359375
1761315216450606300,2.7866064453125,-0.9602813720703125,-0.206268310546875,0.002685546875
1761315216460654300,2.796654296875,-0.9546051025390625,-0.2080535888671875,0.00537109375
1761315216470701300,2.806701416015625,-0.952911376953125,-0.2134552001953125,0.0107269287109375
1761315216480748300,2.816748291015625,-0.9547576904296875,-0.2138824462890625,0.0140228271484375
1761315216490796300,2.82679638671875,-0.94866943359375,-0.2109222412109375,0.0121002197265625
1761315216500843300,2.83684326171875,-0.939056396484375,-0.2111968994140625,0.0071868896484375
1761315216510890200,2.84689013671875,-0.9358673095703125,-0.2129058837890625,0.0050506591796875
1761315216520937200,2.856937255859375,-0.932586669921875,-0.2164306640625,0.00494384765625
1761315216530985500,2.8669853515625,-0.9355010986328125,-0.21533203125,0.00213623046875
1761315216541032200,2.8770322265625,-0.9425811767578125,-0.2116851806640625,-0.0022125244140625
1761315216551079200,2.8870791015625,-0.959197998046875,-0.2135009765625,-0.009918212890625
1761315216561126100,2.897126220703125,-0.962646484375,-0.210723876953125,-0.0142059326171875
1761315216571174400,2.90717431640625,-0.9736328125,-0.2069854736328125,-0.01519775390625
1761315216581221400,2.917221435546875,-0.981597900390625,-0.208648681640625,-0.0142974853515625
1761315216591268400,2.927268310546875,-0.9827728271484375,-0.2132720947265625,-0.008087158203125
1761315216601315300,2.9373154296875,-0.987762451171875,-0.2147369384765625,-0.0045013427734375
1761315216611363000,2.947363037109375,-0.9828643798828125,-0.214447021484375,-0.0059051513671875
1761315216621410300,2.957410400390625,-0.9762725830078125,-0.2140655517578125,-0.0082855224609375
1761315216631457300,2.967457275390625,-0.9771575927734375,-0.215362548828125,-0.0090484619140625
1761315216641504300,2.977504150390625,-0.976806640625,-0.217498779296875,-0.0059356689453125
1761315216651552300,2.98755224609375,-0.971282958984375,-0.2177276611328125,-0.0045928955078125
1761315216661599500,2.997599609375,-0.9673614501953125,-0.215911865234375,-0.004608154296875
1761315216671646500,3.007646484375,-0.9671630859375,-0.2154998779296875,-0.00347900390625
1761315216681693400,3.017693359375,-0.9646453857421875,-0.212158203125,-0.0027008056640625
1761315216691741200,3.0277412109375,-0.9677886962890625,-0.2084808349609375,-0.000885009765625
1761315216701788200,3.0377880859375,-0.9761505126953125,-0.209136962890625,0.001434326171875
1761315216711835400,3.04783544921875,-0.98138427734375,-0.2080841064453125,0.0016326904296875
1761315216721882400,3.05788232421875,-0.977142333984375,-0.2051849365234375,-0.001800537109375
1761315216731930400,3.067930419921875,-0.9741363525390625,-0.204437255859375,-0.0014801025390625
1761315216741977000,3.07797705078125,-0.976470947265625,-0.2064056396484375,0.0018463134765625
1761315216752024000,3.088024169921875,-0.976715087890625,-0.20758056640625,0.00433349609375
1761315216762071300,3.0980712890625,-0.9703826904296875,-0.2074737548828125,0.0025177001953125
1761315216772119300,3.108119384765625,-0.9618682861328125,-0.2093963623046875,0.002410888671875
1761315216782166300,3.118166259765625,-0.9600067138671875,-0.2150421142578125,0.004547119140625
1761315216792213200,3.128213134765625,-0.96142578125,-0.2194671630859375,0.0048065185546875
1761315216802260500,3.138260498046875,-0.9608001708984375,-0.2211761474609375,0.0027923583984375
1761315216812308200,3.14830810546875,-0.956787109375,-0.22021484375,-0.0027618408203125
1761315216822355200,3.158355224609375,-0.9582366943359375,-0.2176055908203125,-0.00616455078125
1761315216832402200,3.168402099609375,-0.9577178955078125,-0.2161865234375,-0.01068115234375
1761315216842449200,3.17844921875,-0.9541015625,-0.213592529296875,-0.0154266357421875
1761315216852497400,3.188497314453125,-0.955078125,-0.2117462158203125,-0.0200347900390625
1761315216862544400,3.19854443359375,-0.9602813720703125,-0.21240234375,-0.0218963623046875
1761315216872591400,3.20859130859375,-0.95556640625,-0.2110443115234375,-0.0242462158203125
1761315216882639000,3.21863916015625,-0.95025634765625,-0.2098541259765625,-0.0256805419921875
1761315216892686300,3.228686279296875,-0.95208740234375,-0.2106170654296875,-0.02374267578125
1761315216902733300,3.2387333984375,-0.9504241943359375,-0.209625244140625,-0.022705078125
1761315216912780300,3.2487802734375,-0.9461517333984375,-0.2093048095703125,-0.0220184326171875
1761315216922828300,3.258828369140625,-0.948974609375,-0.2109375,-0.021728515625
1761315216932875500,3.26887548828125,-0.9551544189453125,-0.2100372314453125,-0.02093505859375
1761315216942922200,3.278922119140625,-0.9563140869140625,-0.2089385986328125,-0.0223388671875
1761315216952969200,3.28896923828125,-0.957305908203125,-0.2054290771484375,-0.0273590087890625
1761315216963017200,3.299017333984375,-0.9604644775390625,-0.2006072998046875,-0.030487060546875
1761315216973064200,3.309064208984375,-0.9633026123046875,-0.1997528076171875,-0.0297698974609375
1761315216983111400,3.319111328125,-0.9662933349609375,-0.2003326416015625,-0.0275726318359375
1761315216993158400,3.329158447265625,-0.96875,-0.2003326416015625,-0.0259246826171875
1761315217003206100,3.3392060546875,-0.9652252197265625,-0.201141357421875,-0.0240020751953125
1761315217013253000,3.349253173828125,-0.96099853515625,-0.203338623046875,-0.0213165283203125
1761315217023300000,3.359300048828125,-0.9584503173828125,-0.2062225341796875,-0.0206298828125
1761315217033347300,3.369347412109375,-0.9619598388671875,-0.2083740234375,-0.019287109375
1761315217043395300,3.379395263671875,-0.9635467529296875,-0.21136474609375,-0.0176849365234375
1761315217053442300,3.3894423828125,-0.9663543701171875,-0.2129364013671875,-0.018707275390625
1761315217063489300,3.3994892578125,-0.975067138671875,-0.212860107421875,-0.021697998046875
1761315217073536500,3.40953662109375,-0.97381591796875,-0.2132568359375,-0.025360107421875
1761315217083584300,3.419584228515625,-0.9718780517578125,-0.21295166015625,-0.0290679931640625
1761315217093631200,3.42963134765625,-0.975921630859375,-0.21221923828125,-0.030975341796875
1761315217103678200,3.43967822265625,-0.9842529296875,-0.2120513916015625,-0.0333709716796875
1761315217113725200,3.44972509765625,-0.986541748046875,-0.212310791015625,-0.0335693359375
1761315217123773400,3.4597734375,-0.9846038818359375,-0.2110443115234375,-0.0327606201171875
1761315217133820400,3.4698203125,-0.9835052490234375,-0.2137298583984375,-0.032806396484375
1761315217143867100,3.4798671875,-0.97918701171875,-0.21697998046875,-0.03173828125
1761315217153914000,3.4899140625,-0.97564697265625,-0.2190704345703125,-0.0310211181640625
1761315217163962400,3.49996240234375,-0.9756622314453125,-0.2211761474609375,-0.0287628173828125
1761315217174009300,3.51000927734375,-0.9776153564453125,-0.2234649658203125,-0.0288848876953125
1761315217184056300,3.520056396484375,-0.9739227294921875,-0.22149658203125,-0.0326690673828125
1761315217194103300,3.530103271484375,-0.9637908935546875,-0.218414306640625,-0.037811279296875
1761315217204151300,3.5401513671875,-0.961639404296875,-0.2173309326171875,-0.0387420654296875
1761315217214198300,3.5501982421875,-0.961822509765625,-0.219940185546875,-0.0378875732421875
1761315217224245200,3.560245361328125,-0.954925537109375,-0.2187042236328125,-0.0364990234375
1761315217234292200,3.570292236328125,-0.9510498046875,-0.2166595458984375,-0.0339508056640625
1761315217244340200,3.58034033203125,-0.947723388671875,-0.219573974609375,-0.0288543701171875
1761315217254387500,3.590387451171875,-0.9454498291015625,-0.22119140625,-0.0247344970703125
1761315217264434400,3.600434326171875,-0.9423370361328125,-0.2204742431640625,-0.023193359375
1761315217274482200,3.610482177734375,-0.937774658203125,-0.218994140625,-0.020843505859375
1761315217284529200,3.620529052734375,-0.9415283203125,-0.2192535400390625,-0.0166778564453125
1761315217294576000,3.630576171875,-0.9460601806640625,-0.218231201171875,-0.0139617919921875
1761315217304619300,3.640619384765625,-0.9447021484375,-0.21490478515625,-0.01031494140625
1761315217314667500,3.65066748046875,-0.9442291259765625,-0.214599609375,-0.0081024169921875
1761315217324714500,3.660714599609375,-0.9490966796875,-0.217498779296875,-0.00439453125
1761315217334761500,3.670761474609375,-0.95574951171875,-0.21893310546875,-0.002838134765625
1761315217344808400,3.680808349609375,-0.9575958251953125,-0.217803955078125,-0.0070343017578125
1761315217354856200,3.690856201171875,-0.9576873779296875,-0.2168121337890625,-0.013641357421875
1761315217364903400,3.7009033203125,-0.9590606689453125,-0.2163848876953125,-0.019561767578125
1761315217374950400,3.710950439453125,-0.957733154296875,-0.215057373046875,-0.0246734619140625
1761315217384997400,3.720997314453125,-0.9590606689453125,-0.2171783447265625,-0.0245361328125
1761315217395045400,3.73104541015625,-0.970184326171875,-0.2202606201171875,-0.0227203369140625
1761315217405092400,3.74109228515625,-0.9723052978515625,-0.2234649658203125,-0.0226593017578125
1761315217415139300,3.751139404296875,-0.9752044677734375,-0.2240753173828125,-0.0215606689453125
1761315217425186300,3.761186279296875,-0.9860382080078125,-0.2241058349609375,-0.02178955078125
1761315217435234300,3.771234375,-0.986846923828125,-0.222991943359375,-0.0231475830078125
1761315217445281300,3.78128125,-0.984710693359375,-0.22381591796875,-0.0244598388671875
1761315217455328500,3.79132861328125,-0.9859771728515625,-0.226593017578125,-0.0236358642578125
1761315217465375500,3.80137548828125,-0.9869537353515625,-0.2297821044921875,-0.022216796875
1761315217475423200,3.81142333984375,-0.984619140625,-0.229827880859375,-0.0231781005859375
1761315217485470200,3.82147021484375,-0.9809112548828125,-0.2294158935546875,-0.026580810546875
1761315217495517200,3.83151708984375,-0.98095703125,-0.2303619384765625,-0.0269927978515625
1761315217505564400,3.841564453125,-0.9748992919921875,-0.2311248779296875,-0.0274658203125
1761315217515612400,3.8516123046875,-0.97283935546875,-0.230377197265625,-0.0275115966796875
1761315217525659400,3.861659423828125,-0.97216796875,-0.2295379638671875,-0.0269622802734375
1761315217535706400,3.871706298828125,-0.966064453125,-0.2286529541015625,-0.028076171875
1761315217545753600,3.881753662109375,-0.96441650390625,-0.2288818359375,-0.0278778076171875
1761315217555801300,3.89180126953125,-0.9633331298828125,-0.227325439453125,-0.029449462890625
1761315217565848300,3.901848388671875,-0.9580078125,-0.2248382568359375,-0.0329742431640625
1761315217575895300,3.911895263671875,-0.9471282958984375,-0.2198944091796875,-0.036102294921875
1761315217585942300,3.9219423828125,-0.942657470703125,-0.218170166015625,-0.0342864990234375
1761315217595990500,3.931990478515625,-0.942596435546875,-0.2201385498046875,-0.0316314697265625
1761315217606037500,3.94203759765625,-0.9325714111328125,-0.222991943359375,-0.02978515625
1761315217616084200,3.952084228515625,-0.9251556396484375,-0.2215728759765625,-0.0285491943359375
1761315217626132200,3.96213232421875,-0.923431396484375,-0.2153167724609375,-0.029266357421875
1761315217636179500,3.972179443359375,-0.918670654296875,-0.212615966796875,-0.0309600830078125
1761315217646226400,3.982226318359375,-0.9185638427734375,-0.2133636474609375,-0.032928466796875
1761315217656273400,3.9922734375,-0.9209442138671875,-0.216888427734375,-0.0368194580078125
1761315217666321200,4.002321044921875,-0.919921875,-0.219024658203125,-0.0373992919921875
1761315217676368400,4.012368408203125,-0.9322662353515625,-0.2220458984375,-0.0424957275390625
1761315217686415400,4.022415283203125,-0.9406280517578125,-0.2213134765625,-0.05242919921875
1761315217696462300,4.03246240234375,-0.9410552978515625,-0.2200775146484375,-0.060211181640625
1761315217706510300,4.04251025390625,-0.94232177734375,-0.22344970703125,-0.06036376953125
1761315217716557300,4.052557373046875,-0.9473114013671875,-0.2287445068359375,-0.0568695068359375
1761315217726604500,4.0626044921875,-0.953643798828125,-0.234039306640625,-0.04925537109375
1761315217736651500,4.072651611328125,-0.96075439453125,-0.2364501953125,-0.044097900390625
1761315217746699300,4.08269921875,-0.96533203125,-0.239288330078125,-0.037567138671875
1761315217756746200,4.092746337890625,-0.968597412109375,-0.239227294921875,-0.0361328125
1761315217766793200,4.102793212890625,-0.9752197265625,-0.2400665283203125,-0.0377044677734375
1761315217776840400,4.11284033203125,-0.9757843017578125,-0.2411956787109375,-0.0401153564453125
1761315217786888400,4.122888427734375,-0.9720611572265625,-0.242095947265625,-0.0438690185546875
1761315217796935400,4.132935302734375,-0.970123291015625,-0.240997314453125,-0.0440521240234375
1761315217806982400,4.142982421875,-0.9709320068359375,-0.243927001953125,-0.04205322265625
1761315217817029400,4.153029296875,-0.965576171875,-0.24609375,-0.0394287109375
1761315217827077400,4.163077392578125,-0.9647369384765625,-0.24566650390625,-0.036865234375
1761315217837124400,4.173124267578125,-0.9617767333984375,-0.2466583251953125,-0.0366973876953125
1761315217847171300,4.18317138671875,-0.9621429443359375,-0.247406005859375,-0.0326385498046875
1761315217857218300,4.19321826171875,-0.967193603515625,-0.2454071044921875,-0.0300140380859375
1761315217867266300,4.203266357421875,-0.96942138671875,-0.2411651611328125,-0.0281219482421875
1761315217877313300,4.213313232421875,-0.97174072265625,-0.233428955078125,-0.0274200439453125
1761315217887360300,4.2233603515625,-0.974945068359375,-0.2273101806640625,-0.0269622802734375
1761315217897407200,4.2334072265625,-0.9788818359375,-0.2227630615234375,-0.0265045166015625
1761315217907455500,4.24345556640625,-0.97711181640625,-0.2173614501953125,-0.0252685546875
1761315217917502500,4.25350244140625,-0.9715728759765625,-0.2149810791015625,-0.02508544921875
1761315217927549400,4.263549560546875,-0.9698028564453125,-0.2168426513671875,-0.0217742919921875
1761315217937597200,4.27359716796875,-0.9688873291015625,-0.2162017822265625,-0.0177459716796875
1761315217947644400,4.28364453125,-0.9680328369140625,-0.2162628173828125,-0.0147552490234375
1761315217957691400,4.29369140625,-0.9665069580078125,-0.2132110595703125,-0.0144195556640625
1761315217967738400,4.30373828125,-0.962127685546875,-0.2092132568359375,-0.0135955810546875
1761315217977786400,4.313786376953125,-0.9584808349609375,-0.2057342529296875,-0.013397216796875
1761315217987833300,4.323833251953125,-0.9553985595703125,-0.2035980224609375,-0.0140533447265625
1761315217997880600,4.333880615234375,-0.951324462890625,-0.20184326171875,-0.01397705078125
1761315218007927300,4.34392724609375,-0.9496307373046875,-0.1998443603515625,-0.0118560791015625
1761315218017975300,4.353975341796875,-0.951019287109375,-0.2007904052734375,-0.0113983154296875
1761315218028022300,4.364022216796875,-0.94970703125,-0.2018585205078125,-0.0103759765625
1761315218038069200,4.3740693359375,-0.948577880859375,-0.2034149169921875,-0.0077056884765625
1761315218048116500,4.384116455078125,-0.949249267578125,-0.2095947265625,-0.0094451904296875
1761315218058164500,4.39416455078125,-0.95025634765625,-0.21337890625,-0.011444091796875
1761315218068211200,4.404211181640625,-0.952117919921875,-0.2120819091796875,-0.014739990234375
1761315218078258200,4.414258056640625,-0.954559326171875,-0.2121429443359375,-0.0153961181640625
1761315218088305400,4.424305419921875,-0.96490478515625,-0.21435546875,-0.0155029296875
1761315218098353400,4.434353515625,-0.9675445556640625,-0.2182769775390625,-0.0158233642578125
1761315218108400400,4.444400390625,-0.968963623046875,-0.221099853515625,-0.0147552490234375
1761315218118447400,4.454447265625,-0.9762115478515625,-0.2225341796875,-0.01318359375
1761315218128494300,4.464494384765625,-0.9766845703125,-0.2224273681640625,-0.0148468017578125
1761315218138542300,4.474542236328125,-0.971954345703125,-0.2226104736328125,-0.01666259765625
1761315218148589300,4.48458935546875,-0.96917724609375,-0.2222137451171875,-0.016143798828125
1761315218158636300,4.49463623046875,-0.9696502685546875,-0.223876953125,-0.0156097412109375
1761315218168683300,4.504683349609375,-0.9684600830078125,-0.22393798828125,-0.017059326171875
1761315218178731500,4.5147314453125,-0.9658355712890625,-0.2220001220703125,-0.0167999267578125
1761315218188778500,4.524778564453125,-0.9633636474609375,-0.21917724609375,-0.01641845703125
1761315218198825500,4.534825439453125,-0.9635467529296875,-0.219024658203125,-0.0158233642578125
1761315218208872200,4.5448720703125,-0.9658050537109375,-0.21795654296875,-0.0158233642578125
1761315218218920400,4.55492041015625,-0.967315673828125,-0.2149810791015625,-0.014007568359375
1761315218228967400,4.564967529296875,-0.9719085693359375,-0.2118377685546875,-0.014404296875
1761315218239014400,4.575014404296875,-0.9704132080078125,-0.208221435546875,-0.0171356201171875
1761315218249061400,4.585061279296875,-0.968841552734375,-0.206024169921875,-0.0171356201171875
1761315218259109400,4.595109375,-0.969024658203125,-0.2073211669921875,-0.01458740234375
1761315218269156400,4.60515625,-0.966552734375,-0.20697021484375,-0.009124755859375
1761315218279203300,4.615203369140625,-0.9692840576171875,-0.2056884765625,-0.0052947998046875
1761315218289251300,4.625251220703125,-0.970672607421875,-0.2057037353515625,-0.005889892578125
1761315218299298300,4.63529833984375,-0.9690704345703125,-0.2048492431640625,-0.0067138671875
1761315218309345500,4.645345458984375,-0.97235107421875,-0.2044677734375,-0.00921630859375
1761315218319392500,4.655392578125,-0.9717559814453125,-0.201019287109375,-0.00958251953125
1761315218329440300,4.665440185546875,-0.9708709716796875,-0.203948974609375,-0.00933837890625
1761315218339487200,4.6754873046875,-0.9729766845703125,-0.207244873046875,-0.006591796875
1761315218349534500,4.685534423828125,-0.9734039306640625,-0.2091064453125,-0.0058746337890625
1761315218359581400,4.69558154296875,-0.976531982421875,-0.20758056640625,-0.0076904296875
1761315218369629400,4.70562939453125,-0.984161376953125,-0.203948974609375,-0.008148193359375
1761315218379676400,4.715676513671875,-0.9947967529296875,-0.20294189453125,-0.0045928955078125
1761315218389723400,4.725723388671875,-0.999481201171875,-0.20245361328125,-0.0016632080078125
1761315218399770600,4.7357705078125,-1.00030517578125,-0.2008514404296875,0.00250244140625
1761315218409818400,4.745818359375,-0.9905548095703125,-0.201568603515625,-0.0011444091796875
1761315218419865300,4.755865234375,-0.9744873046875,-0.2084503173828125,-0.0113983154296875
1761315218429912300,4.765912353515625,-0.95733642578125,-0.21484375,-0.0160369873046875
1761315218439959300,4.775959228515625,-0.94720458984375,-0.22003173828125,-0.0183563232421875
1761315218450007600,4.786007568359375,-0.9377899169921875,-0.224884033203125,-0.02105712890625
1761315218460054300,4.79605419921875,-0.929840087890625,-0.2306060791015625,-0.0254364013671875
1761315218470101200,4.806101318359375,-0.92828369140625,-0.2336273193359375,-0.0289306640625
1761315218480148200,4.816148193359375,-0.9239654541015625,-0.2330474853515625,-0.032928466796875
1761315218490196500,4.826196533203125,-0.925323486328125,-0.2347259521484375,-0.0304718017578125
1761315218500243500,4.836243408203125,-0.9333343505859375,-0.2353057861328125,-0.0257568359375
1761315218510290400,4.84629052734375,-0.9412841796875,-0.2359161376953125,-0.021392822265625
1761315218520337400,4.85633740234375,-0.9452972412109375,-0.2336883544921875,-0.0210723876953125
1761315218530385400,4.866385498046875,-0.952667236328125,-0.2297821044921875,-0.0204620361328125
1761315218540432400,4.876432373046875,-0.96124267578125,-0.226409912109375,-0.0211181640625
1761315218550479400,4.886479248046875,-0.9643402099609375,-0.2236785888671875,-0.021697998046875
1761315218560526300,4.8965263671875,-0.9674224853515625,-0.2230682373046875,-0.0206756591796875
1761315218570574600,4.90657470703125,-0.9710235595703125,-0.2243499755859375,-0.02386474609375
1761315218580621600,4.91662158203125,-0.966796875,-0.2225189208984375,-0.02996826171875
1761315218590668500,4.92666845703125,-0.9632568359375,-0.2194366455078125,-0.0297088623046875
1761315218600713500,4.93671337890625,-0.9707489013671875,-0.22137451171875,-0.0260772705078125
1761315218610760400,4.946760498046875,-0.972137451171875,-0.2223968505859375,-0.025299072265625
1761315218620807400,4.956807373046875,-0.96551513671875,-0.220855712890625,-0.0310821533203125
1761315218630855400,4.96685546875,-0.9639434814453125,-0.2183685302734375,-0.032989501953125
1761315218640902400,4.97690234375,-0.9662017822265625,-0.2180328369140625,-0.0330352783203125
1761315218650949400,4.986949462890625,-0.9644012451171875,-0.220916748046875,-0.0333404541015625
1761315218660996400,4.996996337890625,-0.9588623046875,-0.2196044921875,-0.037933349609375
1761315218671044400,5.00704443359375,-0.9579925537109375,-0.218475341796875,-0.0431365966796875
1761315218681091300,5.01709130859375,-0.951416015625,-0.222686767578125,-0.046142578125
1761315218691138600,5.027138671875,-0.94769287109375,-0.22845458984375,-0.0472564697265625
1761315218701185500,5.037185546875,-0.947509765625,-0.227813720703125,-0.052947998046875
1761315218711233300,5.0472333984375,-0.9418487548828125,-0.2252960205078125,-0.0611114501953125
1761315218721280300,5.0572802734375,-0.9374237060546875,-0.2264556884765625,-0.0647125244140625
1761315218731327200,5.0673271484375,-0.9398345947265625,-0.2298583984375,-0.0645751953125
1761315218741374500,5.07737451171875,-0.944793701171875,-0.230438232421875,-0.0581817626953125
1761315218751422500,5.08742236328125,-0.9459991455078125,-0.22979736328125,-0.0522308349609375
1761315218761469400,5.097469482421875,-0.9471588134765625,-0.23150634765625,-0.045989990234375
1761315218771516400,5.107516357421875,-0.947540283203125,-0.231170654296875,-0.0416107177734375
1761315218781563600,5.117563720703125,-0.9450836181640625,-0.228302001953125,-0.0372467041015625
1761315218791611400,5.127611328125,-0.947174072265625,-0.2274017333984375,-0.0346221923828125
1761315218801658400,5.137658447265625,-0.9553985595703125,-0.226959228515625,-0.0355682373046875
1761315218811705300,5.147705322265625,-0.95281982421875,-0.2230377197265625,-0.0378265380859375
1761315218821752300,5.15775244140625,-0.9556884765625,-0.221649169921875,-0.0391082763671875
1761315218831800600,5.167800537109375,-0.9614105224609375,-0.216644287109375,-0.041412353515625
1761315218841847300,5.177847412109375,-0.959197998046875,-0.213409423828125,-0.0422515869140625
1761315218851894300,5.187894287109375,-0.965118408203125,-0.213409423828125,-0.0410308837890625
1761315218861941200,5.197941162109375,-0.9688720703125,-0.2126617431640625,-0.0378570556640625
1761315218871989500,5.207989501953125,-0.968536376953125,-0.2116546630859375,-0.0396728515625
1761315218882036500,5.218036376953125,-0.9664154052734375,-0.21282958984375,-0.042205810546875
1761315218892083500,5.22808349609375,-0.96649169921875,-0.212005615234375,-0.043365478515625
1761315218902130400,5.23813037109375,-0.9762725830078125,-0.211578369140625,-0.04290771484375
1761315218912178400,5.248178466796875,-0.9786376953125,-0.2125701904296875,-0.0424041748046875
1761315218922225400,5.258225341796875,-0.9804840087890625,-0.212188720703125,-0.040130615234375
1761315218932272400,5.2682724609375,-0.98492431640625,-0.21112060546875,-0.040008544921875
1761315218942320400,5.2783203125,-0.9852142333984375,-0.2103118896484375,-0.0395050048828125
1761315218952367400,5.288367431640625,-0.985137939453125,-0.212860107421875,-0.038116455078125
1761315218962414600,5.29841455078125,-0.983734130859375,-0.2142486572265625,-0.0399627685546875
1761315218972461600,5.308461669921875,-0.97918701171875,-0.2144317626953125,-0.0426177978515625
1761315218982508500,5.318508544921875,-0.9739837646484375,-0.21661376953125,-0.045166015625
1761315218992556300,5.328556396484375,-0.9687347412109375,-0.221466064453125,-0.045074462890625
1761315219002603300,5.338603271484375,-0.9615631103515625,-0.225830078125,-0.0431976318359375
1761315219012650500,5.348650390625,-0.955413818359375,-0.22918701171875,-0.041839599609375
1761315219022698500,5.358698486328125,-0.951263427734375,-0.2317352294921875,-0.03765869140625
1761315219032745500,5.368745361328125,-0.9479217529296875,-0.2319183349609375,-0.0330810546875
1761315219042792400,5.37879248046875,-0.9488525390625,-0.230926513671875,-0.028076171875
1761315219052839400,5.38883935546875,-0.9511871337890625,-0.22760009765625,-0.0224151611328125
1761315219062887400,5.398887451171875,-0.95428466796875,-0.222320556640625,-0.019287109375
1761315219072934400,5.408934326171875,-0.960052490234375,-0.2169952392578125,-0.0172882080078125
1761315219082981400,5.4189814453125,-0.9621429443359375,-0.2124481201171875,-0.01898193359375
1761315219093028400,5.4290283203125,-0.95819091796875,-0.2022705078125,-0.021697998046875
1761315219103076400,5.439076416015625,-0.962738037109375,-0.1996002197265625,-0.0187835693359375
1761315219113123300,5.449123291015625,-0.9637451171875,-0.1997528076171875,-0.01483154296875
1761315219123170300,5.45917041015625,-0.96142578125,-0.1951446533203125,-0.016693115234375
1761315219133217300,5.46921728515625,-0.9671173095703125,-0.19091796875,-0.0093536376953125
1761315219143265500,5.479265625,-0.97869873046875,-0.1895294189453125,0.0034332275390625
1761315219153312500,5.4893125,-0.98675537109375,-0.190216064453125,0.0102691650390625
1761315219163359500,5.499359375,-0.99322509765625,-0.1870880126953125,0.0127105712890625
1761315219173406500,5.509406494140625,-1.0016326904296875,-0.1779022216796875,0.006500244140625
1761315219183454500,5.519454345703125,-1.0037841796875,-0.171600341796875,0.0005340576171875
1761315219193501400,5.52950146484375,-1.0073699951171875,-0.1647491455078125,-0.006744384765625
1761315219203549400,5.539549560546875,-1.0047454833984375,-0.160125732421875,-0.015472412109375
1761315219213596400,5.549596435546875,-0.9982757568359375,-0.161468505859375,-0.020263671875
1761315219223644400,5.55964453125,-0.98724365234375,-0.16461181640625,-0.0231781005859375
1761315219233691400,5.56969140625,-0.9788055419921875,-0.1676177978515625,-0.025299072265625
1761315219243738400,5.57973828125,-0.9716949462890625,-0.16961669921875,-0.0242767333984375
1761315219253785300,5.589785400390625,-0.9675140380859375,-0.1706695556640625,-0.02056884765625
1761315219263833600,5.59983349609375,-0.968292236328125,-0.172454833984375,-0.017578125
1761315219273880600,5.609880615234375,-0.9620208740234375,-0.1746673583984375,-0.01806640625
1761315219283927600,5.619927490234375,-0.954620361328125,-0.177978515625,-0.0197296142578125
1761315219293974300,5.629974365234375,-0.9520416259765625,-0.184478759765625,-0.018585205078125
1761315219304022300,5.640022216796875,-0.953948974609375,-0.1860504150390625,-0.0202178955078125
1761315219314073600,5.650073486328125,-0.9501495361328125,-0.1878204345703125,-0.027252197265625
1761315219324120600,5.66012060546875,-0.9429931640625,-0.1944732666015625,-0.0294036865234375
1761315219334167600,5.67016748046875,-0.944854736328125,-0.2042999267578125,-0.0294036865234375
1761315219344215300,5.68021533203125,-0.9414520263671875,-0.2136993408203125,-0.0277252197265625
1761315219354262500,5.690262451171875,-0.9361572265625,-0.222869873046875,-0.0255584716796875
1761315219364309500,5.7003095703125,-0.9370880126953125,-0.225555419921875,-0.026580810546875
1761315219374356500,5.7103564453125,-0.9362335205078125,-0.22723388671875,-0.03338623046875
1761315219384404500,5.720404541015625,-0.9358062744140625,-0.2267608642578125,-0.0381011962890625
1761315219394451500,5.730451416015625,-0.934051513671875,-0.2265472412109375,-0.0403900146484375
1761315219404498700,5.740498779296875,-0.941497802734375,-0.228179931640625,-0.039825439453125
1761315219414545700,5.750545654296875,-0.9446563720703125,-0.2294464111328125,-0.032928466796875
1761315219424593400,5.760593505859375,-0.9460601806640625,-0.229339599609375,-0.025909423828125
1761315219434640400,5.770640380859375,-0.9491729736328125,-0.2264862060546875,-0.0206146240234375
1761315219444687600,5.7806875,-0.95196533203125,-0.2236480712890625,-0.013336181640625
1761315219454735600,5.790735595703125,-0.9572906494140625,-0.22064208984375,-0.00787353515625
1761315219464782600,5.800782470703125,-0.9624786376953125,-0.215728759765625,-0.005523681640625
1761315219474829300,5.810829345703125,-0.96832275390625,-0.2089996337890625,-0.0056304931640625
1761315219484876300,5.820876220703125,-0.9766387939453125,-0.2039947509765625,-0.0064849853515625
1761315219494924500,5.830924560546875,-0.9800567626953125,-0.19775390625,-0.0111541748046875
1761315219504971500,5.840971435546875,-0.9798583984375,-0.19329833984375,-0.013031005859375
1761315219515018500,5.8510185546875,-0.982269287109375,-0.19122314453125,-0.0142059326171875
1761315219525065500,5.8610654296875,-0.9873199462890625,-0.1916046142578125,-0.01226806640625
1761315219535113500,5.871113525390625,-0.991912841796875,-0.1901092529296875,-0.00994873046875
1761315219545160400,5.881160400390625,-0.991241455078125,-0.1888580322265625,-0.011199951171875
1761315219555207400,5.89120751953125,-0.9918060302734375,-0.18487548828125,-0.0106658935546875
1761315219565254400,5.90125439453125,-0.9911956787109375,-0.1844482421875,-0.012298583984375
1761315219575302700,5.911302734375,-0.9900970458984375,-0.1851806640625,-0.0142364501953125
1761315219585349600,5.921349609375,-0.9898529052734375,-0.18658447265625,-0.0177154541015625
1761315219595396600,5.931396728515625,-0.987762451171875,-0.1894683837890625,-0.022186279296875
1761315219605443600,5.941443603515625,-0.98358154296875,-0.1932525634765625,-0.029754638671875
1761315219615491300,5.9514912109375,-0.9770355224609375,-0.1978759765625,-0.0339202880859375
1761315219625538600,5.96153857421875,-0.97332763671875,-0.203338623046875,-0.0352325439453125
1761315219635585500,5.97158544921875,-0.9664764404296875,-0.2081298828125,-0.035308837890625
1761315219645632500,5.981632568359375,-0.9584808349609375,-0.21453857421875,-0.0338897705078125
1761315219655680500,5.991680419921875,-0.952117919921875,-0.2217254638671875,-0.0330810546875
1761315219665727500,6.0017275390625,-0.945648193359375,-0.2273101806640625,-0.035797119140625
1761315219675774500,6.0117744140625,-0.93695068359375,-0.2277984619140625,-0.037384033203125
1761315219685821400,6.021821533203125,-0.93841552734375,-0.2295989990234375,-0.0362396240234375
1761315219695869400,6.031869384765625,-0.943023681640625,-0.2305145263671875,-0.03582763671875
1761315219705916400,6.04191650390625,-0.9419097900390625,-0.2294158935546875,-0.0329132080078125
1761315219715963600,6.051963623046875,-0.9383544921875,-0.2268829345703125,-0.0297393798828125
1761315219726010600,6.0620107421875,-0.9447021484375,-0.2248382568359375,-0.0225830078125
1761315219736058400,6.072058349609375,-0.9541168212890625,-0.219696044921875,-0.018280029296875
1761315219746105300,6.082105224609375,-0.9565887451171875,-0.21282958984375,-0.0178680419921875
1761315219756152300,6.09215234375,-0.9575042724609375,-0.205352783203125,-0.0167083740234375
1761315219766200600,6.10220068359375,-0.9644775390625,-0.201568603515625,-0.0141754150390625
1761315219776247600,6.11224755859375,-0.9678192138671875,-0.2013397216796875,-0.0099334716796875
1761315219786294500,6.12229443359375,-0.971954345703125,-0.201324462890625,-0.0050048828125
1761315219796341500,6.132341552734375,-0.97735595703125,-0.1966400146484375,-0.00335693359375
1761315219806389500,6.142389404296875,-0.9763946533203125,-0.1943817138671875,-0.0027008056640625
1761315219816436500,6.1524365234375,-0.975433349609375,-0.1893463134765625,-0.0026702880859375
1761315219826483500,6.1624833984375,-0.97760009765625,-0.186920166015625,-0.00128173828125
1761315219836530400,6.172530517578125,-0.9803466796875,-0.1860198974609375,-0.0023345947265625
1761315219846578700,6.18257861328125,-0.9746856689453125,-0.1844329833984375,-0.0040435791015625
1761315219856625700,6.192625732421875,-0.9755706787109375,-0.1837615966796875,-0.006134033203125
1761315219866672600,6.202672607421875,-0.9764251708984375,-0.185333251953125,-0.0060882568359375
1761315219876719400,6.21271923828125,-0.97332763671875,-0.1892547607421875,-0.00714111328125
1761315219886767400,6.222767333984375,-0.9716644287109375,-0.191558837890625,-0.0120391845703125
1761315219896814600,6.232814697265625,-0.965484619140625,-0.1907958984375,-0.0151519775390625
1761315219906861600,6.242861572265625,-0.9608001708984375,-0.1940460205078125,-0.0155029296875
1761315219916908500,6.252908447265625,-0.957305908203125,-0.2007598876953125,-0.01544189453125
1761315219926956300,6.262956298828125,-0.9526824951171875,-0.2045440673828125,-0.0152740478515625
1761315219937003300,6.273003173828125,-0.9499053955078125,-0.20623779296875,-0.017120361328125
1761315219947050500,6.283050537109375,-0.9464111328125,-0.207855224609375,-0.019378662109375
1761315219957097500,6.293097412109375,-0.9453277587890625,-0.2113494873046875,-0.0218963623046875
1761315219967145500,6.3031455078125,-0.9498748779296875,-0.213409423828125,-0.0235443115234375
1761315219977192400,6.3131923828125,-0.954132080078125,-0.213043212890625,-0.0265655517578125
1761315219987239700,6.32323974609375,-0.9576873779296875,-0.2094268798828125,-0.0325927734375
1761315219997286700,6.33328662109375,-0.9598236083984375,-0.209869384765625,-0.0348358154296875
1761315220007334400,6.34333447265625,-0.9607391357421875,-0.2135009765625,-0.0323486328125
1761315220017381400,6.35338134765625,-0.9664459228515625,-0.2192230224609375,-0.028717041015625
1761315220027428400,6.363428466796875,-0.9669036865234375,-0.2214813232421875,-0.0236968994140625
1761315220037476600,6.3734765625,-0.9661102294921875,-0.2197418212890625,-0.0229339599609375
1761315220047523600,6.383523681640625,-0.9698944091796875,-0.2166900634765625,-0.0251922607421875
1761315220057570600,6.393570556640625,-0.9700164794921875,-0.2132110595703125,-0.028778076171875
1761315220067617500,6.403617431640625,-0.9750213623046875,-0.210479736328125,-0.0275115966796875
1761315220077665500,6.41366552734375,-0.9785614013671875,-0.2086639404296875,-0.02667236328125
1761315220087712500,6.42371240234375,-0.976043701171875,-0.207427978515625,-0.0249176025390625
1761315220097759500,6.433759521484375,-0.9747467041015625,-0.2070159912109375,-0.0223541259765625
1761315220107806500,6.443806396484375,-0.9738006591796875,-0.20648193359375,-0.0222015380859375
1761315220117854700,6.453854736328125,-0.9712371826171875,-0.2057037353515625,-0.0231475830078125
1761315220127901400,6.4639013671875,-0.9666900634765625,-0.2059478759765625,-0.0198516845703125
1761315220137948400,6.473948486328125,-0.968963623046875,-0.20477294921875,-0.016265869140625
1761315220147995400,6.483995361328125,-0.967987060546875,-0.2008819580078125,-0.0167236328125
1761315220158043400,6.49404345703125,-0.9615936279296875,-0.1973876953125,-0.017669677734375
1761315220168090600,6.504090576171875,-0.9644775390625,-0.1972198486328125,-0.014007568359375
1761315220178137600,6.5141376953125,-0.9647216796875,-0.1981048583984375,-0.01226806640625
1761315220188184600,6.5241845703125,-0.96112060546875,-0.19305419921875,-0.0155029296875
1761315220198232300,6.534232421875,-0.95751953125,-0.1891021728515625,-0.016143798828125
1761315220208279300,6.544279296875,-0.9600067138671875,-0.1902923583984375,-0.014068603515625
1761315220218326500,6.554326416015625,-0.9611358642578125,-0.194427490234375,-0.0113067626953125
1761315220228373500,6.56437353515625,-0.960662841796875,-0.1976470947265625,-0.0102691650390625
1761315220238421500,6.57442138671875,-0.958282470703125,-0.19525146484375,-0.0127410888671875
1761315220248468500,6.584468505859375,-0.958648681640625,-0.192230224609375,-0.014862060546875
1761315220258515700,6.594515625,-0.9616546630859375,-0.1912841796875,-0.015533447265625
1761315220268562400,6.6045625,-0.9578704833984375,-0.1913909912109375,-0.0171661376953125
1761315220278610400,6.6146103515625,-0.9643402099609375,-0.196685791015625,-0.0139312744140625
1761315220288657400,6.624657470703125,-0.9721832275390625,-0.2018280029296875,-0.011199951171875
1761315220298704400,6.634704345703125,-0.97021484375,-0.202056884765625,-0.0120697021484375
1761315220308748800,6.644748779296875,-0.9649505615234375,-0.20489501953125,-0.0169219970703125
1761315220318795800,6.654795654296875,-0.9661865234375,-0.2083892822265625,-0.0173187255859375
1761315220328842800,6.6648427734375,-0.976318359375,-0.2125244140625,-0.0182647705078125
1761315220338889500,6.674889404296875,-0.97808837890625,-0.2118072509765625,-0.0221710205078125
1761315220348937500,6.6849375,-0.9813995361328125,-0.209381103515625,-0.0264129638671875
1761315220358984700,6.694984619140625,-0.9810028076171875,-0.2077178955078125,-0.0289154052734375
1761315220369031700,6.70503173828125,-0.9784698486328125,-0.2020263671875,-0.0308837890625
1761315220379078700,6.71507861328125,-0.9746246337890625,-0.19873046875,-0.0295867919921875
1761315220389126700,6.725126708984375,-0.9646759033203125,-0.19873046875,-0.02630615234375
1761315220399173400,6.73517333984375,-0.9588623046875,-0.2002716064453125,-0.0222015380859375
1761315220409220600,6.745220703125,-0.957061767578125,-0.2007598876953125,-0.0186920166015625
1761315220419267600,6.755267578125,-0.9563140869140625,-0.2007904052734375,-0.0150146484375
1761315220429315600,6.765315673828125,-0.957305908203125,-0.1976776123046875,-0.0135650634765625
1761315220439362600,6.775362548828125,-0.9601898193359375,-0.196044921875,-0.013214111328125
1761315220449409800,6.785409912109375,-0.958282470703125,-0.1967315673828125,-0.011199951171875
1761315220459456800,6.795456787109375,-0.95880126953125,-0.1977996826171875,-0.00946044921875
1761315220469504500,6.80550439453125,-0.9589996337890625,-0.1988525390625,-0.01104736328125
1761315220479551500,6.815551513671875,-0.957794189453125,-0.1976776123046875,-0.012542724609375
1761315220489598500,6.825598388671875,-0.9548797607421875,-0.1963653564453125,-0.0173797607421875
1761315220499645700,6.835645751953125,-0.95068359375,-0.19940185546875,-0.0205078125
1761315220509693700,6.845693603515625,-0.9548797607421875,-0.20263671875,-0.0201568603515625
1761315220519740700,6.85574072265625,-0.95452880859375,-0.20294189453125,-0.0209808349609375
1761315220529787600,6.86578759765625,-0.953094482421875,-0.20172119140625,-0.0250244140625
1761315220539834600,6.875834716796875,-0.9557037353515625,-0.20465087890625,-0.02789306640625
1761315220549882600,6.885882568359375,-0.96148681640625,-0.2061309814453125,-0.0269927978515625
1761315220559929600,6.8959296875,-0.9644622802734375,-0.2046661376953125,-0.0295867919921875
1761315220569976600,6.9059765625,-0.9658050537109375,-0.2035675048828125,-0.029754638671875
1761315220580024800,6.91602490234375,-0.96722412109375,-0.2039337158203125,-0.02813720703125
1761315220590071600,6.926071533203125,-0.9690093994140625,-0.204864501953125,-0.0255584716796875
1761315220600118500,6.936118408203125,-0.97613525390625,-0.20501708984375,-0.0245819091796875
1761315220610165500,6.94616552734375,-0.9746551513671875,-0.2018585205078125,-0.0272979736328125
1761315220620213500,6.956213623046875,-0.9663848876953125,-0.19921875,-0.0310516357421875
1761315220630260700,6.9662607421875,-0.9704437255859375,-0.2021331787109375,-0.02593994140625
1761315220640307700,6.9763076171875,-0.9737396240234375,-0.2068634033203125,-0.0184783935546875
1761315220650354700,6.986354736328125,-0.96527099609375,-0.2044830322265625,-0.01629638671875
1761315220660402400,6.99640234375,-0.9603271484375,-0.1985321044921875,-0.0170745849609375
1761315220670449700,7.00644970703125,-0.96563720703125,-0.2010040283203125,-0.015045166015625
1761315220680496600,7.01649658203125,-0.9648284912109375,-0.2053985595703125,-0.013427734375
1761315220690543600,7.026543701171875,-0.9636993408203125,-0.204437255859375,-0.0099639892578125
1761315220700591600,7.036591552734375,-0.972686767578125,-0.203887939453125,-0.005218505859375
1761315220710638600,7.046638671875,-0.972991943359375,-0.201568603515625,-0.001678466796875
1761315220720685800,7.056685791015625,-0.966766357421875,-0.198211669921875,-0.0005035400390625
1761315220730732800,7.06673291015625,-0.970916748046875,-0.198974609375,0.0025177001953125
1761315220740780500,7.076780517578125,-0.9729156494140625,-0.1995849609375,0.0066070556640625
1761315220750827500,7.08682763671875,-0.96685791015625,-0.199432373046875,0.0071258544921875
1761315220760874500,7.09687451171875,-0.9646148681640625,-0.1980743408203125,0.0055999755859375
1761315220770921700,7.106921630859375,-0.9645233154296875,-0.1988372802734375,0.006927490234375
1761315220780969700,7.1169697265625,-0.9619293212890625,-0.196258544921875,0.005706787109375
1761315220791016700,7.1270166015625,-0.96612548828125,-0.192657470703125,0.0028228759765625
1761315220801063400,7.1370634765625,-0.966644287109375,-0.194061279296875,0.0033416748046875
1761315220811110400,7.1471103515625,-0.9732818603515625,-0.193084716796875,0.0013427734375
1761315220821158700,7.15715869140625,-0.9714202880859375,-0.1907501220703125,-0.0021820068359375
1761315220831205600,7.16720556640625,-0.9654693603515625,-0.1871795654296875,-0.0054473876953125
1761315220841252600,7.177252685546875,-0.96826171875,-0.191497802734375,-0.005645751953125
1761315220851300600,7.187300537109375,-0.9686737060546875,-0.1922760009765625,-0.0042572021484375
1761315220861347600,7.19734765625,-0.9718780517578125,-0.185333251953125,-0.0061492919921875
1761315220871394600,7.20739453125,-0.9698028564453125,-0.1806488037109375,-0.00616455078125
1761315220881441500,7.217441650390625,-0.972198486328125,-0.17755126953125,-0.003082275390625
1761315220891489500,7.227489501953125,-0.9842987060546875,-0.1722869873046875,0.0044097900390625
1761315220901536800,7.237536865234375,-0.9917144775390625,-0.1652679443359375,0.009552001953125
1761315220911583700,7.247583740234375,-0.9937286376953125,-0.1596832275390625,0.01171875
1761315220921630700,7.257630615234375,-0.9937591552734375,-0.15472412109375,0.01422119140625
1761315220931678500,7.267678466796875,-0.99102783203125,-0.1529083251953125,0.0192718505859375
1761315220941725700,7.2777255859375,-0.984619140625,-0.152740478515625,0.022735595703125
1761315220951772700,7.287772705078125,-0.9768524169921875,-0.1579437255859375,0.0248565673828125
1761315220961819600,7.297819580078125,-0.9756317138671875,-0.16595458984375,0.027191162109375
1761315220971867600,7.30786767578125,-0.9711761474609375,-0.169677734375,0.023223876953125
1761315220981914600,7.31791455078125,-0.9615325927734375,-0.16876220703125,0.0139617919921875
1761315220991961600,7.327961669921875,-0.9581146240234375,-0.1677398681640625,0.005615234375
1761315221002008600,7.338008544921875,-0.9541015625,-0.1678466796875,-0.000152587890625
1761315221012056600,7.348056640625,-0.9476776123046875,-0.1679840087890625,-0.002899169921875
1761315221022103600,7.358103515625,-0.9437713623046875,-0.1688079833984375,-0.0029449462890625
1761315221032150500,7.368150634765625,-0.9420166015625,-0.1697998046875,0.0000762939453125
1761315221042197800,7.37819775390625,-0.944305419921875,-0.1715087890625,0.00421142578125
1761315221052245500,7.38824560546875,-0.9475555419921875,-0.1732635498046875,0.0056610107421875
1761315221062292500,7.39829248046875,-0.9500579833984375,-0.175933837890625,0.0076446533203125
1761315221072339500,7.40833935546875,-0.9552459716796875,-0.1770477294921875,0.0092010498046875
1761315221082386700,7.41838671875,-0.9590911865234375,-0.17919921875,0.00836181640625
1761315221092434700,7.4284345703125,-0.95782470703125,-0.1806488037109375,0.0072021484375
1761315221102481700,7.438481689453125,-0.9583892822265625,-0.18194580078125,0.0068817138671875
1761315221112528600,7.448528564453125,-0.9687652587890625,-0.182769775390625,0.005950927734375
1761315221122576600,7.45857666015625,-0.9745941162109375,-0.18359375,0.0017242431640625
1761315221132623600,7.46862353515625,-0.9797515869140625,-0.1860504150390625,-0.00244140625
1761315221142670600,7.478670654296875,-0.9901275634765625,-0.185791015625,-0.0057525634765625
1761315221152717600,7.488717529296875,-1.0020904541015625,-0.183685302734375,-0.0098876953125
1761315221162765600,7.498765625,-1.0112762451171875,-0.1806793212890625,-0.019195556640625
1761315221172812800,7.508812744140625,-1.0113067626953125,-0.1792144775390625,-0.0237579345703125
1761315221182859800,7.51885986328125,-1.0168609619140625,-0.1772003173828125,-0.0233306884765625
1761315221192906500,7.528906494140625,-1.0242462158203125,-0.18048095703125,-0.02166748046875
1761315221202954500,7.53895458984375,-1.023681640625,-0.184326171875,-0.0198822021484375
1761315221213001700,7.549001708984375,-1.018798828125,-0.1835479736328125,-0.0171966552734375
1761315221223048700,7.559048583984375,-1.0062103271484375,-0.180816650390625,-0.0211944580078125
1761315221233095700,7.569095703125,-0.989471435546875,-0.17974853515625,-0.022613525390625
1761315221243143700,7.579143798828125,-0.9738311767578125,-0.18170166015625,-0.018341064453125
1761315221253190400,7.5891904296875,-0.964996337890625,-0.1862640380859375,-0.012847900390625
1761315221263237600,7.599237548828125,-0.96136474609375,-0.1904296875,-0.006622314453125
1761315221273284600,7.60928466796875,-0.9581451416015625,-0.1918792724609375,-0.0028533935546875
1761315221283332600,7.61933251953125,-0.9554595947265625,-0.1878662109375,-0.0066986083984375
1761315221293379600,7.629379638671875,-0.9452056884765625,-0.183807373046875,-0.0088653564453125
1761315221303426600,7.639426513671875,-0.9431304931640625,-0.18182373046875,-0.0078887939453125
1761315221313473500,7.6494736328125,-0.9423370361328125,-0.1815643310546875,-0.0039520263671875
1761315221323521300,7.659521240234375,-0.9415283203125,-0.18548583984375,-0.0027008056640625
1761315221333568300,7.669568359375,-0.9405517578125,-0.18603515625,-0.0003814697265625
1761315221343615200,7.679615234375,-0.93804931640625,-0.1848297119140625,-0.0028076171875
1761315221353662200,7.689662109375,-0.9391937255859375,-0.188629150390625,0.0002899169921875
1761315221363710500,7.69971044921875,-0.944183349609375,-0.1930694580078125,0.006622314453125
1761315221373757400,7.70975732421875,-0.9524993896484375,-0.19573974609375,0.0128326416015625
1761315221383804400,7.719804443359375,-0.9600677490234375,-0.1939544677734375,0.01239013671875
1761315221393852400,7.729852294921875,-0.9651947021484375,-0.1900634765625,0.0118255615234375
1761315221403899400,7.7398994140625,-0.9685211181640625,-0.1842041015625,0.009918212890625
1761315221413946400,7.7499462890625,-0.9744415283203125,-0.176422119140625,0.0081787109375
1761315221423993300,7.759993408203125,-0.97564697265625,-0.17156982421875,0.0081634521484375
1761315221434041300,7.770041259765625,-0.97198486328125,-0.171539306640625,0.00982666015625
1761315221444088600,7.780088623046875,-0.9698638916015625,-0.1717987060546875,0.0111541748046875
1761315221454135300,7.79013525390625,-0.9671630859375,-0.173614501953125,0.0125274658203125
1761315221464182300,7.800182373046875,-0.960784912109375,-0.174041748046875,0.0123291015625
1761315221474230300,7.810230224609375,-0.955078125,-0.1766204833984375,0.01318359375
1761315221484277200,7.82027734375,-0.959320068359375,-0.1806793212890625,0.0130462646484375
1761315221494324500,7.830324462890625,-0.955810546875,-0.1814117431640625,0.00921630859375
1761315221504371500,7.840371337890625,-0.950469970703125,-0.1822052001953125,0.0041046142578125
1761315221514419200,7.850419189453125,-0.9566192626953125,-0.1843414306640625,0.0008544921875
1761315221524466200,7.860466064453125,-0.9621124267578125,-0.1853179931640625,-0.0009918212890625
1761315221534513400,7.870513427734375,-0.963226318359375,-0.18511962890625,-0.0030059814453125
1761315221544560400,7.880560302734375,-0.9689788818359375,-0.1859893798828125,-0.0042877197265625
1761315221554608400,7.8906083984375,-0.9705810546875,-0.1839599609375,-0.001373291015625
1761315221564655400,7.9006552734375,-0.9749298095703125,-0.1829376220703125,-0.0026702880859375
1761315221574702300,7.910702392578125,-0.9783782958984375,-0.1822357177734375,-0.00341796875
1761315221584749600,7.92074951171875,-0.983551025390625,-0.17974853515625,-0.00128173828125
1761315221594797300,7.93079736328125,-0.9894866943359375,-0.174591064453125,-0.0012664794921875
1761315221604844300,7.94084423828125,-0.9881439208984375,-0.1687774658203125,-0.00506591796875
1761315221614891300,7.950891357421875,-0.986541748046875,-0.1666717529296875,-0.0051727294921875
1761315221624938200,7.960938232421875,-0.9899444580078125,-0.16925048828125,-0.0004730224609375
1761315221634986500,7.970986572265625,-0.9963531494140625,-0.1744384765625,0.0063323974609375
1761315221645033500,7.981033447265625,-0.994873046875,-0.17608642578125,0.0067901611328125
1761315221655080200,7.991080078125,-0.9940948486328125,-0.17437744140625,0.0053253173828125
1761315221665128400,8.00112841796875,-0.9903411865234375,-0.170989990234375,0.0015716552734375
1761315221675175400,8.011175537109375,-0.979949951171875,-0.1661529541015625,-0.0009307861328125
1761315221685222400,8.021222412109376,-0.9675750732421875,-0.164794921875,-0.0008544921875
1761315221695269400,8.031269287109374,-0.9575347900390625,-0.1660919189453125,0.0044097900390625
1761315221705317400,8.0413173828125,-0.9524993896484375,-0.1673583984375,0.0145263671875
1761315221715364400,8.0513642578125,-0.94549560546875,-0.1717376708984375,0.025726318359375
1761315221725411300,8.061411376953124,-0.9388275146484375,-0.176300048828125,0.034698486328125
1761315221735458300,8.071458251953125,-0.9362030029296875,-0.1774444580078125,0.037109375
1761315221745506300,8.08150634765625,-0.9320831298828125,-0.1750640869140625,0.033782958984375
1761315221755553500,8.091553466796874,-0.9380950927734375,-0.1759033203125,0.0306396484375
1761315221765600500,8.1016005859375,-0.9529266357421875,-0.1764373779296875,0.0251312255859375
1761315221775647500,8.1116474609375,-0.95928955078125,-0.1734619140625,0.01409912109375
1761315221785695200,8.1216953125,-0.9587554931640625,-0.1730499267578125,0.000946044921875
1761315221795742200,8.1317421875,-0.957611083984375,-0.1731719970703125,-0.0063629150390625
1761315221805789400,8.14178955078125,-0.9557647705078125,-0.176849365234375,-0.0092010498046875
1761315221815836400,8.15183642578125,-0.9574737548828125,-0.181884765625,-0.0065765380859375
1761315221825884400,8.161884521484374,-0.96429443359375,-0.193267822265625,-0.0022430419921875
1761315221835931400,8.171931396484375,-0.978546142578125,-0.2012786865234375,-0.0003509521484375
1761315221845978400,8.181978271484375,-0.9903717041015625,-0.2026519775390625,-0.0026092529296875
1761315221856025300,8.192025390625,-0.99896240234375,-0.1953125,-0.0102386474609375
1761315221866073300,8.2020732421875,-1.0048065185546875,-0.1833953857421875,-0.0229034423828125
1761315221876120300,8.212120361328125,-1.01275634765625,-0.17266845703125,-0.034271240234375
1761315221886167300,8.222167236328126,-1.0182342529296875,-0.1665802001953125,-0.0424652099609375
1761315221896214300,8.23221435546875,-1.0117340087890625,-0.1580963134765625,-0.046356201171875
1761315221906262300,8.24226220703125,-1.004486083984375,-0.151092529296875,-0.049407958984375
1761315221916309200,8.252309326171876,-0.9964752197265625,-0.14990234375,-0.046722412109375
1761315221926356200,8.262356201171874,-0.980316162109375,-0.1555633544921875,-0.039276123046875
1761315221936404500,8.272404541015625,-0.9619903564453125,-0.16424560546875,-0.025482177734375
1761315221946451500,8.282451416015626,-0.94854736328125,-0.17401123046875,-0.0065155029296875
1761315221956498400,8.29249853515625,-0.934356689453125,-0.181243896484375,0.0094757080078125
1761315221966545400,8.30254541015625,-0.9186553955078125,-0.1859130859375,0.02197265625
1761315221976593200,8.31259326171875,-0.9127960205078125,-0.18707275390625,0.03216552734375
1761315221986640400,8.322640380859376,-0.911712646484375,-0.185394287109375,0.0405426025390625
1761315221996687400,8.332687255859375,-0.916900634765625,-0.184783935546875,0.04742431640625
1761315222006734300,8.342734375,-0.9239501953125,-0.1862030029296875,0.050689697265625
1761315222016782300,8.3527822265625,-0.9296112060546875,-0.1819305419921875,0.04766845703125
1761315222026829600,8.36282958984375,-0.936676025390625,-0.1779327392578125,0.046600341796875
1761315222036876500,8.37287646484375,-0.9478912353515625,-0.1794891357421875,0.047943115234375
1761315222046923500,8.382923583984375,-0.9619903564453125,-0.178985595703125,0.0527191162109375
1761315222056971300,8.39297119140625,-0.9748382568359375,-0.17572021484375,0.0552978515625
1761315222067018200,8.403018310546875,-0.984710693359375,-0.17138671875,0.056976318359375
1761315222077065500,8.4130654296875,-0.9944000244140625,-0.169891357421875,0.05908203125
1761315222087112400,8.423112548828126,-1.0034637451171875,-0.169525146484375,0.059295654296875
1761315222097160400,8.433160400390625,-1.0099945068359375,-0.169708251953125,0.0568389892578125
1761315222107207400,8.44320751953125,-1.0204620361328125,-0.17071533203125,0.0559234619140625
1761315222117254100,8.453254150390626,-1.02764892578125,-0.1722564697265625,0.049591064453125
1761315222127301400,8.46330126953125,-1.03289794921875,-0.1693267822265625,0.041259765625
1761315222137349400,8.473349365234375,-1.0385284423828125,-0.16650390625,0.02838134765625
1761315222147396400,8.483396240234375,-1.0416717529296875,-0.1661224365234375,0.0174713134765625
1761315222157443300,8.493443359375,-1.0373077392578125,-0.166900634765625,0.0111236572265625
1761315222167490600,8.503490478515625,-1.02801513671875,-0.1653900146484375,0.0042724609375
1761315222177538300,8.513538330078125,-1.019989013671875,-0.1641082763671875,-0.000640869140625
1761315222187585300,8.523585205078126,-1.0085296630859375,-0.1605682373046875,-0.00006103515625
1761315222197632300,8.53363232421875,-0.995025634765625,-0.15625,0.0018157958984375
1761315222207679200,8.54367919921875,-0.9788360595703125,-0.1541290283203125,0.0066680908203125
1761315222217727500,8.5537275390625,-0.96148681640625,-0.152557373046875,0.0138092041015625
1761315222227774500,8.5637744140625,-0.948883056640625,-0.155975341796875,0.0184326171875
1761315222237821400,8.573821533203125,-0.93914794921875,-0.156768798828125,0.0191497802734375
1761315222247868400,8.583868408203125,-0.9312286376953125,-0.1576385498046875,0.0143585205078125
1761315222257916400,8.59391650390625,-0.9219207763671875,-0.1608428955078125,0.0107269287109375
1761315222267963400,8.60396337890625,-0.9193878173828125,-0.1667938232421875,0.009429931640625
1761315222278010400,8.61401025390625,-0.926177978515625,-0.1744842529296875,0.0111236572265625
1761315222288058400,8.624058349609374,-0.9354400634765625,-0.177825927734375,0.0096588134765625
1761315222298105600,8.634105712890625,-0.9420166015625,-0.180938720703125,0.0059356689453125
1761315222308152600,8.644152587890625,-0.9570159912109375,-0.1796722412109375,0.00360107421875
1761315222318199600,8.654199462890626,-0.97369384765625,-0.176971435546875,0.00201416015625
1761315222328247600,8.66424755859375,-0.978851318359375,-0.177459716796875,0.0009765625
1761315222338294800,8.674294677734375,-0.979522705078125,-0.1764373779296875,-0.0000762939453125
1761315222348341800,8.684341796875,-0.9838409423828125,-0.1771240234375,0.003814697265625
1761315222358388700,8.694388671875,-0.9877471923828125,-0.1838226318359375,0.0084381103515625
1761315222368436500,8.7044365234375,-0.984771728515625,-0.1880950927734375,0.0099334716796875
1761315222378483700,8.714483642578125,-0.9813232421875,-0.191070556640625,0.0098114013671875
1761315222388530700,8.72453076171875,-0.97760009765625,-0.19427490234375,0.008209228515625
1761315222398577700,8.73457763671875,-0.977325439453125,-0.1970977783203125,0.0069427490234375
1761315222408625700,8.744625732421875,-0.98162841796875,-0.197052001953125,0.00799560546875
1761315222418672600,8.754672607421876,-0.9803009033203125,-0.19580078125,0.0059967041015625
1761315222428719900,8.764719970703124,-0.976898193359375,-0.1941680908203125,0.0050048828125
1761315222438766600,8.7747666015625,-0.980682373046875,-0.1896514892578125,0.007537841796875
1761315222448814600,8.784814697265626,-0.982940673828125,-0.1878204345703125,0.00775146484375
1761315222458861600,8.794861572265624,-0.980010986328125,-0.1850433349609375,0.0092926025390625
1761315222468908500,8.804908447265625,-0.9784393310546875,-0.1813201904296875,0.0126190185546875
1761315222478955800,8.814955810546875,-0.978790283203125,-0.1794891357421875,0.0170440673828125
1761315222489003800,8.825003662109374,-0.97735595703125,-0.1778717041015625,0.0197296142578125
1761315222499050500,8.835050537109375,-0.973419189453125,-0.1752166748046875,0.0223388671875
1761315222509097500,8.845097412109375,-0.971282958984375,-0.175262451171875,0.025238037109375
1761315222519144700,8.855144775390626,-0.969512939453125,-0.176605224609375,0.0273590087890625
1761315222529192700,8.865192626953124,-0.9691925048828125,-0.1762237548828125,0.0289154052734375
1761315222539239700,8.87523974609375,-0.970977783203125,-0.1766510009765625,0.027313232421875
1761315222549286700,8.88528662109375,-0.970062255859375,-0.1769866943359375,0.023712158203125
1761315222559333600,8.895333740234374,-0.9719696044921875,-0.1767425537109375,0.0187835693359375
1761315222569381600,8.905381591796875,-0.97174072265625,-0.1768646240234375,0.018218994140625
1761315222579428600,8.9154287109375,-0.9700775146484375,-0.17755126953125,0.019744873046875
1761315222589475600,8.9254755859375,-0.9669952392578125,-0.18072509765625,0.022308349609375
1761315222599522600,8.9355224609375,-0.9638519287109375,-0.1861724853515625,0.0273590087890625
1761315222609569500,8.945569580078125,-0.9620208740234375,-0.1894073486328125,0.0320281982421875
1761315222619616800,8.95561669921875,-0.965240478515625,-0.1875,0.0348052978515625
1761315222629663700,8.965663818359374,-0.9645538330078125,-0.184112548828125,0.0331573486328125
1761315222639711700,8.975711669921875,-0.9635772705078125,-0.1827239990234375,0.0318603515625
1761315222649758500,8.985758544921875,-0.9642486572265625,-0.183837890625,0.0330963134765625
1761315222659805700,8.9958056640625,-0.964752197265625,-0.1847076416015625,0.03399658203125
1761315222669852700,9.005852783203125,-0.9642181396484375,-0.1834259033203125,0.0337066650390625
1761315222679900700,9.015900634765625,-0.963897705078125,-0.18353271484375,0.0311431884765625
1761315222689947600,9.02594775390625,-0.9651336669921875,-0.182464599609375,0.027496337890625
1761315222699994600,9.03599462890625,-0.9588623046875,-0.181976318359375,0.0242156982421875
1761315222710041900,9.046041748046875,-0.956146240234375,-0.1834259033203125,0.0254364013671875
1761315222720089600,9.056089599609376,-0.9626312255859375,-0.187255859375,0.02972412109375
1761315222730136600,9.066136474609374,-0.961822509765625,-0.1888580322265625,0.03009033203125
1761315222740183600,9.07618359375,-0.9580535888671875,-0.18701171875,0.02764892578125
1761315222750230500,9.08623046875,-0.950347900390625,-0.1839141845703125,0.0231475830078125
1761315222760278800,9.09627880859375,-0.9456024169921875,-0.184234619140625,0.0214080810546875
1761315222770325800,9.10632568359375,-0.9529571533203125,-0.184600830078125,0.0238189697265625
1761315222780372700,9.116372802734375,-0.9610443115234375,-0.186004638671875,0.025970458984375
1761315222790419500,9.12641943359375,-0.964324951171875,-0.1855621337890625,0.026214599609375
1761315222800467700,9.1364677734375,-0.9677886962890625,-0.1813812255859375,0.02288818359375
1761315222810514700,9.1465146484375,-0.9675445556640625,-0.177001953125,0.0185394287109375
1761315222820561700,9.156561767578125,-0.9699859619140625,-0.1750030517578125,0.0172119140625
1761315222830609700,9.166609619140624,-0.9741058349609375,-0.17620849609375,0.0157623291015625
1761315222840656600,9.17665673828125,-0.9744110107421875,-0.178802490234375,0.0148773193359375
1761315222850703600,9.18670361328125,-0.9764862060546875,-0.180084228515625,0.0127105712890625
1761315222860750600,9.19675048828125,-0.9726715087890625,-0.182647705078125,0.009490966796875
1761315222870797600,9.206797607421874,-0.9739227294921875,-0.186431884765625,0.009490966796875
1761315222880845600,9.216845458984375,-0.9764251708984375,-0.1904144287109375,0.0106201171875
1761315222890892800,9.226892822265626,-0.9747314453125,-0.193328857421875,0.0110015869140625
1761315222900939800,9.236939697265624,-0.973968505859375,-0.194976806640625,0.0106048583984375
1761315222910987500,9.246987548828125,-0.9737548828125,-0.1957855224609375,0.0132904052734375
1761315222921034500,9.257034423828125,-0.9726104736328125,-0.1962432861328125,0.0154266357421875
1761315222931081700,9.267081787109374,-0.97314453125,-0.1964874267578125,0.0161285400390625
1761315222941128700,9.277128662109375,-0.97369384765625,-0.195526123046875,0.013885498046875
1761315222951176700,9.2871767578125,-0.97540283203125,-0.1973724365234375,0.0124359130859375
1761315222961223700,9.2972236328125,-0.9766082763671875,-0.19586181640625,0.008514404296875
1761315222971270700,9.307270751953125,-0.9748687744140625,-0.194427490234375,0.006317138671875
1761315222981317600,9.317317626953125,-0.9707794189453125,-0.1953887939453125,0.0087432861328125
1761315222991365600,9.32736572265625,-0.969818115234375,-0.197052001953125,0.012603759765625
1761315223001412600,9.33741259765625,-0.9693145751953125,-0.1955108642578125,0.0148773193359375
1761315223011459600,9.34745947265625,-0.96649169921875,-0.1952056884765625,0.0180511474609375
1761315223021506600,9.357506591796875,-0.9694366455078125,-0.196502685546875,0.0201263427734375
1761315223031554800,9.367554931640624,-0.96435546875,-0.194580078125,0.019439697265625
1761315223041601500,9.3776015625,-0.9563751220703125,-0.1913909912109375,0.017791748046875
1761315223051648500,9.3876484375,-0.95550537109375,-0.18963623046875,0.0189208984375
1761315223061695500,9.397695556640626,-0.95849609375,-0.189483642578125,0.0227813720703125
1761315223071743700,9.40774365234375,-0.9595184326171875,-0.1888427734375,0.02520751953125
1761315223081790700,9.417790771484375,-0.9580078125,-0.1859893798828125,0.0256195068359375
1761315223091837700,9.427837646484376,-0.9636383056640625,-0.1827239990234375,0.02490234375
1761315223101884700,9.437884765625,-0.9651031494140625,-0.1795501708984375,0.0198974609375
1761315223111932700,9.4479326171875,-0.969451904296875,-0.177825927734375,0.01654052734375
1761315223121979600,9.457979736328125,-0.97589111328125,-0.17816162109375,0.0185546875
1761315223132026600,9.468026611328124,-0.978790283203125,-0.1778106689453125,0.0180206298828125
1761315223142073600,9.478073486328125,-0.97625732421875,-0.174591064453125,0.017181396484375
1761315223152121600,9.48812158203125,-0.9758148193359375,-0.1799774169921875,0.0180206298828125
1761315223162168800,9.4981689453125,-0.9749908447265625,-0.181488037109375,0.0203704833984375
1761315223172215800,9.5082158203125,-0.976715087890625,-0.18133544921875,0.0220184326171875
1761315223182262800,9.5182626953125,-0.9757232666015625,-0.1822967529296875,0.023193359375
1761315223192310500,9.528310546875,-0.97369384765625,-0.179840087890625,0.0211334228515625
1761315223202360600,9.538360595703125,-0.971923828125,-0.1787567138671875,0.0174560546875
1761315223212407600,9.548407470703125,-0.9694671630859375,-0.1787261962890625,0.0142822265625
1761315223222454500,9.55845458984375,-0.9707489013671875,-0.179229736328125,0.013427734375
1761315223232501800,9.568501708984375,-0.96875,-0.178497314453125,0.012969970703125
1761315223242549800,9.5785498046875,-0.96331787109375,-0.18072509765625,0.0131988525390625
1761315223252596700,9.5885966796875,-0.962554931640625,-0.1836395263671875,0.0139923095703125
1761315223262643500,9.5986435546875,-0.9662322998046875,-0.1849212646484375,0.018829345703125
1761315223272690700,9.608690673828125,-0.97283935546875,-0.1839752197265625,0.020965576171875
1761315223282738700,9.61873876953125,-0.9772491455078125,-0.1830291748046875,0.020355224609375
1761315223292785700,9.62878564453125,-0.976226806640625,-0.18011474609375,0.0184173583984375
1761315223302832600,9.63883251953125,-0.9748687744140625,-0.1781005859375,0.014190673828125
1761315223312880600,9.648880615234376,-0.972991943359375,-0.17681884765625,0.0118560791015625
1761315223322928400,9.658928466796874,-0.970489501953125,-0.178375244140625,0.0108489990234375
1761315223332975400,9.668975341796875,-0.9668121337890625,-0.17999267578125,0.0115814208984375
1761315223343022600,9.679022705078125,-0.969390869140625,-0.18292236328125,0.0104522705078125
1761315223353070600,9.689070556640624,-0.9680938720703125,-0.184417724609375,0.007598876953125
1761315223363117600,9.69911767578125,-0.9620361328125,-0.184539794921875,0.005645751953125
1761315223373164300,9.709164306640625,-0.966094970703125,-0.188507080078125,0.0055694580078125
1761315223383211300,9.719211181640626,-0.9661102294921875,-0.191162109375,0.0104522705078125
1761315223393259500,9.729259521484375,-0.962615966796875,-0.1926727294921875,0.0115814208984375
1761315223403306500,9.739306396484375,-0.96234130859375,-0.191558837890625,0.0102386474609375
1761315223413353500,9.749353515625,-0.9623565673828125,-0.1918792724609375,0.0091552734375
1761315223423400400,9.759400390625,-0.96337890625,-0.1917266845703125,0.0060272216796875
1761315223433448400,9.769448486328125,-0.9640350341796875,-0.189788818359375,0.0032806396484375
1761315223443495400,9.779495361328125,-0.962493896484375,-0.1880645751953125,0.0025787353515625
1761315223453542400,9.78954248046875,-0.9609527587890625,-0.189422607421875,0.0078887939453125
1761315223463589400,9.79958935546875,-0.9643707275390625,-0.1934661865234375,0.01556396484375
1761315223473637600,9.8096376953125,-0.958892822265625,-0.1942596435546875,0.017242431640625
1761315223483684600,9.8196845703125,-0.959930419921875,-0.191864013671875,0.0163116455078125
1761315223493731600,9.829731689453125,-0.961334228515625,-0.1907958984375,0.0154876708984375
1761315223503778600,9.839778564453125,-0.962738037109375,-0.18878173828125,0.0160369873046875
1761315223513826600,9.84982666015625,-0.965240478515625,-0.188934326171875,0.0174713134765625
1761315223523873500,9.85987353515625,-0.963134765625,-0.18951416015625,0.016387939453125
1761315223533920500,9.86992041015625,-0.9606781005859375,-0.1923065185546875,0.014190673828125
1761315223543967500,9.879967529296875,-0.9647369384765625,-0.197479248046875,0.0135345458984375
1761315223554015500,9.890015380859374,-0.968475341796875,-0.2001190185546875,0.0086212158203125
1761315223564062700,9.900062744140625,-0.966461181640625,-0.198822021484375,-0.0000762939453125
1761315223574109400,9.910109375,-0.9665374755859375,-0.198638916015625,-0.00823974609375
1761315223584156400,9.920156494140626,-0.967437744140625,-0.201995849609375,-0.013397216796875
1761315223594204400,9.930204345703125,-0.9671478271484375,-0.2043304443359375,-0.01666259765625
1761315223604251400,9.94025146484375,-0.968170166015625,-0.2069854736328125,-0.0163421630859375
1761315223614298600,9.950298583984376,-0.9689483642578125,-0.2103424072265625,-0.0120849609375
1761315223624345600,9.960345703125,-0.9685211181640625,-0.2118072509765625,-0.0025634765625
1761315223634393300,9.970393310546875,-0.9738006591796875,-0.2097320556640625,-0.00054931640625
1761315223644440300,9.9804404296875,-0.975128173828125,-0.2062225341796875,0.0057830810546875
1761315223654487300,9.9904873046875,-0.975433349609375,-0.201873779296875,0.0098419189453125
1761315223664534500,10.000534423828125,-0.971649169921875,-0.1978912353515625,0.0148773193359375
1761315223674582500,10.01058251953125,-0.9709930419921875,-0.195037841796875,0.0218963623046875
1761315223684629500,10.02062939453125,-0.973480224609375,-0.18853759765625,0.027008056640625
1761315223694676500,10.030676513671875,-0.9678192138671875,-0.1838531494140625,0.033233642578125
1761315223704723700,10.0407236328125,-0.9639739990234375,-0.18328857421875,0.0424652099609375
1761315223714771500,10.050771484375,-0.963897705078125,-0.18310546875,0.052215576171875
1761315223724818400,10.060818359375,-0.96258544921875,-0.18316650390625,0.061279296875
1761315223734865400,10.070865478515625,-0.952484130859375,-0.18267822265625,0.06390380859375
1761315223744913700,10.08091357421875,-0.94879150390625,-0.1796875,0.06549072265625
1761315223754960600,10.090960693359374,-0.9527130126953125,-0.1825714111328125,0.0679168701171875
1761315223765007600,10.101007568359375,-0.955474853515625,-0.18402099609375,0.06756591796875
1761315223775054300,10.111054443359375,-0.9668731689453125,-0.1794586181640625,0.064300537109375
1761315223785102600,10.1211025390625,-0.9806060791015625,-0.18157958984375,0.05877685546875
1761315223795149600,10.131149658203125,-0.977752685546875,-0.1819000244140625,0.0523681640625
1761315223805196500,10.141196533203125,-0.9747772216796875,-0.1798553466796875,0.041778564453125
1761315223815243500,10.151243408203126,-0.96685791015625,-0.1860504150390625,0.036102294921875
1761315223825291500,10.16129150390625,-0.961395263671875,-0.1985015869140625,0.0351409912109375
1761315223835338500,10.17133837890625,-0.957763671875,-0.20623779296875,0.0364990234375
1761315223845385500,10.181385498046875,-0.9472198486328125,-0.2054595947265625,0.0365142822265625
1761315223855432400,10.191432373046876,-0.9403533935546875,-0.20587158203125,0.037261962890625
1761315223865480400,10.20148046875,-0.9337310791015625,-0.2110443115234375,0.0381927490234375
1761315223875527400,10.21152734375,-0.93243408203125,-0.215545654296875,0.042510986328125
1761315223885574700,10.22157470703125,-0.93609619140625,-0.2181549072265625,0.0411224365234375
1761315223895621600,10.23162158203125,-0.9356842041015625,-0.2164459228515625,0.03759765625
1761315223905669400,10.24166943359375,-0.9442291259765625,-0.2146148681640625,0.0333404541015625
1761315223915716400,10.25171630859375,-0.95513916015625,-0.2119598388671875,0.03009033203125
1761315223925763600,10.261763671875,-0.96429443359375,-0.209320068359375,0.0281219482421875
1761315223935810600,10.271810546875,-0.974334716796875,-0.2044219970703125,0.0248870849609375
1761315223945858600,10.281858642578126,-0.983428955078125,-0.2040557861328125,0.0259857177734375
1761315223955905500,10.291905517578124,-0.98968505859375,-0.198516845703125,0.0241851806640625
1761315223965952500,10.301952392578125,-1.0005950927734375,-0.195892333984375,0.01983642578125
1761315223975999500,10.31199951171875,-1.00177001953125,-0.19500732421875,0.0183258056640625
1761315223986047500,10.322047607421876,-0.9987640380859375,-0.192840576171875,0.0182952880859375
1761315223996094500,10.332094482421875,-1.000152587890625,-0.1895904541015625,0.0198974609375
1761315224006141400,10.342141357421875,-0.9993133544921875,-0.18756103515625,0.0243377685546875
1761315224016188400,10.3521884765625,-0.9946136474609375,-0.184539794921875,0.025421142578125
1761315224026236400,10.362236328125,-0.988494873046875,-0.1836700439453125,0.0253448486328125
1761315224036283400,10.372283447265625,-0.9809722900390625,-0.18408203125,0.026885986328125
1761315224046330400,10.382330322265625,-0.9721527099609375,-0.186126708984375,0.0289764404296875
1761315224056377300,10.39237744140625,-0.9646453857421875,-0.1869659423828125,0.031494140625
1761315224066425600,10.402425537109375,-0.9566497802734375,-0.189666748046875,0.0335845947265625
1761315224076472600,10.41247265625,-0.9527587890625,-0.1921844482421875,0.032867431640625
1761315224086519600,10.42251953125,-0.9500579833984375,-0.19195556640625,0.0297393798828125
1761315224096566500,10.43256640625,-0.9502716064453125,-0.191741943359375,0.026519775390625
1761315224106614500,10.442614501953125,-0.9549560546875,-0.19183349609375,0.0222625732421875
1761315224116661500,10.45266162109375,-0.958740234375,-0.1895294189453125,0.02081298828125
1761315224126708500,10.46270849609375,-0.9586944580078125,-0.191741943359375,0.0205841064453125
1761315224136755500,10.47275537109375,-0.966552734375,-0.197479248046875,0.0230560302734375
1761315224146803500,10.482803466796875,-0.9703216552734375,-0.1987457275390625,0.026611328125
1761315224156850700,10.4928505859375,-0.971893310546875,-0.1966094970703125,0.0280609130859375
1761315224166897400,10.5028974609375,-0.973052978515625,-0.1976776123046875,0.02349853515625
1761315224176944400,10.5129443359375,-0.9699249267578125,-0.195953369140625,0.0149688720703125
1761315224186992400,10.522992431640626,-0.968170166015625,-0.1940765380859375,0.012420654296875
1761315224197039600,10.53303955078125,-0.9694061279296875,-0.192657470703125,0.008514404296875
1761315224207086600,10.543086669921875,-0.96441650390625,-0.19476318359375,0.009124755859375
1761315224217134600,10.553134521484376,-0.959869384765625,-0.2005157470703125,0.0084228515625
1761315224227181300,10.563181396484374,-0.95831298828125,-0.204254150390625,0.010467529296875
1761315224237228300,10.573228271484375,-0.9568634033203125,-0.205535888671875,0.013153076171875
1761315224247275500,10.583275634765625,-0.951446533203125,-0.2028656005859375,0.01678466796875
1761315224257323500,10.593323486328124,-0.9516448974609375,-0.1999664306640625,0.0186767578125
1761315224267370500,10.60337060546875,-0.9570770263671875,-0.197235107421875,0.0208740234375
1761315224277417500,10.61341748046875,-0.9599609375,-0.196258544921875,0.0241851806640625
1761315224287464400,10.62346435546875,-0.96099853515625,-0.1953277587890625,0.02734375
1761315224297512400,10.633512451171875,-0.96875,-0.1926422119140625,0.0293121337890625
1761315224307558700,10.64355859375,-0.976898193359375,-0.188323974609375,0.02734375
1761315224317606000,10.65360595703125,-0.978271484375,-0.1880645751953125,0.0225982666015625
1761315224327652900,10.66365283203125,-0.9774932861328125,-0.18890380859375,0.0210113525390625
1761315224337700900,10.673700927734375,-0.98553466796875,-0.189483642578125,0.024810791015625
1761315224347747800,10.683747802734375,-0.9836883544921875,-0.19580078125,0.02880859375
1761315224357794800,10.693794921875,-0.9787445068359375,-0.1985321044921875,0.036865234375
1761315224367842000,10.703842041015625,-0.980987548828125,-0.19708251953125,0.0390625
1761315224377889800,10.713889892578125,-0.9755859375,-0.197723388671875,0.03985595703125
1761315224387936800,10.723936767578126,-0.9678497314453125,-0.199371337890625,0.0399169921875
1761315224397983700,10.733983642578124,-0.9653167724609375,-0.198760986328125,0.0386199951171875
1761315224408030700,10.74403076171875,-0.963043212890625,-0.1969757080078125,0.0366058349609375
1761315224418079000,10.754078857421876,-0.962860107421875,-0.198486328125,0.0336456298828125
1761315224428126000,10.7641259765625,-0.9652099609375,-0.198883056640625,0.0272064208984375
1761315224438173000,10.7741728515625,-0.963836669921875,-0.1962738037109375,0.02069091796875
1761315224448220000,10.784219970703125,-0.9591522216796875,-0.19256591796875,0.0152435302734375
1761315224458268000,10.794267822265626,-0.9574432373046875,-0.1945953369140625,0.018524169921875
1761315224468315000,10.80431494140625,-0.9600677490234375,-0.2003173828125,0.0218658447265625
1761315224478361900,10.81436181640625,-0.9586181640625,-0.2010345458984375,0.0224151611328125
1761315224488408800,10.824408935546876,-0.9573211669921875,-0.1985626220703125,0.020263671875
1761315224498456800,10.834456787109374,-0.9651031494140625,-0.1952362060546875,0.019378662109375
1761315224508503800,10.84450390625,-0.971832275390625,-0.1919708251953125,0.0201873779296875
1761315224518550800,10.85455078125,-0.9729766845703125,-0.1871185302734375,0.018646240234375
1761315224528597800,10.86459765625,-0.9696044921875,-0.185302734375,0.01605224609375
1761315224538646000,10.87464599609375,-0.9658050537109375,-0.1877288818359375,0.015625
1761315224548693000,10.88469287109375,-0.9682159423828125,-0.190460205078125,0.01971435546875
1761315224558740000,10.894739990234376,-0.9638519287109375,-0.1896820068359375,0.01898193359375
1761315224568787000,10.904786865234374,-0.9571685791015625,-0.1882781982421875,0.01959228515625
1761315224578834700,10.914834716796875,-0.957763671875,-0.19091796875,0.021697998046875
1761315224588882000,10.9248818359375,-0.9598388671875,-0.193603515625,0.0227508544921875
1761315224598929000,10.934928955078124,-0.958648681640625,-0.1923065185546875,0.0220489501953125
1761315224608976000,10.944975830078125,-0.962890625,-0.189544677734375,0.021209716796875
1761315224619024000,10.95502392578125,-0.9603424072265625,-0.1873931884765625,0.01763916015625
1761315224629070800,10.96507080078125,-0.9612579345703125,-0.1881866455078125,0.015594482421875
1761315224639118000,10.9751181640625,-0.9687042236328125,-0.19012451171875,0.0187225341796875
1761315224649164800,10.985164794921875,-0.9726715087890625,-0.192352294921875,0.0216217041015625
1761315224659212800,10.995212890625,-0.9744720458984375,-0.1928558349609375,0.023162841796875
1761315224669259800,11.005259765625,-0.9734344482421875,-0.1915283203125,0.0204620361328125
1761315224679307000,11.01530712890625,-0.97186279296875,-0.1918487548828125,0.0201568603515625
1761315224689355000,11.02535498046875,-0.9732513427734375,-0.1934356689453125,0.0204925537109375
1761315224699401700,11.035401611328124,-0.97772216796875,-0.1951904296875,0.02301025390625
1761315224709448700,11.04544873046875,-0.97686767578125,-0.195281982421875,0.021331787109375
1761315224719495700,11.05549560546875,-0.9716949462890625,-0.1949005126953125,0.01580810546875
1761315224729544000,11.0655439453125,-0.971160888671875,-0.1949615478515625,0.012359619140625
1761315224739591000,11.0755908203125,-0.970428466796875,-0.1941680908203125,0.011138916015625
1761315224749638000,11.085637939453125,-0.9728240966796875,-0.194580078125,0.010711669921875
1761315224759684900,11.095684814453126,-0.9781036376953125,-0.19500732421875,0.011749267578125
1761315224769732900,11.10573291015625,-0.9788360595703125,-0.193328857421875,0.01043701171875
1761315224779779800,11.11577978515625,-0.9780426025390625,-0.18988037109375,0.009002685546875
1761315224789826800,11.125826904296876,-0.977569580078125,-0.18939208984375,0.0109710693359375
1761315224799873800,11.135873779296874,-0.9771728515625,-0.18865966796875,0.0140533447265625
1761315224809922000,11.145922119140625,-0.974884033203125,-0.188751220703125,0.01788330078125
1761315224819969000,11.155968994140625,-0.9694976806640625,-0.189056396484375,0.0226593017578125
1761315224830016000,11.16601611328125,-0.961883544921875,-0.18914794921875,0.0243377685546875
1761315224840063000,11.17606298828125,-0.9578094482421875,-0.18896484375,0.0256195068359375
1761315224850110700,11.18611083984375,-0.95758056640625,-0.188568115234375,0.0261383056640625
1761315224860158000,11.196157958984376,-0.9569244384765625,-0.18829345703125,0.0251007080078125
1761315224870205000,11.206204833984375,-0.956634521484375,-0.1869659423828125,0.0251617431640625
1761315224880252000,11.216251953125,-0.9578094482421875,-0.1881256103515625,0.024871826171875
1761315224890300000,11.2262998046875,-0.958984375,-0.188018798828125,0.0251922607421875
1761315224900347000,11.236346923828124,-0.9590301513671875,-0.18829345703125,0.0255584716796875
1761315224910393900,11.246393798828125,-0.96087646484375,-0.1887054443359375,0.025909423828125
1761315224920440800,11.25644091796875,-0.9632720947265625,-0.1884307861328125,0.0250396728515625
1761315224930488800,11.26648876953125,-0.9683990478515625,-0.19061279296875,0.023223876953125
1761315224940535800,11.276535888671875,-0.9680328369140625,-0.1901702880859375,0.017059326171875
1761315224950583000,11.2865830078125,-0.97027587890625,-0.18853759765625,0.018035888671875
1761315224960630000,11.296630126953126,-0.9811553955078125,-0.1873016357421875,0.0257568359375
1761315224970677800,11.306677734375,-0.9825592041015625,-0.182220458984375,0.0297698974609375
1761315224980724700,11.316724853515625,-0.98583984375,-0.1767120361328125,0.0262298583984375
1761315224990771700,11.326771728515626,-0.98638916015625,-0.173736572265625,0.024444580078125
1761315225000819000,11.33681884765625,-0.9759674072265625,-0.1717681884765625,0.0220184326171875
1761315225010867000,11.346866943359375,-0.97705078125,-0.1738128662109375,0.0195770263671875
1761315225020914000,11.356913818359375,-0.9826202392578125,-0.180419921875,0.024017333984375
1761315225030961000,11.3669609375,-0.9836578369140625,-0.1815948486328125,0.0292205810546875
1761315225041007900,11.3770078125,-0.982757568359375,-0.1738128662109375,0.02569580078125
1761315225051055900,11.387055908203125,-0.9821319580078125,-0.173309326171875,0.025299072265625
1761315225061102800,11.397102783203126,-0.9783935546875,-0.177764892578125,0.01885986328125
1761315225071149800,11.40714990234375,-0.96881103515625,-0.1818389892578125,0.0137786865234375
1761315225081196800,11.41719677734375,-0.9736328125,-0.1838836669921875,0.0240020751953125
1761315225091245000,11.4272451171875,-0.9708099365234375,-0.1939544677734375,0.0256500244140625
1761315225101291800,11.437291748046874,-0.95355224609375,-0.197723388671875,0.0174407958984375
1761315225111338800,11.4473388671875,-0.9544830322265625,-0.1954803466796875,0.0208892822265625
1761315225121385700,11.4573857421875,-0.9594879150390625,-0.199371337890625,0.027557373046875
1761315225131434000,11.46743408203125,-0.9623870849609375,-0.1961822509765625,0.029296875
1761315225141481000,11.47748095703125,-0.9615936279296875,-0.19049072265625,0.0206146240234375
1761315225151528000,11.48752783203125,-0.9635467529296875,-0.1892242431640625,0.01654052734375
1761315225161575700,11.49757568359375,-0.970001220703125,-0.1930999755859375,0.016265869140625
1761315225171622700,11.50762255859375,-0.9681243896484375,-0.19549560546875,0.0141448974609375
1761315225181670000,11.517669921875,-0.9605865478515625,-0.194061279296875,0.0073394775390625
1761315225191716900,11.527716796875,-0.9540557861328125,-0.195892333984375,0.0047454833984375
1761315225201764900,11.537764892578124,-0.952972412109375,-0.202850341796875,0.0070953369140625
1761315225211811800,11.547811767578125,-0.9556732177734375,-0.209686279296875,0.014068603515625
1761315225221859000,11.557859130859375,-0.95654296875,-0.21038818359375,0.018402099609375
1761315225231906000,11.567906005859374,-0.9580230712890625,-0.206695556640625,0.01800537109375
1761315225241953800,11.577953857421875,-0.961700439453125,-0.2029266357421875,0.019256591796875
1761315225252000800,11.588000732421875,-0.962982177734375,-0.196563720703125,0.0152740478515625
1761315225262047700,11.5980478515625,-0.96514892578125,-0.19488525390625,0.0124359130859375
1761315225272095000,11.608094970703124,-0.9649200439453125,-0.19488525390625,0.0173492431640625
1761315225282143000,11.61814306640625,-0.9708099365234375,-0.193878173828125,0.022796630859375
1761315225292190000,11.62818994140625,-0.9747314453125,-0.19207763671875,0.026824951171875
1761315225302236700,11.638236572265624,-0.9792022705078125,-0.1915130615234375,0.0262908935546875
1761315225312284000,11.648283935546875,-0.9802093505859375,-0.1881866455078125,0.0233917236328125
1761315225322332000,11.658331787109375,-0.9784088134765625,-0.1834869384765625,0.0222015380859375
1761315225332379100,11.668379150390624,-0.97698974609375,-0.1847076416015625,0.0213470458984375
1761315225342426000,11.678426025390625,-0.9783782958984375,-0.188140869140625,0.024139404296875
1761315225352473000,11.68847314453125,-0.9748382568359375,-0.18048095703125,0.0234832763671875
1761315225362520800,11.698520751953126,-0.9688873291015625,-0.18402099609375,0.0277862548828125
1761315225372567800,11.70856787109375,-0.968536376953125,-0.1937408447265625,0.033355712890625
1761315225382615000,11.718614990234375,-0.969879150390625,-0.1906890869140625,0.0338897705078125
1761315225392662000,11.728662109375,-0.9638519287109375,-0.1864776611328125,0.0261077880859375
1761315225402710000,11.7387099609375,-0.9549102783203125,-0.188629150390625,0.0203857421875
1761315225412757000,11.748757080078125,-0.9541168212890625,-0.185394287109375,0.018524169921875
1761315225422804000,11.758803955078125,-0.954498291015625,-0.189056396484375,0.024383544921875
1761315225432851200,11.768851318359374,-0.9586944580078125,-0.1963348388671875,0.0311279296875
1761315225442899000,11.77889892578125,-0.9596099853515625,-0.1993255615234375,0.0318603515625
1761315225452946000,11.78894580078125,-0.9693603515625,-0.1985931396484375,0.0326995849609375
1761315225462993000,11.798992919921876,-0.967926025390625,-0.189666748046875,0.022674560546875
1761315225473040100,11.8090400390625,-0.9608001708984375,-0.184844970703125,0.017578125
1761315225483088100,11.819088134765625,-0.9620819091796875,-0.1833038330078125,0.017333984375
1761315225493134800,11.829134765625,-0.949249267578125,-0.1826934814453125,0.02264404296875
1761315225503181800,11.839181884765624,-0.9709625244140625,-0.183074951171875,0.0457611083984375
1761315225513228800,11.849228759765625,-1.0018157958984375,-0.20330810546875,0.04864501953125
1761315225523277000,11.859277099609375,-0.983245849609375,-0.2123565673828125,0.0343017578125
1761315225533324000,11.869323974609374,-0.970489501953125,-0.2039031982421875,0.0255584716796875
1761315225543371000,11.87937109375,-0.962371826171875,-0.1928253173828125,0.01416015625
1761315225553418000,11.88941796875,-0.9564056396484375,-0.1974639892578125,0.008331298828125
1761315225563466000,11.899466064453126,-0.9463958740234375,-0.203155517578125,0.005401611328125
1761315225573513000,11.909512939453125,-0.94036865234375,-0.200347900390625,0.006317138671875
1761315225583560000,11.919559814453125,-0.9462432861328125,-0.1966705322265625,0.012908935546875
