time,seconds_elapsed,z,y,x
1761315213727799300,0.06379931640625,-0.0005395564367063344,0.2133447676897049,0.012004198506474495
1761315213737846300,0.07384619140625,-0.021629128605127335,0.12401595711708069,0.08412472903728485
1761315213747893200,0.083893310546875,-0.02190503291785717,0.03375423327088356,0.13054628670215607
1761315213757941200,0.093941162109375,-0.017075922340154648,-0.01500877644866705,0.15922720730304718
1761315213767988500,0.103988525390625,-0.013088105246424675,-0.04393816366791725,0.15558239817619324
1761315213778035500,0.114035400390625,-0.021519407629966736,-0.0769999772310257,0.12737420201301575
1761315213788082400,0.12408251953125,-0.03268657252192497,-0.1096135824918747,0.08130257576704025
1761315213798130200,0.134130126953125,-0.046008504927158356,-0.12129446864128113,0.032524921000003815
1761315213808177400,0.144177490234375,-0.04873345047235489,-0.11061306297779083,-0.013407418504357338
1761315213818224400,0.154224365234375,-0.049136385321617126,-0.0872906967997551,-0.052800364792346954
1761315213828271400,0.164271240234375,-0.053109291940927505,-0.05018354207277298,-0.08621877431869507
1761315213838319400,0.1743193359375,-0.0719871073961258,0.006598247680813074,-0.11573512107133865
1761315213848366300,0.184366455078125,-0.08779536932706833,0.06034989282488823,-0.1520204246044159
1761315213858413600,0.19441357421875,-0.10249974578619003,0.11179151386022568,-0.19262057542800903
1761315213868460500,0.20446044921875,-0.1124410554766655,0.13846680521965027,-0.2359643280506134
1761315213878508300,0.21450830078125,-0.11014168709516525,0.12788152694702148,-0.2664774954319
1761315213888555300,0.22455517578125,-0.09244844317436218,0.09757182747125626,-0.2831294536590576
1761315213898602200,0.234602294921875,-0.04950390383601189,0.0591067299246788,-0.2779906094074249
1761315213908649500,0.2446494140625,0.01563861407339573,0.019687151536345482,-0.26812466979026794
1761315213918696400,0.254696533203125,0.07275968790054321,-0.0195462703704834,-0.24145416915416718
1761315213928744200,0.264744140625,0.12154853343963623,-0.059419117867946625,-0.21592935919761658
1761315213938791200,0.274791259765625,0.14807148277759552,-0.0931943953037262,-0.19333377480506897
1761315213948838400,0.28483837890625,0.15574778616428375,-0.11184051632881165,-0.15908019244670868
1761315213958885400,0.294885498046875,0.1456935554742813,-0.0776045098900795,-0.10024777054786682
1761315213968933400,0.304933349609375,0.13191649317741394,-0.038004904985427856,-0.02371651493012905
1761315213978980400,0.31498046875,0.11397051066160202,-0.0021015002857893705,0.07027655839920044
1761315213989027300,0.32502734375,0.09217919409275055,0.020798223093152046,0.16375723481178284
1761315213999074600,0.335074462890625,0.07434587180614471,0.021585719659924507,0.22874422371387482
1761315214009122300,0.345122314453125,0.07465985417366028,0.00538384635001421,0.24170289933681488
1761315214019169300,0.355169189453125,0.09068676084280014,-0.006066414527595043,0.2135964334011078
1761315214029216300,0.36521630859375,0.11303707212209702,-0.003832288784906268,0.15675659477710724
1761315214039263200,0.37526318359375,0.13481374084949493,-0.0006221143994480371,0.07792462408542633
1761315214049311500,0.3853115234375,0.15394163131713867,-0.009920008480548859,-0.004397145472466946
1761315214059358500,0.3953583984375,0.15834063291549683,-0.03410204499959946,-0.06692949682474136
1761315214069405400,0.405405517578125,0.1510307937860489,-0.03792234882712364,-0.09744053333997726
1761315214079452200,0.4154521484375,0.13917413353919983,-0.01555259432643652,-0.09426338225603104
1761315214089500400,0.42550048828125,0.13275112211704254,0.008889631368219852,-0.07974835485219955
1761315214099547400,0.43554736328125,0.11825074255466461,0.026578081771731377,-0.04966076463460922
1761315214109594400,0.445594482421875,0.10233675688505173,0.0340740792453289,-0.01290567871183157
1761315214119641300,0.455641357421875,0.08964227139949799,0.026085130870342255,0.0203942209482193
1761315214129689300,0.465689453125,0.07964769005775452,0.026495790109038353,0.051893290132284164
1761315214139736300,0.475736328125,0.07744365930557251,0.035883963108062744,0.0734608992934227
1761315214149783300,0.485783203125,0.08060243725776672,0.04158579185605049,0.08486029505729675
1761315214159830300,0.495830322265625,0.0828823670744896,0.043836429715156555,0.0855625718832016
1761315214169878500,0.50587841796875,0.09024707227945328,0.033779799938201904,0.0637211874127388
1761315214179925500,0.515925537109375,0.0951819121837616,0.022115156054496765,0.03633829951286316
1761315214189972500,0.525972412109375,0.09997986257076263,-0.005543103441596031,0.0062666842713952065
1761315214200019500,0.53601953125,0.10560418665409088,-0.025550100952386856,0.001996039180085063
1761315214210067200,0.546067138671875,0.10849025845527649,-0.023298131301999092,0.02828197181224823
1761315214220114400,0.556114501953125,0.10993316024541855,-0.0010135991033166647,0.08435828983783722
1761315214230161400,0.566161376953125,0.11097125709056854,0.02768142893910408,0.14149720966815948
1761315214240208400,0.57620849609375,0.11479129642248154,0.0558994859457016,0.1906658262014389
1761315214250256400,0.58625634765625,0.12535712122917175,0.08797406405210495,0.2195185124874115
1761315214260303400,0.596303466796875,0.1625409722328186,0.12860511243343353,0.21935684978961945
1761315214270350300,0.606350341796875,0.22866247594356537,0.20189957320690155,0.2026367336511612
1761315214280397300,0.616397216796875,0.3179028630256653,0.29565322399139404,0.15636803209781647
1761315214290445300,0.6264453125,0.4044657349586487,0.35904738306999207,0.08898153901100159
1761315214300496400,0.636496337890625,0.45826849341392517,0.33257901668548584,0.002501773415133357
1761315214310543400,0.64654345703125,0.4624935984611511,0.20049315690994263,-0.05729711055755615
1761315214320590300,0.65659033203125,0.41284430027008057,0.04892280325293541,-0.08899804949760437
1761315214330638000,0.66663818359375,0.3095879554748535,-0.04254879057407379,-0.09252087771892548
1761315214340685300,0.676685302734375,0.17190492153167725,-0.09643971920013428,-0.06151049956679344
1761315214350732300,0.686732177734375,0.06366259604692459,-0.06897959858179092,0.003433080855756998
1761315214360779300,0.696779296875,0.02262648195028305,0.042756251990795135,0.08661957830190659
1761315214370827300,0.7068271484375,0.04786073416471481,0.20769141614437103,0.14283278584480286
1761315214380874500,0.71687451171875,0.12638883292675018,0.38550296425819397,0.17606930434703827
1761315214390921500,0.72692138671875,0.22642967104911804,0.5338324904441833,0.16823934018611908
1761315214400968200,0.73696826171875,0.3152413070201874,0.6182714700698853,0.12217863649129868
1761315214411015200,0.74701513671875,0.3879051208496094,0.6803308725357056,0.041424673050642014
1761315214421063200,0.757063232421875,0.45228704810142517,0.7499994039535522,-0.06235658377408981
1761315214431110400,0.7671103515625,0.49335911870002747,0.7844199538230896,-0.18532085418701172
1761315214441157400,0.777157470703125,0.5142545104026794,0.7826734781265259,-0.3029731810092926
1761315214451204400,0.787204345703125,0.5467280745506287,0.7144531607627869,-0.385845422744751
1761315214461252000,0.797252197265625,0.562839925289154,0.6171109080314636,-0.39149028062820435
1761315214471299000,0.807299072265625,0.5454859733581543,0.5745381116867065,-0.31229931116104126
1761315214481346300,0.81734619140625,0.5015856027603149,0.5746206641197205,-0.17236271500587463
1761315214491393300,0.827393310546875,0.4464496672153473,0.6362342238426208,-0.0014322480419650674
1761315214501441300,0.837441162109375,0.36835139989852905,0.590867280960083,0.16084347665309906
1761315214511488300,0.84748828125,0.2868914306163788,0.17317071557044983,0.202743262052536
1761315214521535500,0.857535400390625,0.18885967135429382,-0.177694633603096,0.18522311747074127
1761315214531582500,0.86758251953125,0.08087167888879776,-0.39925286173820496,0.17133499681949615
1761315214541630200,0.877630126953125,-0.024627048522233963,-0.447035551071167,0.17734496295452118
1761315214551677200,0.88767724609375,-0.13988333940505981,-0.37895292043685913,0.16364511847496033
1761315214561724200,0.89772412109375,-0.28296512365341187,-0.2545691728591919,0.14408713579177856
1761315214571771400,0.907771484375,-0.43441349267959595,-0.08374336361885071,0.11200430244207382
1761315214581819400,0.9178193359375,-0.5839553475379944,0.050149187445640564,0.03883341699838638
1761315214591866400,0.927866455078125,-0.6805527210235596,0.01031628716737032,-0.06084950268268585
1761315214601913000,0.9379130859375,-0.6805889010429382,-0.07384919375181198,-0.16141578555107117
1761315214611960000,0.9479599609375,-0.5885964035987854,-0.13194365799427032,-0.24815255403518677
1761315214622008300,0.95800830078125,-0.4298272728919983,-0.22057205438613892,-0.30574527382850647
1761315214632055300,0.96805517578125,-0.2553952932357788,-0.3534419536590576,-0.3222433030605316
1761315214642102300,0.978102294921875,-0.10830090939998627,-0.49505048990249634,-0.26938992738723755
1761315214652149200,0.988149169921875,0.01161644235253334,-0.573083221912384,-0.13168106973171234
1761315214662197200,0.998197265625,0.09120314568281174,-0.5825052261352539,0.06695400178432465
1761315214672244200,1.008244140625,0.12576405704021454,-0.5367518663406372,0.2744651138782501
1761315214682291200,1.018291259765625,0.1182054728269577,-0.4891909956932068,0.45158928632736206
1761315214692338200,1.028338134765625,0.10588009655475616,-0.46477141976356506,0.5547518730163574
1761315214702386400,1.038386474609375,0.06973513960838318,-0.4700236916542053,0.5847095251083374
1761315214712433400,1.048433349609375,0.015549132600426674,-0.4474584758281708,0.5532746315002441
1761315214722480400,1.05848046875,-0.05651520565152168,-0.3896114230155945,0.46510031819343567
1761315214732527400,1.06852734375,-0.11891333758831024,-0.30725687742233276,0.33753329515457153
1761315214742575000,1.0785751953125,-0.16402675211429596,-0.21763911843299866,0.18532857298851013
1761315214752622300,1.088622314453125,-0.1869693547487259,-0.1407776176929474,0.02647767961025238
1761315214762669300,1.09866943359375,-0.1899441033601761,-0.07510380446910858,-0.10474079102277756
1761315214772716300,1.10871630859375,-0.18201906979084015,0.0065409899689257145,-0.2043885588645935
1761315214782764300,1.118764404296875,-0.1670084297657013,0.06511694937944412,-0.2525331974029541
1761315214792811500,1.1288115234375,-0.16375111043453217,0.08920551091432571,-0.24662069976329803
1761315214802858200,1.138858154296875,-0.159502312541008,0.12519173324108124,-0.19759243726730347
1761315214812905200,1.1489052734375,-0.14812129735946655,0.14491458237171173,-0.12787140905857086
1761315214822953200,1.158953125,-0.13367363810539246,0.11486826092004776,-0.0632636547088623
1761315214833000200,1.169000244140625,-0.10762153565883636,0.06721258908510208,0.0056983656249940395
1761315214843047400,1.17904736328125,-0.08550771325826645,0.035471443086862564,0.06822565943002701
1761315214853094400,1.189094482421875,-0.048292696475982666,0.004245611373335123,0.10892008990049362
1761315214863142100,1.19914208984375,-0.01672704890370369,-0.0683835819363594,0.11851999163627625
1761315214873189000,1.209189208984375,0.0006687197601422668,-0.1277768760919571,0.11619318276643753
1761315214883236000,1.219236083984375,-0.000687361869495362,-0.14477023482322693,0.10414531081914902
1761315214893283300,1.229283447265625,-0.011027351021766663,-0.14871624112129211,0.07270269840955734
1761315214903331300,1.239331298828125,-0.013687316328287125,-0.15902453660964966,0.022001706063747406
1761315214913378300,1.24937841796875,-0.025316542014479637,-0.17197735607624054,-0.02959704026579857
1761315214923425300,1.25942529296875,-0.044145092368125916,-0.16814745962619781,-0.05871817469596863
1761315214933472500,1.269472412109375,-0.0699537843465805,-0.15829110145568848,-0.06369801610708237
1761315214943520300,1.279520263671875,-0.08898632973432541,-0.14105752110481262,-0.05186639353632927
1761315214953567200,1.289567138671875,-0.09369373321533203,-0.10806388407945633,-0.03281440585851669
1761315214963614200,1.2996142578125,-0.08593381941318512,-0.07532618194818497,-0.011575429700314999
1761315214973661200,1.3096611328125,-0.06791646778583527,-0.04460635036230087,0.007565774489194155
1761315214983709400,1.31970947265625,-0.04553525894880295,-0.017006946727633476,0.017857560887932777
1761315214993756400,1.32975634765625,-0.01985386572778225,-0.009281649254262447,0.0052323127165436745
1761315215003803100,1.33980322265625,-0.006658701691776514,-0.035886626690626144,-0.01883813552558422
1761315215013850000,1.34985009765625,-0.004162786994129419,-0.06743124127388,-0.03478141501545906
1761315215023898400,1.3598984375,-0.016716130077838898,-0.0811459869146347,-0.02468297630548477
1761315215033945300,1.3699453125,-0.03990959748625755,-0.07964582741260529,0.004429635591804981
1761315215043992300,1.379992431640625,-0.06277656555175781,-0.09945148974657059,0.04703595116734505
1761315215054039300,1.390039306640625,-0.07645296305418015,-0.1195591539144516,0.07858934998512268
1761315215064087300,1.40008740234375,-0.07385478168725967,-0.11676815897226334,0.10679621994495392
1761315215074134300,1.41013427734375,-0.06006360426545143,-0.09498057514429092,0.12221592664718628
1761315215084181200,1.42018115234375,-0.04646496847271919,-0.0775456577539444,0.1226193904876709
1761315215094228200,1.430228271484375,-0.036695696413517,-0.0657486543059349,0.10628888756036758
1761315215104276200,1.440276123046875,-0.03176698461174965,-0.06418856978416443,0.07193437963724136
1761315215114323500,1.450323486328125,-0.03188522905111313,-0.040582314133644104,0.04614752158522606
1761315215124370400,1.460370361328125,-0.03660088777542114,-0.017601629719138145,0.021587584167718887
1761315215134417400,1.47041748046875,-0.04525855928659439,-0.012850550934672356,0.0049223206005990505
1761315215144465200,1.480465087890625,-0.057138651609420776,-0.0000756337758502923,-0.00398595305159688
1761315215154512100,1.49051220703125,-0.06578966230154037,0.021199561655521393,-0.004108192399144173
1761315215164559400,1.500559326171875,-0.06825654953718185,0.03191665560007095,0.00017470336752012372
1761315215174606300,1.5106064453125,-0.0663934051990509,0.023515978828072548,-0.0037180392537266016
1761315215184654300,1.520654296875,-0.06338030099868774,0.011870508082211018,-0.005149221979081631
1761315215194701300,1.530701416015625,-0.058997806161642075,-0.012557070702314377,-0.005997971165925264
1761315215204748300,1.540748291015625,-0.04132373631000519,-0.0395846925675869,-0.0028807413764297962
1761315215214795300,1.550795166015625,-0.027791151776909828,-0.04884184151887894,0.0055004931055009365
1761315215224843300,1.56084326171875,-0.015669241547584534,-0.04675045982003212,0.01889965496957302
1761315215234890200,1.57089013671875,-0.004581436049193144,-0.04688867926597595,0.025744246318936348
1761315215244937200,1.580937255859375,0.010626545175909996,-0.04000121355056763,0.023629961535334587
1761315215254984400,1.590984375,0.02748968079686165,-0.03664855659008026,0.014171745628118515
1761315215265032200,1.6010322265625,0.04147979989647865,-0.0272502638399601,0.0012833772925660014
1761315215275079200,1.6110791015625,0.05450665205717087,-0.016871390864253044,-0.009845972992479801
1761315215285126100,1.621126220703125,0.055747952312231064,-0.012056129984557629,-0.015341139398515224
1761315215295173000,1.631173095703125,0.043778374791145325,-0.02081899531185627,-0.014373878948390484
1761315215305221000,1.64122119140625,0.0173861812800169,-0.06022312492132187,-0.008788165636360645
1761315215315268000,1.65126806640625,-0.005590774118900299,-0.10925725102424622,-0.0054517569951713085
1761315215325315000,1.661315185546875,-0.03422002121806145,-0.1456107348203659,-0.009517339058220387
1761315215335362000,1.671362060546875,-0.06795082241296768,-0.1627814620733261,-0.024142354726791382
1761315215345410000,1.68141015625,-0.0870925560593605,-0.15642155706882477,-0.0481499508023262
1761315215355457000,1.69145703125,-0.10425902903079987,-0.14424452185630798,-0.07190161943435669
1761315215365504000,1.70150390625,-0.11704566329717636,-0.11798389256000519,-0.08290207386016846
1761315215375551000,1.711551025390625,-0.1146717220544815,-0.08378810435533524,-0.08058672398328781
1761315215385599000,1.721598876953125,-0.10391707718372345,-0.04595870152115822,-0.0700983926653862
1761315215395646200,1.731646240234375,-0.07628198713064194,-0.011286742985248566,-0.061900120228528976
1761315215405693000,1.74169287109375,-0.05332474038004875,0.019349196925759315,-0.05325976014137268
1761315215415740000,1.751739990234375,-0.031807199120521545,0.028564799576997757,-0.0469302237033844
1761315215425788000,1.761787841796875,-0.01817287877202034,0.019160911440849304,-0.030235134065151215
1761315215435835000,1.7718349609375,-0.0029981867410242558,0.010189520195126534,0.0043534692376852036
1761315215445882000,1.781882080078125,0.007023022044450045,0.006938599981367588,0.046607982367277145
1761315215455929000,1.79192919921875,0.014940866269171238,-0.0019126823171973228,0.07700290530920029
1761315215465976800,1.801976806640625,0.015308648347854614,-0.0049561429768800735,0.09142978489398956
1761315215476023800,1.81202392578125,0.018252773210406303,-0.0014881744282320142,0.08438066393136978
1761315215486070800,1.82207080078125,0.02557913027703762,-0.002654372714459896,0.06664613634347916
1761315215496118000,1.832117919921875,0.021281320601701736,-0.0140156839042902,0.036502085626125336
1761315215506166000,1.842166015625,0.007508516311645508,-0.01841762289404869,0.008972189389169216
1761315215516213000,1.852212890625,-0.016473248600959778,-0.005437375977635384,-0.01931644044816494
1761315215526260000,1.862260009765625,-0.04168752580881119,0.011661715805530548,-0.046789076179265976
1761315215536307200,1.87230712890625,-0.06829490512609482,0.02985217049717903,-0.06892526894807816
1761315215546355000,1.88235498046875,-0.07873502373695374,0.05997705087065697,-0.07918589562177658
1761315215556402000,1.89240185546875,-0.08252150565385818,0.09073390066623688,-0.07601141184568405
1761315215566449000,1.902448974609375,-0.07932677865028381,0.13000167906284332,-0.07164063304662704
1761315215576495900,1.912495849609375,-0.06217096373438835,0.15739308297634125,-0.06321518868207932
1761315215586544000,1.922544189453125,-0.05067063495516777,0.16150712966918945,-0.059293683618307114
1761315215596591000,1.932591064453125,-0.04259512946009636,0.14386209845542908,-0.05910752713680267
1761315215606638000,1.94263818359375,-0.04688148945569992,0.11697988212108612,-0.05138888955116272
1761315215616684800,1.952684814453125,-0.0537942573428154,0.09109422564506531,-0.04092372953891754
1761315215626733000,1.962733154296875,-0.05699937045574188,0.07457703351974487,-0.023848608136177063
1761315215636780000,1.972780029296875,-0.06175843998789787,0.06687117367982864,-0.006428338121622801
1761315215646827000,1.982826904296875,-0.05041284114122391,0.06945177912712097,0.0031316110398620367
1761315215656874000,1.9928740234375,-0.04398370161652565,0.06957162171602249,-0.00105354655534029
1761315215666922000,2.002921875,-0.030466828495264053,0.06272809952497482,-0.027303259819746017
1761315215676969000,2.012968994140625,-0.019356386736035347,0.05979888513684273,-0.054423294961452484
1761315215687016000,2.023015869140625,-0.009199890308082104,0.07010718435049057,-0.06400934606790543
1761315215697063000,2.03306298828125,-0.011441472917795181,0.08561450242996216,-0.06114165112376213
1761315215707111000,2.04311083984375,-0.016649549826979637,0.09004280716180801,-0.04836487025022507
1761315215717158100,2.053158203125,-0.025907497853040695,0.08914798498153687,-0.01768765039741993
1761315215727205000,2.063205078125,-0.030605312436819077,0.09395099431276321,0.020840300247073174
1761315215737252000,2.073252197265625,-0.032819200307130814,0.08886063098907471,0.04857206344604492
1761315215747299800,2.0832998046875,-0.029643112793564796,0.06713269650936127,0.0722062885761261
1761315215757347000,2.09334716796875,-0.018569689244031906,0.04154078662395477,0.07930387556552887
1761315215767394000,2.10339404296875,-0.011683021672070026,0.024413997307419777,0.06539631634950638
1761315215777441000,2.11344091796875,-0.005751895252615213,0.01125372014939785,0.04187900573015213
1761315215787489000,2.123489013671875,0.0028690234757959843,-0.011601261794567108,0.015632756054401398
1761315215797536000,2.133535888671875,0.00541260838508606,-0.013103817589581013,-0.0012271846644580364
1761315215807583000,2.1435830078125,0.0021792647894471884,-0.0036703685764223337,-0.01188116054981947
1761315215817630000,2.1536298828125,-0.0065226140432059765,0.009674465283751488,-0.010668889619410038
1761315215827678000,2.163677978515625,-0.0049590724520385265,0.03178376331925392,0.004491155035793781
1761315215837725000,2.173724853515625,-0.008675247430801392,0.06027878820896149,0.022664565593004227
1761315215847772000,2.18377197265625,-0.015530490316450596,0.07136020064353943,0.04164198413491249
1761315215857819100,2.193819091796875,-0.02093351073563099,0.0692208856344223,0.04465482011437416
1761315215867867000,2.203866943359375,-0.024081367999315262,0.06728476285934448,0.03695216029882431
1761315215877913900,2.213913818359375,-0.0182354636490345,0.05504514276981354,0.01703783869743347
1761315215887960800,2.2239609375,-0.003906857222318649,0.03214648365974426,-0.0008364989189431071
1761315215898008000,2.234008056640625,0.010210293345153332,0.01008033100515604,-0.020553212612867355
1761315215908056000,2.24405615234375,0.019832294434309006,-0.01685088500380516,-0.03582111373543739
1761315215918103000,2.25410302734375,0.019454924389719963,-0.034995000809431076,-0.03717240318655968
1761315215928150000,2.26414990234375,0.014958975836634636,-0.03142556548118591,-0.017416806891560555
1761315215938197000,2.274197021484375,0.008135423995554447,-0.02906227856874466,0.0016921724891290069
1761315215948245000,2.284244873046875,0.009394566528499126,-0.03472202643752098,0.01558455266058445
1761315215958292000,2.2942919921875,0.01672518439590931,-0.026503778994083405,0.020231235772371292
1761315215968339000,2.3043388671875,0.025482989847660065,-0.017946243286132812,0.023012375459074974
1761315215978386000,2.314385986328125,0.043531499803066254,-0.018250908702611923,0.01595473103225231
1761315215988434200,2.32443408203125,0.05372101813554764,-0.027426831424236298,0.008072040975093842
1761315215998481200,2.334481201171875,0.05331328883767128,-0.03785363957285881,-0.0009723200928419828
1761315216008528000,2.34452783203125,0.055444881319999695,-0.049182992428541183,-0.010302971117198467
1761315216018576000,2.354575927734375,0.05525420233607292,-0.05889953672885895,-0.017893513664603233
1761315216028623000,2.364623046875,0.06296831369400024,-0.06450922042131424,-0.03144687041640282
1761315216038670000,2.374670166015625,0.06870156526565552,-0.06908346712589264,-0.04150483384728432
1761315216048717000,2.384717041015625,0.07193384319543839,-0.06837400048971176,-0.047447942197322845
1761315216058765000,2.39476513671875,0.06992555409669876,-0.06320533156394958,-0.038554318249225616
1761315216068811800,2.404811767578125,0.07120627164840698,-0.047457531094551086,-0.03194434940814972
1761315216078859000,2.41485888671875,0.06875988841056824,-0.047681234776973724,-0.027698205783963203
1761315216088906000,2.424906005859375,0.06919372081756592,-0.061960041522979736,-0.022596655413508415
1761315216098954000,2.4349541015625,0.06665413081645966,-0.07271255552768707,-0.02274179831147194
1761315216109001000,2.4450009765625,0.06758996099233627,-0.08445682376623154,-0.034992869943380356
1761315216119048000,2.4550478515625,0.07287340611219406,-0.09594224393367767,-0.05154974386096001
1761315216129095200,2.46509521484375,0.08117421716451645,-0.0907466784119606,-0.05215374752879143
1761315216139143000,2.475142822265625,0.08154492825269699,-0.07684657722711563,-0.0473073273897171
1761315216149190000,2.48518994140625,0.07004779577255249,-0.06953087449073792,-0.03430098295211792
1761315216159236900,2.49523681640625,0.060448430478572845,-0.05950993299484253,-0.008549013175070286
1761315216169284000,2.5052841796875,0.05493888258934021,-0.05007701367139816,0.008372978307306767
1761315216179332000,2.51533203125,0.05444539710879326,-0.04952787235379219,0.016096411272883415
1761315216189379000,2.525379150390625,0.06482666730880737,-0.05434233322739601,0.012153335846960545
1761315216199426000,2.535426025390625,0.07345078140497208,-0.05421636626124382,0.00902918167412281
1761315216209472800,2.54547265625,0.08392952382564545,-0.0517532080411911,0.002977414056658745
1761315216219521000,2.55552099609375,0.08413431793451309,-0.06422878801822662,-0.005182777531445026
1761315216229568000,2.565568115234375,0.08479371666908264,-0.07400764524936676,-0.008405735716223717
1761315216239615000,2.575614990234375,0.0854797437787056,-0.08054836839437485,-0.0068243504501879215
1761315216249662000,2.585661865234375,0.0889706164598465,-0.09068116545677185,0.005033640656620264
1761315216259710000,2.5957099609375,0.08029830455780029,-0.09830393642187119,0.021983062848448753
1761315216269757000,2.6057568359375,0.07139934599399567,-0.09738460928201675,0.03460032120347023
1761315216279804000,2.615803955078125,0.06501282006502151,-0.0942082554101944,0.03939560800790787
1761315216289851000,2.625850830078125,0.06776626408100128,-0.07720610499382019,0.033358488231897354
1761315216299898400,2.6358984375,0.06828557699918747,-0.04675951600074768,0.0269466619938612
1761315216309945300,2.6459453125,0.07300417125225067,-0.024762870743870735,0.011171693913638592
1761315216319992300,2.655992431640625,0.07449926435947418,-0.024816665798425674,-0.0031515848822891712
1761315216330039300,2.666039306640625,0.07820771634578705,-0.03844432905316353,-0.009983924217522144
1761315216340087300,2.67608740234375,0.07424120604991913,-0.06582029163837433,-0.014653511345386505
1761315216350134300,2.68613427734375,0.06073099002242088,-0.09864748269319534,-0.018635204061865807
1761315216360181200,2.69618115234375,0.046778157353401184,-0.10835816711187363,-0.022787338122725487
1761315216370228200,2.706228271484375,0.03657186031341553,-0.09760511666536331,-0.030471889302134514
1761315216380276200,2.716276123046875,0.024153007194399834,-0.08248449116945267,-0.03821662813425064
1761315216390323500,2.726323486328125,0.019830429926514626,-0.0736614391207695,-0.04490702226758003
1761315216400370400,2.736370361328125,0.007982292212545872,-0.059730708599090576,-0.041012946516275406
1761315216410417400,2.74641748046875,-0.004419249482452869,-0.048159804195165634,-0.03591512516140938
1761315216420465200,2.756465087890625,-0.009573264978826046,-0.04315146431326866,-0.03117576241493225
1761315216430512000,2.76651220703125,-0.006529538426548243,-0.02586275525391102,-0.012704077176749706
1761315216440559400,2.776559326171875,0.00031664984999224544,-0.007012635935097933,-0.00028096348978579044
1761315216450606300,2.7866064453125,0.011182347312569618,0.005092496518045664,0.005277852527797222
1761315216460654300,2.796654296875,0.019334815442562103,-0.005764145869761705,0.0005858954391442239
1761315216470701300,2.806701416015625,0.026501381769776344,-0.0357460118830204,-0.014986672438681126
1761315216480748300,2.816748291015625,0.03549940511584282,-0.07432696223258972,-0.025047829374670982
1761315216490796300,2.82679638671875,0.04296983778476715,-0.0850355327129364,-0.035594478249549866
1761315216500843300,2.83684326171875,0.050022419542074203,-0.09841285645961761,-0.05083148926496506
1761315216510890200,2.84689013671875,0.058094460517168045,-0.10573415458202362,-0.07450752705335617
1761315216520937200,2.856937255859375,0.056720804423093796,-0.11907871812582016,-0.1071738600730896
1761315216530985500,2.8669853515625,0.038658712059259415,-0.12948103249073029,-0.13095428049564362
1761315216541032200,2.8770322265625,0.018157698214054108,-0.14302825927734375,-0.13583239912986755
1761315216551079200,2.8870791015625,-0.0038839541375637054,-0.13402517139911652,-0.1144552081823349
1761315216561126100,2.897126220703125,-0.026453977450728416,-0.10547289997339249,-0.08005914837121964
1761315216571174400,2.90717431640625,-0.029582392424345016,-0.08629840612411499,-0.04300845414400101
1761315216581221400,2.917221435546875,-0.015245531685650349,-0.07230961322784424,-0.011951201595366001
1761315216591268400,2.927268310546875,0.003960386849939823,-0.07296981662511826,0.0101389205083251
1761315216601315300,2.9373154296875,0.01817101426422596,-0.06950876861810684,0.026385800912976265
1761315216611363000,2.947363037109375,0.025068335235118866,-0.05444619804620743,0.036379579454660416
1761315216621410300,2.957410400390625,0.02570403181016445,-0.0500117689371109,0.036639504134655
1761315216631457300,2.967457275390625,0.014026869088411331,-0.051477838307619095,0.03080771304666996
1761315216641504300,2.977504150390625,-0.0004846953088417649,-0.0527937076985836,0.016225840896368027
1761315216651552300,2.98755224609375,-0.01287798210978508,-0.04427319020032883,0.00019334549142513424
1761315216661599500,2.997599609375,-0.018089788034558296,-0.03719530627131462,-0.018274078145623207
1761315216671646500,3.007646484375,-0.020186495035886765,-0.023929834365844727,-0.03575479984283447
1761315216681693400,3.017693359375,-0.02070288173854351,-0.010801780968904495,-0.0495409220457077
1761315216691741200,3.0277412109375,-0.021507687866687775,-0.013568006455898285,-0.057866763323545456
1761315216701788200,3.0377880859375,-0.024779383093118668,-0.02123338356614113,-0.05500093474984169
1761315216711835400,3.04783544921875,-0.02093617431819439,-0.008764729835093021,-0.03777161240577698
1761315216721882400,3.05788232421875,-0.015277490019798279,0.010934406891465187,-0.010222810320556164
1761315216731930400,3.067930419921875,-0.0007025419035926461,0.01751640997827053,0.009425193071365356
1761315216741977000,3.07797705078125,0.015448997728526592,0.002344646956771612,0.027406323701143265
1761315216752024000,3.088024169921875,0.02947533316910267,-0.005077050067484379,0.045512888580560684
1761315216762071300,3.0980712890625,0.047377102077007294,0.0001536643976578489,0.0629962757229805
1761315216772119300,3.108119384765625,0.06681311875581741,-0.003914314322173595,0.07591313868761063
1761315216782166300,3.118166259765625,0.0793270468711853,-0.02333701401948929,0.06880410015583038
1761315216792213200,3.128213134765625,0.08820469677448273,-0.05112603306770325,0.055995624512434006
1761315216802260500,3.138260498046875,0.0888904556632042,-0.0672014057636261,0.046913180500268936
1761315216812308200,3.14830810546875,0.08845449984073639,-0.07446571439504623,0.037515416741371155
1761315216822355200,3.158355224609375,0.09030938893556595,-0.08261285722255707,0.0398976132273674
1761315216832402200,3.168402099609375,0.08755435049533844,-0.08184187114238739,0.04445748031139374
1761315216842449200,3.17844921875,0.07635708898305893,-0.07679864019155502,0.052015263587236404
1761315216852497400,3.188497314453125,0.06061248108744621,-0.08180990815162659,0.05540919676423073
1761315216862544400,3.19854443359375,0.03285887837409973,-0.08298276364803314,0.06319627910852432
1761315216872591400,3.20859130859375,0.01540292426943779,-0.07809000462293625,0.06018797308206558
1761315216882639000,3.21863916015625,0.0036583843175321817,-0.07563510537147522,0.05324457958340645
1761315216892686300,3.228686279296875,-0.0018807243322953582,-0.08219047635793686,0.03515452519059181
1761315216902733300,3.2387333984375,-0.0032381375785917044,-0.07447849214076996,0.016755543649196625
1761315216912780300,3.2487802734375,-0.004728442523628473,-0.07133836299180984,-0.0068094367161393166
1761315216922828300,3.258828369140625,-0.0062096924521028996,-0.07556559890508652,-0.03558382764458656
1761315216932875500,3.26887548828125,-0.008896555751562119,-0.08101256191730499,-0.05892376974225044
1761315216942922200,3.278922119140625,-0.01363405305892229,-0.07258711755275726,-0.06850768625736237
1761315216952969200,3.28896923828125,-0.01462634652853012,-0.05210687592625618,-0.06988001614809036
1761315216963017200,3.299017333984375,-0.017009610310196877,-0.032698556780815125,-0.06211370602250099
1761315216973064200,3.309064208984375,-0.012603942304849625,-0.012826049700379372,-0.04813370853662491
1761315216983111400,3.319111328125,-0.006306897848844528,-0.009016664698719978,-0.029386118054389954
1761315216993158400,3.329158447265625,-0.0024852619972079992,-0.004091946873813868,-0.013790114782750607
1761315217003206100,3.3392060546875,0.010500311851501465,0.003067695302888751,-0.007348194252699614
1761315217013253000,3.349253173828125,0.02221342734992504,0.007363373879343271,-0.011117366142570972
1761315217023300000,3.359300048828125,0.038130342960357666,0.006016879808157682,-0.0206924956291914
1761315217033347300,3.369347412109375,0.04859789460897446,-0.008329036645591259,-0.041797515004873276
1761315217043395300,3.379395263671875,0.05570667237043381,-0.019048791378736496,-0.05910326912999153
1761315217053442300,3.3894423828125,0.05475512519478798,-0.03893861174583435,-0.06526848673820496
1761315217063489300,3.3994892578125,0.05411596596240997,-0.04977421462535858,-0.05664410442113876
1761315217073536500,3.40953662109375,0.04902320355176926,-0.04206462949514389,-0.04308435320854187
1761315217083584300,3.419584228515625,0.04617628455162048,-0.028612736612558365,-0.03153742104768753
1761315217093631200,3.42963134765625,0.044145889580249786,-0.017969945445656776,-0.020115388557314873
1761315217103678200,3.43967822265625,0.04090109467506409,-0.010507235303521156,0.0022362563759088516
1761315217113725200,3.44972509765625,0.03466157242655754,0.008929844945669174,0.028720328584313393
1761315217123773400,3.4597734375,0.03536837548017502,0.018751051276922226,0.05627898499369621
1761315217133820400,3.4698203125,0.03777054697275162,0.027056118473410606,0.07040945440530777
1761315217143867100,3.4798671875,0.04193653166294098,0.02431759051978588,0.07382015883922577
1761315217153914000,3.4899140625,0.04044116660952568,0.00869175884872675,0.07194849103689194
1761315217163962400,3.49996240234375,0.03694603219628334,-0.0234637800604105,0.059898752719163895
1761315217174009300,3.51000927734375,0.025616146624088287,-0.05685742199420929,0.06484584510326385
1761315217184056300,3.520056396484375,0.006700513418763876,-0.06405248492956161,0.07916326075792313
1761315217194103300,3.530103271484375,-0.013943511992692947,-0.05318492278456688,0.09316376596689224
1761315217204151300,3.5401513671875,-0.03809971362352371,-0.0412190742790699,0.10234101861715317
1761315217214198300,3.5501982421875,-0.056707486510276794,-0.021469872444868088,0.1069597378373146
1761315217224245200,3.560245361328125,-0.07446490973234177,-0.0005459480453282595,0.10179241001605988
1761315217234292200,3.570292236328125,-0.08446508646011353,0.01697525568306446,0.08415056020021439
1761315217244340200,3.58034033203125,-0.08811254799365997,0.029863091185688972,0.05831710249185562
1761315217254387500,3.590387451171875,-0.08490823209285736,0.0363425612449646,0.03588290140032768
1761315217264434400,3.600434326171875,-0.0849258080124855,0.04959578067064285,0.017060209065675735
1761315217274482200,3.610482177734375,-0.08441341668367386,0.051359858363866806,0.006193980108946562
1761315217284529200,3.620529052734375,-0.08166103810071945,0.03158988431096077,0.0012319782981649041
1761315217294576000,3.630576171875,-0.07145766913890839,0.010928547941148281,0.01065264455974102
1761315217304619300,3.640619384765625,-0.0588982030749321,-0.005626993253827095,0.017233848571777344
1761315217314667500,3.65066748046875,-0.03271959722042084,-0.035828571766614914,0.02737037092447281
1761315217324714500,3.660714599609375,-0.012054000049829483,-0.08137528598308563,0.03315289318561554
1761315217334761500,3.670761474609375,-0.0010788465151563287,-0.12224734574556351,0.034384604543447495
1761315217344808400,3.680808349609375,0.007297061383724213,-0.1438535749912262,0.030116356909275055
1761315217354856200,3.690856201171875,0.013776798732578754,-0.13602015376091003,0.030711572617292404
1761315217364903400,3.7009033203125,0.012089153751730919,-0.1034073457121849,0.024340759962797165
1761315217374950400,3.710950439453125,0.011598599143326283,-0.06512227654457092,0.01495151873677969
1761315217384997400,3.720997314453125,0.013395700603723526,-0.034511905163526535,-0.002987001556903124
1761315217395045400,3.73104541015625,0.014646853320300579,-0.027176227420568466,-0.010911770164966583
1761315217405092400,3.74109228515625,0.017465276643633842,-0.012419651262462139,-0.012133894488215446
1761315217415139300,3.751139404296875,0.013592241331934929,-0.01661253161728382,-0.002130262553691864
1761315217425186300,3.761186279296875,0.007348460145294666,-0.023001722991466522,0.017236776649951935
1761315217435234300,3.771234375,0.0028703550342470407,-0.02118091844022274,0.03856230527162552
1761315217445281300,3.78128125,0.0052142031490802765,-0.02045467495918274,0.05528402701020241
1761315217455328500,3.79132861328125,0.011811119504272938,-0.030555246397852898,0.05685928836464882
1761315217465375500,3.80137548828125,0.015935823321342468,-0.026795661076903343,0.06244500353932381
1761315217475423200,3.81142333984375,0.01894386298954487,-0.018795259296894073,0.06205325201153755
1761315217485470200,3.82147021484375,0.018871957436203957,-0.007098389323800802,0.06272543221712112
1761315217495517200,3.83151708984375,0.019270900636911392,0.004019775427877903,0.06335633248090744
1761315217505564400,3.841564453125,0.01732839085161686,0.00932239554822445,0.06326312571763992
1761315217515612400,3.8516123046875,0.014164022170007229,0.0035715652629733086,0.07010185718536377
1761315217525659400,3.861659423828125,0.011216701939702034,-0.0013520868960767984,0.07940401136875153
1761315217535706400,3.871706298828125,0.008672317489981651,-0.007707454264163971,0.08999620378017426
1761315217545753600,3.881753662109375,0.009609484113752842,-0.017967281863093376,0.10061422735452652
1761315217555801300,3.89180126953125,0.0073479278944432735,-0.02118944190442562,0.10568302124738693
1761315217565848300,3.901848388671875,-0.0038165762089192867,-0.014935806393623352,0.11316783726215363
1761315217575895300,3.911895263671875,-0.013864682987332344,-0.0025920546613633633,0.11615270376205444
1761315217585942300,3.9219423828125,-0.01967436820268631,-0.019637882709503174,0.10379457473754883
1761315217595990500,3.931990478515625,-0.01540345698595047,-0.03688398003578186,0.08848432451486588
1761315217606037500,3.94203759765625,0.0011984225129708648,-0.04607747867703438,0.07023022323846817
1761315217616084200,3.952084228515625,0.010777812451124191,-0.06495822966098785,0.05934375151991844
1761315217626132200,3.96213232421875,0.020505009219050407,-0.0863037258386612,0.047142211347818375
1761315217636179500,3.972179443359375,0.027527498081326485,-0.11310844868421555,0.041194573044776917
1761315217646226400,3.982226318359375,0.03242851421236992,-0.14946246147155762,0.02907026745378971
1761315217656273400,3.9922734375,0.03247618302702904,-0.18092824518680573,0.009820406325161457
1761315217666321200,4.002321044921875,0.0282132625579834,-0.2138931155204773,-0.00572979124262929
1761315217676368400,4.012368408203125,-0.004649879410862923,-0.22649545967578888,-0.01684316247701645
1761315217686415400,4.022415283203125,-0.0435783714056015,-0.2020665407180786,-0.02141421101987362
1761315217696462300,4.03246240234375,-0.08173613995313644,-0.14380456507205963,-0.03032727912068367
1761315217706510300,4.04251025390625,-0.09770286083221436,-0.0764247328042984,-0.042036399245262146
1761315217716557300,4.052557373046875,-0.08931043744087219,-0.02774161659181118,-0.0559154637157917
1761315217726604500,4.0626044921875,-0.07504601776599884,-0.001621066126972437,-0.07759758830070496
1761315217736651500,4.072651611328125,-0.05541638657450676,0.004704207647591829,-0.08504778146743774
1761315217746699300,4.08269921875,-0.03822275251150131,-0.011363974772393703,-0.08456441760063171
1761315217756746200,4.092746337890625,-0.027290742844343185,-0.03442109003663063,-0.07572725415229797
1761315217766793200,4.102793212890625,-0.027287013828754425,-0.05844946205615997,-0.06270599365234375
1761315217776840400,4.11284033203125,-0.034684211015701294,-0.06393104791641235,-0.042275551706552505
1761315217786888400,4.122888427734375,-0.05002748221158981,-0.04614672064781189,-0.029354693368077278
1761315217796935400,4.132935302734375,-0.05794745683670044,-0.030434604734182358,-0.024892833083868027
1761315217806982400,4.142982421875,-0.06118665635585785,0.0020695424173027277,-0.023068035021424294
1761315217817029400,4.153029296875,-0.06690926104784012,0.03753912076354027,-0.0332074873149395
1761315217827077400,4.163077392578125,-0.0656551793217659,0.07056844234466553,-0.056045424193143845
1761315217837124400,4.173124267578125,-0.0651228129863739,0.09976467490196228,-0.08145517855882645
1761315217847171300,4.18317138671875,-0.06046440824866295,0.1116413101553917,-0.11241522431373596
1761315217857218300,4.19321826171875,-0.06404982507228851,0.10848865658044815,-0.13206429779529572
1761315217867266300,4.203266357421875,-0.06339362263679504,0.10634534806013107,-0.13720819354057312
1761315217877313300,4.213313232421875,-0.07264251261949539,0.09734785556793213,-0.12351128458976746
1761315217887360300,4.2233603515625,-0.07280895859003067,0.09461572021245956,-0.1023881584405899
1761315217897407200,4.2334072265625,-0.07400498539209366,0.08796580880880356,-0.07049760222434998
1761315217907455500,4.24345556640625,-0.06526848673820496,0.09506366401910782,-0.04826846346259117
1761315217917502500,4.25350244140625,-0.05866118147969246,0.10073380172252655,-0.0294329896569252
1761315217927549400,4.263549560546875,-0.052196625620126724,0.08785369247198105,-0.01943601667881012
1761315217937597200,4.27359716796875,-0.048053011298179626,0.07328460365533829,-0.02081180550158024
1761315217947644400,4.28364453125,-0.051905009895563126,0.055391352623701096,-0.015104384161531925
1761315217957691400,4.29369140625,-0.05506085604429245,0.039015576243400574,-0.013568006455898285
1761315217967738400,4.30373828125,-0.061114221811294556,0.028247084468603134,-0.014423147775232792
1761315217977786400,4.313786376953125,-0.06396859884262085,0.02382597140967846,-0.023015569895505905
1761315217987833300,4.323833251953125,-0.07042116671800613,0.03225114569067955,-0.028263594955205917
1761315217997880600,4.333880615234375,-0.07304757833480835,0.04784661903977394,-0.04141401872038841
1761315218007927300,4.34392724609375,-0.06857053935527802,0.05578896403312683,-0.05625501647591591
1761315218017975300,4.353975341796875,-0.06446021795272827,0.0637504830956459,-0.06619260460138321
1761315218028022300,4.364022216796875,-0.054311975836753845,0.07502790540456772,-0.07813607901334763
1761315218038069200,4.3740693359375,-0.05212738364934921,0.07623005658388138,-0.09486206620931625
1761315218048116500,4.384116455078125,-0.04998886585235596,0.08312364667654037,-0.11317049711942673
1761315218058164500,4.39416455078125,-0.044013530015945435,0.09013495594263077,-0.12783971428871155
1761315218068211200,4.404211181640625,-0.04315998777747154,0.09536779671907425,-0.12557896971702576
1761315218078258200,4.414258056640625,-0.043663058429956436,0.0866512730717659,-0.11845260858535767
1761315218088305400,4.424305419921875,-0.03662512078881264,0.06596942991018295,-0.09742721915245056
1761315218098353400,4.434353515625,-0.020534303039312363,0.051477041095495224,-0.06746426224708557
1761315218108400400,4.444400390625,-0.0024346618447452784,0.029138443991541862,-0.041306428611278534
1761315218118447400,4.454447265625,0.014567490667104721,0.0036794233601540327,-0.015874570235610008
1761315218128494300,4.464494384765625,0.034877024590969086,-0.019240273162722588,0.010646252892911434
1761315218138542300,4.474542236328125,0.046599991619586945,-0.03633004426956177,0.027782095596194267
1761315218148589300,4.48458935546875,0.057423610240221024,-0.049788594245910645,0.03278804197907448
1761315218158636300,4.49463623046875,0.06270918995141983,-0.05873974412679672,0.03302905708551407
1761315218168683300,4.504683349609375,0.0592297688126564,-0.06059383973479271,0.03292812407016754
1761315218178731500,4.5147314453125,0.050389938056468964,-0.04675765335559845,0.02997547574341297
1761315218188778500,4.524778564453125,0.036134034395217896,-0.032813072204589844,0.017303889617323875
1761315218198825500,4.534825439453125,0.02431066520512104,-0.012386362068355083,0.0035958001390099525
1761315218208872200,4.5448720703125,0.01853213831782341,0.007196127437055111,-0.012546684592962265
1761315218218920400,4.55492041015625,0.01757340133190155,0.02786252461373806,-0.023978037759661674
1761315218228967400,4.564967529296875,0.009240902960300446,0.05986493080854416,-0.03308152034878731
1761315218239014400,4.575014404296875,-0.004292482975870371,0.10493680089712143,-0.034560639411211014
1761315218249061400,4.585061279296875,-0.01618882268667221,0.13494662940502167,-0.04084783047437668
1761315218259109400,4.595109375,-0.019275426864624023,0.15009203553199768,-0.048162203282117844
1761315218269156400,4.60515625,-0.019119365140795708,0.14314597845077515,-0.05365497246384621
1761315218279203300,4.615203369140625,-0.016702814027667046,0.11940761655569077,-0.05660974979400635
1761315218289251300,4.625251220703125,-0.01306173950433731,0.09040100127458572,-0.04633287712931633
1761315218299298300,4.63529833984375,-0.010189786553382874,0.06207908317446709,-0.030955519527196884
1761315218309345500,4.645345458984375,-0.010939733125269413,0.03784032166004181,-0.0060331248678267
1761315218319392500,4.655392578125,-0.013209811411798,0.021395569667220116,0.013874003663659096
1761315218329440300,4.665440185546875,-0.008678442798554897,-0.009021724574267864,0.02857119031250477
1761315218339487200,4.6754873046875,0.00008894957863958552,-0.04439809173345566,0.03081543743610382
1761315218349534500,4.685534423828125,0.013508085161447525,-0.07457010447978973,0.02135535515844822
1761315218359581400,4.69558154296875,0.024814801290631294,-0.10347525775432587,0.03057335503399372
1761315218369629400,4.70562939453125,0.04651716724038124,-0.15374615788459778,0.05937277898192406
1761315218379676400,4.715676513671875,0.07197912037372589,-0.21758079528808594,0.12227237969636917
1761315218389723400,4.725723388671875,0.09812922775745392,-0.2852224111557007,0.20923151075839996
1761315218399770600,4.7357705078125,0.12336214631795883,-0.328005313873291,0.2809014320373535
1761315218409818400,4.745818359375,0.14553962647914886,-0.3248518407344818,0.32734882831573486
1761315218419865300,4.755865234375,0.1640816181898117,-0.28208494186401367,0.3382355570793152
1761315218429912300,4.765912353515625,0.17797985672950745,-0.22556468844413757,0.3105573356151581
1761315218439959300,4.775959228515625,0.17489618062973022,-0.16019313037395477,0.25015977025032043
1761315218450007600,4.786007568359375,0.16176865994930267,-0.08945238590240479,0.18081159889698029
1761315218460054300,4.79605419921875,0.13094496726989746,-0.018643459305167198,0.09933990240097046
1761315218470101200,4.806101318359375,0.1032789871096611,0.06393957138061523,0.01756434701383114
1761315218480148200,4.816148193359375,0.07832755893468857,0.13704253733158112,-0.054000385105609894
1761315218490196500,4.826196533203125,0.0664575845003128,0.1771548092365265,-0.1143428236246109
1761315218500243500,4.836243408203125,0.06855136156082153,0.18721356987953186,-0.15971510112285614
1761315218510290400,4.84629052734375,0.07213704288005829,0.17941662669181824,-0.1740860491991043
1761315218520337400,4.85633740234375,0.08350927382707596,0.16069833934307098,-0.1648712456226349
1761315218530385400,4.866385498046875,0.08735860884189606,0.11620490252971649,-0.13352210819721222
1761315218540432400,4.876432373046875,0.08445176482200623,0.0617363341152668,-0.09166627377271652
1761315218550479400,4.886479248046875,0.07988524436950684,0.005681055132299662,-0.03737134113907814
1761315218560526300,4.8965263671875,0.07322201877832413,-0.04657389223575592,0.009254218079149723
1761315218570574600,4.90657470703125,0.07652992755174637,-0.08331725746393204,0.057075269520282745
1761315218580621600,4.91662158203125,0.08103200048208237,-0.09789060801267624,0.08829337358474731
1761315218590668500,4.92666845703125,0.0833127349615097,-0.11945289373397827,0.10987749695777893
1761315218600713500,4.93671337890625,0.08406907320022583,-0.1518625020980835,0.11867231875658035
1761315218610760400,4.946760498046875,0.0903453454375267,-0.17091502249240875,0.124478280544281
1761315218620807400,4.956807373046875,0.10060357302427292,-0.18109095096588135,0.13002750277519226
1761315218630855400,4.96685546875,0.11000053584575653,-0.20382502675056458,0.1299944818019867
1761315218640902400,4.97690234375,0.12209182232618332,-0.23240181803703308,0.13481374084949493
1761315218650949400,4.986949462890625,0.12501037120819092,-0.24732910096645355,0.14249029755592346
1761315218660996400,4.996996337890625,0.11344587057828903,-0.24490243196487427,0.1371418833732605
1761315218671044400,5.00704443359375,0.09609776735305786,-0.23162470757961273,0.12301487475633621
1761315218681091300,5.01709130859375,0.0900217667222023,-0.1919744908809662,0.09202553331851959
1761315218691138600,5.027138671875,0.08367172628641129,-0.14059093594551086,0.05607205629348755
1761315218701185500,5.037185546875,0.0786929503083229,-0.06940916925668716,0.0096861831843853
1761315218711233300,5.0472333984375,0.07118256390094757,0.015007179230451584,-0.037105023860931396
1761315218721280300,5.0572802734375,0.06665199995040894,0.08618921041488647,-0.08302431553602219
1761315218731327200,5.0673271484375,0.06011979654431343,0.13345472514629364,-0.11960549652576447
1761315218741374500,5.07737451171875,0.0501803457736969,0.15134264528751373,-0.14765790104866028
1761315218751422500,5.08742236328125,0.04940243810415268,0.14733804762363434,-0.15657655894756317
1761315218761469400,5.097469482421875,0.05826756730675697,0.12447721511125565,-0.15815794467926025
1761315218771516400,5.107516357421875,0.06908133625984192,0.09271129220724106,-0.14920492470264435
1761315218781563600,5.117563720703125,0.07371150702238083,0.05489653721451759,-0.1390867829322815
1761315218791611400,5.127611328125,0.07658372074365616,0.017303889617323875,-0.13172687590122223
1761315218801658400,5.137658447265625,0.0780724287033081,-0.005282380152493715,-0.11913996934890747
1761315218811705300,5.147705322265625,0.07566013932228088,-0.005044027231633663,-0.10079691559076309
1761315218821752300,5.15775244140625,0.07280123978853226,-0.000815193576272577,-0.09041032195091248
1761315218831800600,5.167800537109375,0.0644863173365593,0.0203420240432024,-0.08239181339740753
1761315218841847300,5.177847412109375,0.05639270320534706,0.043591421097517014,-0.08274175226688385
1761315218851894300,5.187894287109375,0.042997535318136215,0.055095210671424866,-0.09405192732810974
1761315218861941200,5.197941162109375,0.028145616874098778,0.07495493441820145,-0.11165116727352142
1761315218871989500,5.207989501953125,0.01788073033094406,0.10112741589546204,-0.13311198353767395
1761315218882036500,5.218036376953125,0.00621049152687192,0.13708168268203735,-0.15016765892505646
1761315218892083500,5.22808349609375,0.0011347729014232755,0.15511928498744965,-0.16556499898433685
1761315218902130400,5.23813037109375,-0.011299792677164078,0.1546953022480011,-0.1706058233976364
1761315218912178400,5.248178466796875,-0.02388589084148407,0.14410631358623505,-0.16046157479286194
1761315218922225400,5.258225341796875,-0.03044072911143303,0.11493351310491562,-0.13423636555671692
1761315218932272400,5.2682724609375,-0.03646053746342659,0.07842317223548889,-0.10283290594816208
1761315218942320400,5.2783203125,-0.03347114101052284,0.038118891417980194,-0.06960171461105347
1761315218952367400,5.288367431640625,-0.02321823686361313,0.00048363005043938756,-0.030003972351551056
1761315218962414600,5.29841455078125,-0.01552436500787735,-0.020906614139676094,0.006053365301340818
1761315218972461600,5.308461669921875,-0.01329849474132061,-0.02737303450703621,0.043525904417037964
1761315218982508500,5.318508544921875,-0.01569533906877041,-0.022853117436170578,0.06566955894231796
1761315218992556300,5.328556396484375,-0.02064402587711811,-0.013702495954930782,0.07214556634426117
1761315219002603300,5.338603271484375,-0.0299038365483284,0.005073588341474533,0.061827681958675385
1761315219012650500,5.348650390625,-0.0398307703435421,0.02286723256111145,0.03521684184670448
1761315219022698500,5.358698486328125,-0.04465162381529808,0.038710109889507294,0.0029768813401460648
1761315219032745500,5.368745361328125,-0.0420081689953804,0.0457986481487751,-0.026313362643122673
1761315219042792400,5.37879248046875,-0.034882884472608566,0.03984275460243225,-0.05260781571269035
1761315219052839400,5.38883935546875,-0.02828356996178627,0.030607176944613457,-0.06319388002157211
1761315219062887400,5.398887451171875,-0.025733059272170067,0.014424479566514492,-0.06040981411933899
1761315219072934400,5.408934326171875,-0.025082716718316078,0.008699482306838036,-0.05976799130439758
1761315219082981400,5.4189814453125,-0.03517982363700867,0.03584028780460358,-0.057318948209285736
1761315219093028400,5.4290283203125,-0.04229818657040596,0.07268698513507843,-0.06596197187900543
1761315219103076400,5.439076416015625,-0.04213094338774681,0.10639967769384384,-0.07444866746664047
1761315219113123300,5.449123291015625,-0.03530392795801163,0.13337457180023193,-0.08109778165817261
1761315219123170300,5.45917041015625,-0.032349418848752975,0.13309094309806824,-0.09176693856716156
1761315219133217300,5.46921728515625,-0.029149895533919334,0.0860600471496582,-0.09585675597190857
1761315219143265500,5.479265625,-0.019418172538280487,0.0006402239087037742,-0.09345724433660507
1761315219153312500,5.4893125,-0.003364637726917863,-0.08464591205120087,-0.07659917324781418
1761315219163359500,5.499359375,0.01774570718407631,-0.1510172188282013,-0.05655009299516678
1761315219173406500,5.509406494140625,0.035594478249549866,-0.18992440402507782,-0.02028476446866989
1761315219183454500,5.519454345703125,0.044374655932188034,-0.19276918470859528,0.027538150548934937
1761315219193501400,5.52950146484375,0.04151708260178566,-0.17138239741325378,0.06603041291236877
1761315219203549400,5.539549560546875,0.036490101367235184,-0.12134294211864471,0.08651624619960785
1761315219213596400,5.549596435546875,0.030795995146036148,-0.0490594208240509,0.0860949382185936
1761315219223644400,5.55964453125,0.03320375829935074,0.02690085582435131,0.057187389582395554
1761315219233691400,5.56969140625,0.04969192296266556,0.08923640102148056,0.02461240254342556
1761315219243738400,5.57973828125,0.06040901690721512,0.12922722101211548,-0.003876497270539403
1761315219253785300,5.589785400390625,0.06258668005466461,0.1341591328382492,-0.020870128646492958
1761315219263833600,5.59983349609375,0.06348523497581482,0.11647867411375046,-0.025533322244882584
1761315219273880600,5.609880615234375,0.06463678181171417,0.09466578811407089,-0.016039686277508736
1761315219283927600,5.619927490234375,0.07542897760868073,0.06611217558383942,0.00022903185163158923
1761315219293974300,5.629974365234375,0.08524219691753387,0.03217311576008797,0.0242502111941576
1761315219304022300,5.640022216796875,0.08758790791034698,0.0057412427850067616,0.05999356135725975
1761315219314073600,5.650073486328125,0.08495377004146576,-0.0005494101205840707,0.10005256533622742
1761315219324120600,5.66012060546875,0.08719375729560852,-0.017342770472168922,0.12236292660236359
1761315219334167600,5.67016748046875,0.09007290005683899,-0.04182441160082817,0.12320182472467422
1761315219344215300,5.68021533203125,0.10329363495111465,-0.06372225284576416,0.10753098875284195
1761315219354262500,5.690262451171875,0.10846255719661713,-0.08359210193157196,0.08118460327386856
1761315219364309500,5.7003095703125,0.10409177839756012,-0.08683796226978302,0.047205593436956406
1761315219374356500,5.7103564453125,0.09188544750213623,-0.06811753660440445,0.01877475343644619
1761315219384404500,5.720404541015625,0.07168244570493698,-0.019539613276720047,-0.004127100575715303
1761315219394451500,5.730451416015625,0.05317879840731621,0.028190093114972115,-0.026944799348711967
1761315219404498700,5.740498779296875,0.040333572775125504,0.060745373368263245,-0.04818883538246155
1761315219414545700,5.750545654296875,0.03074566274881363,0.07449501007795334,-0.06314674764871597
1761315219424593400,5.760593505859375,0.03057175688445568,0.06423677504062653,-0.07800158858299255
1761315219434640400,5.770640380859375,0.031146202236413956,0.043889693915843964,-0.0938604474067688
1761315219444687600,5.7806875,0.03425810486078262,0.011648399755358696,-0.09759259968996048
1761315219454735600,5.790735595703125,0.03342027589678764,-0.017350761219859123,-0.09861685335636139
1761315219464782600,5.800782470703125,0.03592764213681221,-0.03959960862994194,-0.090091273188591
1761315219474829300,5.810829345703125,0.038658980280160904,-0.05613650754094124,-0.07264064997434616
1761315219484876300,5.820876220703125,0.039679236710071564,-0.05620921030640602,-0.05042349174618721
1761315219494924500,5.830924560546875,0.0333947092294693,-0.03044152818620205,-0.03695429116487503
1761315219504971500,5.840971435546875,0.026803651824593544,-0.0011387676931917667,-0.0272662416100502
1761315219515018500,5.8510185546875,0.021985460072755814,0.02201928198337555,-0.029620476067066193
1761315219525065500,5.8610654296875,0.02147573046386242,0.033116407692432404,-0.029683060944080353
1761315219535113500,5.871113525390625,0.022728482261300087,0.03768053278326988,-0.03015337511897087
1761315219545160400,5.881160400390625,0.02925003133714199,0.038058970123529434,-0.024152474477887154
1761315219555207400,5.89120751953125,0.03459472954273224,0.032647423446178436,-0.014242053031921387
1761315219565254400,5.90125439453125,0.04592834413051605,0.020191820338368416,-0.0031364047899842262
1761315219575302700,5.911302734375,0.058340005576610565,0.005540440324693918,0.012929380871355534
1761315219585349600,5.921349609375,0.058818574994802475,-0.00863450113683939,0.030959779396653175
1761315219595396600,5.931396728515625,0.0578923262655735,-0.013353888876736164,0.05892962962388992
1761315219605443600,5.941443603515625,0.05281687527894974,-0.010874751955270767,0.08750774711370468
1761315219615491300,5.9514912109375,0.04628707095980644,0.00233825552277267,0.10910651087760925
1761315219625538600,5.96153857421875,0.03934288024902344,0.00436012726277113,0.1230473592877388
1761315219635585500,5.97158544921875,0.03798120468854904,0.006720220670104027,0.12107981741428375
1761315219645632500,5.981632568359375,0.037215013056993484,0.007319165393710136,0.11271589249372482
1761315219655680500,5.991680419921875,0.03827761486172676,0.00953944306820631,0.10073672980070114
1761315219665727500,6.0017275390625,0.03248656913638115,0.022800387814641,0.0800333172082901
1761315219675774500,6.0117744140625,0.014040717855095863,0.03922756388783455,0.05795011669397354
1761315219685821400,6.021821533203125,-0.0024764735717326403,0.03167111054062843,0.0265948586165905
1761315219695869400,6.031869384765625,-0.017909225076436996,0.018624549731612206,0.0005701828049495816
1761315219705916400,6.04191650390625,-0.031314246356487274,0.01278690155595541,-0.021219268441200256
1761315219715963600,6.051963623046875,-0.0362141951918602,0.006902114488184452,-0.041675541549921036
1761315219726010600,6.0620107421875,-0.033905502408742905,-0.015488145872950554,-0.055748216807842255
1761315219736058400,6.072058349609375,-0.03289536386728287,-0.03110785223543644,-0.059005264192819595
1761315219746105300,6.082105224609375,-0.028209799900650978,-0.026339462026953697,-0.05173270404338837
1761315219756152300,6.09215234375,-0.02749207802116871,-0.013821805827319622,-0.041965026408433914
1761315219766200600,6.10220068359375,-0.017474597319960594,-0.009108277037739754,-0.03045457787811756
1761315219776247600,6.11224755859375,-0.005736182443797588,-0.007336742244660854,-0.024625452235341072
1761315219786294500,6.12229443359375,0.005528988782316446,-0.013819409534335136,-0.026984212920069695
1761315219796341500,6.132341552734375,0.016931844875216484,-0.021098626777529716,-0.028053738176822662
1761315219806389500,6.142389404296875,0.02930862084031105,-0.018320417031645775,-0.020261328667402267
1761315219816436500,6.1524365234375,0.046788811683654785,-0.013432185165584087,-0.011407383717596531
1761315219826483500,6.1624833984375,0.05868914723396301,-0.020183298736810684,-0.004539624322205782
1761315219836530400,6.172530517578125,0.06560670584440231,-0.014110758900642395,0.010632936842739582
1761315219846578700,6.18257861328125,0.07138550281524658,-0.005872003734111786,0.026585804298520088
1761315219856625700,6.192625732421875,0.07106591761112213,-0.0095671396702528,0.04147021099925041
1761315219866672600,6.202672607421875,0.07375358045101166,-0.012558136135339737,0.041608694940805435
1761315219876719400,6.21271923828125,0.07850998640060425,-0.007937551476061344,0.04754887521266937
1761315219886767400,6.222767333984375,0.08113666623830795,0.007439806591719389,0.0536712184548378
1761315219896814600,6.232814697265625,0.08268529176712036,0.02515142597258091,0.05546965077519417
1761315219906861600,6.242861572265625,0.08238328993320465,0.033610425889492035,0.04767883941531181
1761315219916908500,6.252908447265625,0.08926143497228622,0.030437534675002098,0.03779930993914604
1761315219926956300,6.262956298828125,0.09452357888221741,0.01829005777835846,0.026990871876478195
1761315219937003300,6.273003173828125,0.08807633072137833,0.008071241900324821,0.008461395278573036
1761315219947050500,6.283050537109375,0.07929748296737671,0.0032538501545786858,-0.006380667444318533
1761315219957097500,6.293097412109375,0.0797523558139801,-0.003934554290026426,-0.02540069818496704
1761315219967145500,6.3031455078125,0.07512164860963821,-0.011562380008399487,-0.03434652090072632
1761315219977192400,6.3131923828125,0.06353849917650223,-0.0050701261498034,-0.0338093638420105
1761315219987239700,6.32323974609375,0.05082616209983826,0.006356166675686836,-0.021403824910521507
1761315219997286700,6.33328662109375,0.04105529189109802,0.023255521431565285,-0.006632869131863117
1761315220007334400,6.34333447265625,0.035897813737392426,0.022656843066215515,-0.005892243701964617
1761315220017381400,6.35338134765625,0.03473614156246185,0.009001750499010086,-0.018223745748400688
1761315220027428400,6.363428466796875,0.037752438336610794,-0.0036823528353124857,-0.03051343373954296
1761315220037476600,6.3734765625,0.0412004329264164,-0.014278803952038288,-0.03814418986439705
1761315220047523600,6.383523681640625,0.032936643809080124,-0.011129883117973804,-0.03461283817887306
1761315220057570600,6.393570556640625,0.021686919033527374,0.001287904684431851,-0.02257348597049713
1761315220067617500,6.403617431640625,0.007671768311411142,0.00580915343016386,-0.005044825840741396
1761315220077665500,6.41366552734375,0.0000577905957470648,0.010035590268671513,0.0106531772762537
1761315220087712500,6.42371240234375,-0.0046541402116417885,0.016152605414390564,0.02503744326531887
1761315220097759500,6.433759521484375,-0.008552475832402706,0.02521401084959507,0.02557113952934742
1761315220107806500,6.443806396484375,-0.012618590146303177,0.0289381742477417,0.02401532046496868
1761315220117854700,6.453854736328125,-0.013734454289078712,0.034092456102371216,0.01678537204861641
1761315220127901400,6.4639013671875,-0.018445320427417755,0.032694827765226364,0.011029748246073723
1761315220137948400,6.473948486328125,-0.022823823615908623,0.018857844173908234,0.002413356676697731
1761315220147995400,6.483995361328125,-0.03159760683774948,0.02009301818907261,-0.007209177128970623
1761315220158043400,6.49404345703125,-0.039801210165023804,0.022049641236662865,-0.021677331998944283
1761315220168090600,6.504090576171875,-0.03628503531217575,0.021992916241288185,-0.032346222549676895
1761315220178137600,6.5141376953125,-0.01991165615618229,0.029825540259480476,-0.030181339010596275
1761315220188184600,6.5241845703125,-0.012898221611976624,0.0483398362994194,-0.01432487741112709
1761315220198232300,6.534232421875,-0.010515225119888783,0.050573162734508514,-0.006117281038314104
1761315220208279300,6.544279296875,-0.009725064970552921,0.029255356639623642,-0.005417935084551573
1761315220218326500,6.554326416015625,-0.013197827152907848,-0.0035545211285352707,-0.01269608736038208
1761315220228373500,6.56437353515625,-0.0170905701816082,-0.028968002647161484,-0.021695708855986595
1761315220238421500,6.57442138671875,-0.015143798664212227,-0.03214621916413307,-0.02624625153839588
1761315220248468500,6.584468505859375,-0.006028597708791494,-0.029381856322288513,-0.0201066005975008
1761315220258515700,6.594515625,0.005402488633990288,-0.004192614462226629,-0.011959724128246307
1761315220268562400,6.6045625,0.01889166608452797,0.014984807930886745,-0.0005853627808392048
1761315220278610400,6.6146103515625,0.024710671976208687,0.0057135457172989845,0.003795803524553776
1761315220288657400,6.624657470703125,0.03136111795902252,-0.015401859767735004,0.002537459833547473
1761315220298704400,6.634704345703125,0.03821556270122528,-0.021317806094884872,0.004096740856766701
1761315220308748800,6.644748779296875,0.04288594797253609,-0.017540644854307175,0.004683168604969978
1761315220318795800,6.654795654296875,0.04857872053980827,-0.03364291414618492,0.008521582931280136
1761315220328842800,6.6648427734375,0.047143809497356415,-0.05038194730877876,0.00908430851995945
1761315220338889500,6.674889404296875,0.03304050862789154,-0.06642802804708481,0.01489452738314867
1761315220348937500,6.6849375,0.011948804371058941,-0.06594546139240265,0.02389121800661087
1761315220358984700,6.694984619140625,-0.00466532539576292,-0.05407628417015076,0.03748665377497673
1761315220369031700,6.70503173828125,-0.017237043008208275,-0.035362519323825836,0.036727387458086014
1761315220379078700,6.71507861328125,-0.022163625806570053,-0.011318434961140156,0.028674788773059845
1761315220389126700,6.725126708984375,-0.02353302203118801,0.0182301364839077,0.0012924320762977004
1761315220399173400,6.73517333984375,-0.02087225764989853,0.036858148872852325,-0.02877066098153591
1761315220409220600,6.745220703125,-0.020227506756782532,0.049314551055431366,-0.05324671044945717
1761315220419267600,6.755267578125,-0.019701000303030014,0.05519667640328407,-0.062247395515441895
1761315220429315600,6.765315673828125,-0.020600883290171623,0.049071937799453735,-0.055702146142721176
1761315220439362600,6.775362548828125,-0.016580041497945786,0.03766162320971489,-0.03326181694865227
1761315220449409800,6.785409912109375,-0.009503756649792194,0.02286749891936779,-0.013284912332892418
1761315220459456800,6.795456787109375,-0.002439721953123808,-0.0008719189208932221,0.010044644586741924
1761315220469504500,6.80550439453125,-0.0008719189208932221,-0.023610787466168404,0.02822577953338623
1761315220479551500,6.815551513671875,-0.0025963156949728727,-0.038831550627946854,0.04103132337331772
1761315220489598500,6.825598388671875,-0.009676329791545868,-0.043720584362745285,0.04363243281841278
1761315220499645700,6.835645751953125,-0.008648348972201347,-0.04718349128961563,0.029329393059015274
1761315220509693700,6.845693603515625,-0.0075849490240216255,-0.055395081639289856,0.01040630228817463
1761315220519740700,6.85574072265625,-0.01188062783330679,-0.04807112365961075,-0.007576959673315287
1761315220529787600,6.86578759765625,-0.01606844924390316,-0.03442535176873207,-0.02827744372189045
1761315220539834600,6.875834716796875,-0.019883427768945694,-0.026073412969708443,-0.04653368145227432
1761315220549882600,6.885882568359375,-0.025839852169156075,-0.021098626777529716,-0.05850831791758537
1761315220559929600,6.8959296875,-0.03623337298631668,-0.020133230835199356,-0.06010860949754715
1761315220569976600,6.9059765625,-0.044010333716869354,-0.022370552644133568,-0.0456140898168087
1761315220580024800,6.91602490234375,-0.049315083771944046,-0.0337505079805851,-0.03570526838302612
1761315220590071600,6.926071533203125,-0.0530051626265049,-0.05427202582359314,-0.03093660995364189
1761315220600118500,6.936118408203125,-0.059475310146808624,-0.06574945151805878,-0.021812355145812035
1761315220610165500,6.94616552734375,-0.07832623273134232,-0.04084010794758797,-0.007164702285081148
1761315220620213500,6.956213623046875,-0.08939778804779053,-0.014974421821534634,-0.009247826412320137
1761315220630260700,6.9662607421875,-0.08798285573720932,-0.004703674931079149,-0.0202725138515234
1761315220640307700,6.9763076171875,-0.0776258185505867,0.009952765889465809,-0.03367513790726662
1761315220650354700,6.986354736328125,-0.0678781196475029,0.0417059026658535,-0.04651397094130516
1761315220660402400,6.99640234375,-0.06348150223493576,0.05307520180940628,-0.06934179365634918
1761315220670449700,7.00644970703125,-0.0651736781001091,0.0630764365196228,-0.07772622257471085
1761315220680496600,7.01649658203125,-0.06425728648900986,0.06936416029930115,-0.0823310911655426
1761315220690543600,7.026543701171875,-0.06125377118587494,0.06695293635129929,-0.081758514046669
1761315220700591600,7.036591552734375,-0.06926535815000534,0.046183738857507706,-0.06734281778335571
1761315220710638600,7.046638671875,-0.06904804706573486,0.03904061019420624,-0.03669010475277901
1761315220720685800,7.056685791015625,-0.06336379051208496,0.027692347764968872,-0.009679525159299374
1761315220730732800,7.06673291015625,-0.056534916162490845,-0.0011622034944593906,0.009375392459332943
1761315220740780500,7.076780517578125,-0.05053321644663811,-0.01666899211704731,0.01612037979066372
1761315220750827500,7.08682763671875,-0.04500875249505043,-0.015016766265034676,0.01386814471334219
1761315220760874500,7.09687451171875,-0.03935699164867401,-0.011325891129672527,0.004057325888425112
1761315220770921700,7.106921630859375,-0.03367247432470322,0.0025659557431936264,-0.010754110291600227
1761315220780969700,7.1169697265625,-0.026951989158988,0.014071078039705753,-0.0247250534594059
1761315220791016700,7.1270166015625,-0.022404640913009644,0.02997547574341297,-0.03195420280098915
1761315220801063400,7.1370634765625,-0.020177440717816353,0.0349728986620903,-0.03853034973144531
1761315220811110400,7.1471103515625,-0.018910840153694153,0.03901318088173866,-0.03346741199493408
1761315220821158700,7.15715869140625,-0.022041918709874153,0.06081061810255051,-0.033963825553655624
1761315220831205600,7.16720556640625,-0.028486236929893494,0.07301988452672958,-0.03948642313480377
1761315220841252600,7.177252685546875,-0.03711860626935959,0.09029367566108704,-0.059542421251535416
1761315220851300600,7.187300537109375,-0.055755674839019775,0.11045167595148087,-0.09436272084712982
1761315220861347600,7.19734765625,-0.07612007111310959,0.14900971949100494,-0.13658234477043152
1761315220871394600,7.20739453125,-0.08576923608779907,0.1960187703371048,-0.17522640526294708
1761315220881441500,7.217441650390625,-0.08125703781843185,0.2202301025390625,-0.20088569819927216
1761315220891489500,7.227489501953125,-0.06535930186510086,0.2219608873128891,-0.20800966024398804
1761315220901536800,7.237536865234375,-0.048714276403188705,0.20902858674526215,-0.18790332973003387
1761315220911583700,7.247583740234375,-0.021684255450963974,0.18076765537261963,-0.13711391389369965
1761315220921630700,7.257630615234375,0.005791043862700462,0.1383645385503769,-0.07201320677995682
1761315220931678500,7.267678466796875,0.027152525261044502,0.0919799879193306,-0.006747118663042784
1761315220941725700,7.2777255859375,0.05173270404338837,0.035179026424884796,0.04616696387529373
1761315220951772700,7.287772705078125,0.07986234128475189,-0.026980750262737274,0.07732941210269928
1761315220961819600,7.297819580078125,0.10202863067388535,-0.0874217227101326,0.08907288312911987
1761315220971867600,7.30786767578125,0.12601971626281738,-0.11959297955036163,0.09631481766700745
1761315220981914600,7.31791455078125,0.13048849999904633,-0.12076343595981598,0.10042567551136017
1761315220991961600,7.327961669921875,0.12144094705581665,-0.09888236969709396,0.09116905927658081
1761315221002008600,7.338008544921875,0.10615679621696472,-0.051529768854379654,0.06413158029317856
1761315221012056600,7.348056640625,0.08634873479604721,0.007360977120697498,0.026133598759770393
1761315221022103600,7.358103515625,0.08115583658218384,0.06753084063529968,-0.015016233548521996
1761315221032150500,7.368150634765625,0.08149778842926025,0.11527572572231293,-0.05193723365664482
1761315221042197800,7.37819775390625,0.08621025085449219,0.14286980032920837,-0.07807110249996185
1761315221052245500,7.38824560546875,0.0939701721072197,0.15034396946430206,-0.08524538576602936
1761315221062292500,7.39829248046875,0.09723254293203354,0.13156893849372864,-0.0849204808473587
1761315221072339500,7.40833935546875,0.09165269136428833,0.08997116982936859,-0.07774379849433899
1761315221082386700,7.41838671875,0.08286718279123306,0.04655817896127701,-0.05597218871116638
1761315221092434700,7.4284345703125,0.07786364108324051,0.008560198359191418,-0.03958948701620102
1761315221102481700,7.438481689453125,0.07126645743846893,-0.04032744839787483,-0.03039199486374855
1761315221112528600,7.448528564453125,0.06457073986530304,-0.08729255944490433,-0.04002837464213371
1761315221122576600,7.45857666015625,0.06453078985214233,-0.10554293543100357,-0.05464380234479904
1761315221132623600,7.46862353515625,0.07618477940559387,-0.10563082247972488,-0.06931808590888977
1761315221142670600,7.478670654296875,0.0887218788266182,-0.09798595309257507,-0.08382192999124527
1761315221152717600,7.488717529296875,0.10156417638063431,-0.08674927800893784,-0.08624940365552902
1761315221162765600,7.498765625,0.1126280128955841,-0.05330929532647133,-0.061233263462781906
1761315221172812800,7.508812744140625,0.10945006459951401,-0.023486150428652763,-0.027423368766903877
1761315221182859800,7.51885986328125,0.10134020447731018,-0.024142088368535042,0.004266916774213314
1761315221192906500,7.528906494140625,0.09265083819627762,-0.050820570439100266,0.036669064313173294
1761315221202954500,7.53895458984375,0.08234254270792007,-0.077304907143116,0.07326755672693253
1761315221213001700,7.549001708984375,0.07668466120958328,-0.0829116627573967,0.11453989148139954
1761315221223048700,7.559048583984375,0.07495520263910294,-0.057903777807950974,0.14920546114444733
1761315221233095700,7.569095703125,0.07121772319078445,-0.021138042211532593,0.17097175121307373
1761315221243143700,7.579143798828125,0.06633907556533813,-0.00318886898458004,0.1667463779449463
1761315221253190400,7.5891904296875,0.06477100402116776,-0.02425580471754074,0.14516811072826385
1761315221263237600,7.599237548828125,0.04752570763230324,-0.05860685557126999,0.11146634072065353
1761315221273284600,7.60928466796875,0.023298131301999092,-0.09246708452701569,0.08615992218255997
1761315221283332600,7.61933251953125,-0.0015209312550723553,-0.09296056628227234,0.08711706101894379
1761315221293379600,7.629379638671875,-0.025122130289673805,-0.06646744161844254,0.09299518913030624
1761315221303426600,7.639426513671875,-0.04294773191213608,-0.03910958394408226,0.08437506854534149
1761315221313473500,7.6494736328125,-0.04932627081871033,-0.010942928493022919,0.06765653938055038
1761315221323521300,7.659521240234375,-0.04566708579659462,0.017043165862560272,0.04332536831498146
1761315221333568300,7.669568359375,-0.044380780309438705,0.049491386860609055,0.021132715046405792
1761315221343615200,7.679615234375,-0.051355067640542984,0.08487734198570251,-0.005332979839295149
1761315221353662200,7.689662109375,-0.04683275148272514,0.09275443851947784,-0.024704281240701675
1761315221363710500,7.69971044921875,-0.05439692735671997,0.08018964529037476,-0.04711824283003807
1761315221373757400,7.70975732421875,-0.05817568674683571,0.05295189842581749,-0.06735587120056152
1761315221383804400,7.719804443359375,-0.05419958755373955,0.02895282208919525,-0.08095557242631912
1761315221393852400,7.729852294921875,-0.04044010117650032,0.01782187446951866,-0.07759865373373032
1761315221403899400,7.7398994140625,-0.026440128684043884,0.014960840344429016,-0.05068475008010864
1761315221413946400,7.7499462890625,-0.01769351027905941,0.023272566497325897,-0.019107380881905556
1761315221423993300,7.759993408203125,-0.011329353787004948,0.03316381201148033,0.01992177590727806
1761315221434041300,7.770041259765625,-0.005660815164446831,0.028736839070916176,0.04998966306447983
1761315221444088600,7.780088623046875,-0.002575543010607362,0.018916700035333633,0.064480721950531
1761315221454135300,7.79013525390625,-0.00404534162953496,-0.009182047098875046,0.0670594573020935
1761315221464182300,7.800182373046875,-0.009608951397240162,-0.020544156432151794,0.06239333748817444
1761315221474230300,7.810230224609375,-0.006944725289940834,-0.04652302712202072,0.04517466947436333
1761315221484277200,7.82027734375,-0.011020426638424397,-0.05757620930671692,0.027425233274698257
1761315221494324500,7.830324462890625,-0.01701946370303631,-0.03953808918595314,0.0010575412306934595
1761315221504371500,7.840371337890625,-0.022054702043533325,-0.014740862883627415,-0.024480309337377548
1761315221514419200,7.850419189453125,-0.03560726344585419,0.008321845903992653,-0.04881467670202255
1761315221524466200,7.860466064453125,-0.04890628904104233,0.03061756305396557,-0.06660645455121994
1761315221534513400,7.870513427734375,-0.05857143551111221,0.032115060836076736,-0.08421234786510468
1761315221544560400,7.880560302734375,-0.07302147895097733,0.02852937951683998,-0.0945238396525383
1761315221554608400,7.8906083984375,-0.07838428765535355,0.012377574108541012,-0.1143105998635292
1761315221564655400,7.9006552734375,-0.0787573978304863,-0.0034969968255609274,-0.12890630960464478
1761315221574702300,7.910702392578125,-0.07062570005655289,-0.01270061545073986,-0.14516891539096832
1761315221584749600,7.92074951171875,-0.06613854318857193,-0.027604995295405388,-0.1491098552942276
1761315221594797300,7.93079736328125,-0.05597032606601715,-0.023376962170004845,-0.1379338949918747
1761315221604844300,7.94084423828125,-0.03713272139430046,0.00427277572453022,-0.1072462946176529
1761315221614891300,7.950891357421875,-0.01876889355480671,0.02701723575592041,-0.070411317050457
1761315221624938200,7.960938232421875,0.006650445982813835,0.016558470204472542,-0.03622644767165184
1761315221634986500,7.970986572265625,0.02219425141811371,-0.012770656496286392,-0.009195362217724323
1761315221645033500,7.981033447265625,0.020187027752399445,-0.03852395713329315,0.016214655712246895
1761315221655080200,7.991080078125,0.0061508365906775,-0.049436260014772415,0.04198899492621422
1761315221665128400,8.00112841796875,-0.011274492368102074,-0.027458256110548973,0.07287101447582245
1761315221675175400,8.011175537109375,-0.01967649906873703,0.020073575899004936,0.09636329114437103
1761315221685222400,8.021222412109376,-0.026691265404224396,0.07669051736593246,0.11028709262609482
1761315221695269400,8.031269287109374,-0.0324583426117897,0.10703803598880768,0.09960488975048065
1761315221705317400,8.0413173828125,-0.03604322299361229,0.11271776258945465,0.06904537975788116
1761315221715364400,8.0513642578125,-0.032827720046043396,0.10590779036283493,0.03706161305308342
1761315221725411300,8.061411376953124,-0.018028801307082176,0.08563154935836792,0.0029827402904629707
1761315221735458300,8.071458251953125,0.0025185514241456985,0.06156988814473152,-0.02117665857076645
1761315221745506300,8.08150634765625,0.018262360244989395,0.03098135255277157,-0.04008669778704643
1761315221755553500,8.091553466796874,0.020539896562695503,-0.024342358112335205,-0.04898405447602272
1761315221765600500,8.1016005859375,0.011315238662064075,-0.07826151698827744,-0.0476095974445343
1761315221775647500,8.1116474609375,-0.004593153949826956,-0.09547591954469681,-0.03987924009561539
1761315221785695200,8.1216953125,-0.012058793567121029,-0.077705979347229,-0.028069717809557915
1761315221795742200,8.1317421875,-0.015276690945029259,-0.03635534271597862,-0.013895043171942234
1761315221805789400,8.14178955078125,-0.013729660771787167,0.004637096077203751,-0.009613478556275368
1761315221815836400,8.15183642578125,-0.009490440599620342,0.012472648173570633,-0.03609941527247429
1761315221825884400,8.161884521484374,-0.0014008227735757828,-0.02449761889874935,-0.06970584392547607
1761315221835931400,8.171931396484375,0.00893943291157484,-0.09143085032701492,-0.11270178109407425
1761315221845978400,8.181978271484375,0.0075633772648870945,-0.16222140192985535,-0.13669046759605408
1761315221856025300,8.192025390625,-0.0006122607155703008,-0.19989153742790222,-0.1470554918050766
1761315221866073300,8.2020732421875,-0.009976734407246113,-0.20822004973888397,-0.15342897176742554
1761315221876120300,8.212120361328125,-0.01215946115553379,-0.20026278495788574,-0.1502922922372818
1761315221886167300,8.222167236328126,-0.010765296407043934,-0.15885622799396515,-0.1194038912653923
1761315221896214300,8.23221435546875,-0.023384151980280876,-0.08966783434152603,-0.07425238937139511
1761315221906262300,8.24226220703125,-0.041378334164619446,-0.01552170142531395,-0.019116969779133797
1761315221916309200,8.252309326171876,-0.06059916317462921,0.046051912009716034,0.03290868178009987
1761315221926356200,8.262356201171874,-0.0716419592499733,0.08733410388231277,0.07138630002737045
1761315221936404500,8.272404541015625,-0.08088260143995285,0.0935848131775856,0.08605924993753433
1761315221946451500,8.282451416015626,-0.08244001865386963,0.07503323256969452,0.07606946676969528
1761315221956498400,8.29249853515625,-0.08200965076684952,0.053037118166685104,0.05584116280078888
1761315221966545400,8.30254541015625,-0.08390635251998901,0.03650953993201256,0.025176459923386574
1761315221976593200,8.31259326171875,-0.0767270028591156,0.012432967312633991,-0.008319448679685593
1761315221986640400,8.322640380859376,-0.08148767054080963,-0.007822503335773945,-0.0486796535551548
1761315221996687400,8.332687255859375,-0.09003695100545883,-0.017282849177718163,-0.08556470274925232
1761315222006734300,8.342734375,-0.10460550338029861,0.0038722362369298935,-0.12082096189260483
1761315222016782300,8.3527822265625,-0.1168547123670578,0.054499462246894836,-0.1494520753622055
1761315222026829600,8.36282958984375,-0.11781425029039383,0.11548665165901184,-0.1795247495174408
1761315222036876500,8.37287646484375,-0.1065560057759285,0.15442605316638947,-0.19915305078029633
1761315222046923500,8.382923583984375,-0.09601041674613953,0.17809516191482544,-0.20484955608844757
1761315222056971300,8.39297119140625,-0.08758284896612167,0.17715534567832947,-0.1852729171514511
1761315222067018200,8.403018310546875,-0.08079338073730469,0.15767830610275269,-0.15366598963737488
1761315222077065500,8.4130654296875,-0.06777771562337875,0.11823476105928421,-0.11859828233718872
1761315222087112400,8.423112548828126,-0.053938064724206924,0.06374595314264297,-0.0871034786105156
1761315222097160400,8.433160400390625,-0.031980570405721664,0.004533765371888876,-0.05970647186040878
1761315222107207400,8.44320751953125,0.004022971261292696,-0.056590307503938675,-0.028929652646183968
1761315222117254100,8.453254150390626,0.032281506806612015,-0.10679036378860474,0.004769721534103155
1761315222127301400,8.46330126953125,0.053587593138217926,-0.13828358054161072,0.037453364580869675
1761315222137349400,8.473349365234375,0.06064790114760399,-0.14563336968421936,0.07535866647958755
1761315222147396400,8.483396240234375,0.057561829686164856,-0.12620213627815247,0.10952728986740112
1761315222157443300,8.493443359375,0.051776379346847534,-0.08183281123638153,0.14106151461601257
1761315222167490600,8.503490478515625,0.045223403722047806,-0.025774605572223663,0.16471225023269653
1761315222177538300,8.513538330078125,0.03996046632528305,0.025493642315268517,0.1829032450914383
1761315222187585300,8.523585205078126,0.029193570837378502,0.06729142367839813,0.1971181333065033
1761315222197632300,8.53363232421875,0.02303980477154255,0.09519203007221222,0.2021927833557129
1761315222207679200,8.54367919921875,0.024157267063856125,0.10095298290252686,0.2049422264099121
1761315222217727500,8.5537275390625,0.03316035121679306,0.0853431299328804,0.20079222321510315
1761315222227774500,8.5637744140625,0.0353689081966877,0.051894888281822205,0.20218798518180847
1761315222237821400,8.573821533203125,0.027210315689444542,0.013651629909873009,0.19490690529346466
1761315222247868400,8.583868408203125,0.012746954336762428,-0.011187140829861164,0.17574067413806915
1761315222257916400,8.59391650390625,-0.0016500946367159486,-0.02695119008421898,0.1367703676223755
1761315222267963400,8.60396337890625,-0.0076246303506195545,-0.044128045439720154,0.07640182971954346
1761315222278010400,8.61401025390625,-0.006094910204410553,-0.05909581109881401,0.002100168727338314
1761315222288058400,8.624058349609374,0.0035023230593651533,-0.0571085587143898,-0.04899763688445091
1761315222298105600,8.634105712890625,0.007382282521575689,-0.040951695293188095,-0.08239127695560455
1761315222308152600,8.644152587890625,0.0017470336752012372,-0.03416063264012337,-0.09723281115293503
1761315222318199600,8.654199462890626,-0.006405967753380537,-0.024417191743850708,-0.08585232496261597
1761315222328247600,8.66424755859375,-0.012194082140922546,0.0014034858904778957,-0.05823347717523575
1761315222338294800,8.674294677734375,-0.006059490609914064,0.02690351940691471,-0.025711487978696823
1761315222348341800,8.684341796875,0.0014021543320268393,0.037041906267404556,0.0022559636272490025
1761315222358388700,8.694388671875,0.017477260902523994,0.0347617082297802,0.01900325156748295
1761315222368436500,8.7044365234375,0.028781579807400703,0.02474076673388481,0.03893594816327095
1761315222378483700,8.714483642578125,0.03243090957403183,0.017946243286132812,0.05028820410370827
1761315222388530700,8.72453076171875,0.03235820680856705,0.008806540630757809,0.05789579078555107
1761315222398577700,8.73457763671875,0.017589645460247993,-0.011633752845227718,0.05582651495933533
1761315222408625700,8.744625732421875,-0.0022421153262257576,-0.03187883645296097,0.05783826485276222
1761315222418672600,8.754672607421876,-0.016278572380542755,-0.020302342250943184,0.05935094133019447
1761315222428719900,8.764719970703124,-0.03548795357346535,0.0005480785621330142,0.0638575404882431
1761315222438766600,8.7747666015625,-0.05041337385773659,0.016933975741267204,0.05428454279899597
1761315222448814600,8.784814697265626,-0.06495875865221024,0.04296557605266571,0.04565350338816643
1761315222458861600,8.794861572265624,-0.0752558708190918,0.06912101060152054,0.04490728676319122
1761315222468908500,8.804908447265625,-0.08171776682138443,0.08365361392498016,0.04309713840484619
1761315222478955800,8.814955810546875,-0.08337131887674332,0.08873093128204346,0.05247412621974945
1761315222489003800,8.825003662109374,-0.08821241557598114,0.07869081944227219,0.061337925493717194
1761315222499050500,8.835050537109375,-0.09014613926410675,0.06117920204997063,0.06053871288895607
1761315222509097500,8.845097412109375,-0.0884704738855362,0.03955033794045448,0.06096162274479866
1761315222519144700,8.855144775390626,-0.08387093245983124,0.013393836095929146,0.05541452392935753
1761315222529192700,8.865192626953124,-0.07809107005596161,-0.010331200435757637,0.04854463413357735
1761315222539239700,8.87523974609375,-0.07332028448581696,-0.024955417960882187,0.047027163207530975
1761315222549286700,8.88528662109375,-0.06876468658447266,-0.026853717863559723,0.049966759979724884
1761315222559333600,8.895333740234374,-0.0628492683172226,-0.015993613749742508,0.06284527480602264
1761315222569381600,8.905381591796875,-0.05986812710762024,-0.0019688750617206097,0.07178550958633423
1761315222579428600,8.9154287109375,-0.0578843392431736,0.010512562468647957,0.07850359380245209
1761315222589475600,8.9254755859375,-0.05188237130641937,0.010611631907522678,0.07256874442100525
1761315222599522600,8.9355224609375,-0.03599768131971359,0.002950516063719988,0.05613783746957779
1761315222609569500,8.945569580078125,-0.02780207060277462,-0.019536416977643967,0.03604988008737564
1761315222619616800,8.95561669921875,-0.021144965663552284,-0.03825177997350693,0.02593759074807167
1761315222629663700,8.965663818359374,-0.009148224256932735,-0.04350060597062111,0.028386633843183517
1761315222639711700,8.975711669921875,0.002037584548816085,-0.04290379211306572,0.03370283544063568
1761315222649758500,8.985758544921875,0.009690976701676846,-0.04254719242453575,0.03635294735431671
1761315222659805700,8.9958056640625,0.019343070685863495,-0.05044719576835632,0.0392850860953331
1761315222669852700,9.005852783203125,0.022128205746412277,-0.053111154586076736,0.0432414785027504
1761315222679900700,9.015900634765625,0.024091221392154694,-0.04632009565830231,0.04683035612106323
1761315222689947600,9.02594775390625,0.02058703452348709,-0.024528779089450836,0.052196890115737915
1761315222699994600,9.03599462890625,0.019108712673187256,0.00035420042695477605,0.05771203339099884
1761315222710041900,9.046041748046875,0.014646320603787899,-0.0009198558400385082,0.04523325711488724
1761315222720089600,9.056089599609376,0.01673264056444168,-0.01954600401222706,0.02581881359219551
1761315222730136600,9.066136474609374,0.015091334469616413,-0.028326446190476418,0.016324112191796303
1761315222740183600,9.07618359375,0.018699917942285538,-0.012499280273914337,0.002959304489195347
1761315222750230500,9.08623046875,0.022221416234970093,0.020375313237309456,-0.009998305700719357
1761315222760278800,9.09627880859375,0.023995080962777138,0.029878269881010056,-0.027126692235469818
1761315222770325800,9.10632568359375,0.026330407708883286,0.0026937874499708414,-0.048102013766765594
1761315222780372700,9.116372802734375,0.025286180898547173,-0.03472229465842247,-0.06377524882555008
1761315222790419500,9.12641943359375,0.0223295409232378,-0.06198454275727272,-0.06703443080186844
1761315222800467700,9.1364677734375,0.022007031366229057,-0.06859477609395981,-0.05919621139764786
1761315222810514700,9.1465146484375,0.03538382425904274,-0.06504957377910614,-0.03928615152835846
1761315222820561700,9.156561767578125,0.0457397922873497,-0.059416189789772034,-0.019664781168103218
1761315222830609700,9.166609619140624,0.05169754847884178,-0.054846737533807755,-0.01073759887367487
1761315222840656600,9.17665673828125,0.05495326220989227,-0.051410458981990814,-0.005709018558263779
1761315222850703600,9.18670361328125,0.05559854581952095,-0.03844859078526497,-0.004251736681908369
1761315222860750600,9.19675048828125,0.05017128959298134,-0.025313345715403557,-0.004010987002402544
1761315222870797600,9.206797607421874,0.0421125665307045,-0.02816346101462841,-0.012484366074204445
1761315222880845600,9.216845458984375,0.03068813681602478,-0.034336935728788376,-0.01583089493215084
1761315222890892800,9.226892822265626,0.02135695330798626,-0.036866139620542526,-0.019948408007621765
1761315222900939800,9.236939697265624,0.020323913544416428,-0.04838883876800537,-0.022793196141719818
1761315222910987500,9.246987548828125,0.01979074813425541,-0.05282726138830185,-0.024752218276262283
1761315222921034500,9.257034423828125,0.02304699644446373,-0.05770643800497055,-0.021201690658926964
1761315222931081700,9.267081787109374,0.02345978654921055,-0.07003580778837204,-0.018869029358029366
1761315222941128700,9.277128662109375,0.014870292507112026,-0.07706282287836075,-0.012311793863773346
1761315222951176700,9.2871767578125,0.0054509579204022884,-0.06878385692834854,-0.008708802983164787
1761315222961223700,9.2972236328125,-0.008452607318758965,-0.053772151470184326,-0.005908222869038582
1761315222971270700,9.307270751953125,-0.014562164433300495,-0.0230557844042778,0.0011028150329366326
1761315222981317600,9.317317626953125,-0.016927585005760193,0.0054943677969276905,0.0025363946333527565
1761315222991365600,9.32736572265625,-0.015793876722455025,0.014192251488566399,0.004237622022628784
1761315223001412600,9.33741259765625,-0.01583355851471424,0.011226821690797806,0.0018708707066252828
1761315223011459600,9.34745947265625,-0.014131797477602959,-0.005841909907758236,0.0026072347536683083
1761315223021506600,9.357506591796875,-0.017980065196752548,-0.02442385070025921,0.0049034119583666325
1761315223031554800,9.367554931640624,-0.02027597650885582,-0.02389121800661087,0.009082444943487644
1761315223041601500,9.3776015625,-0.025796975940465927,-0.005918608978390694,0.009158611297607422
1761315223051648500,9.3876484375,-0.028549619019031525,-0.008673915639519691,-0.006756439805030823
1761315223061695500,9.397695556640626,-0.023991351947188377,-0.015909723937511444,-0.02081366814672947
1761315223071743700,9.40774365234375,-0.01805862970650196,-0.015429822728037834,-0.03497076779603958
1761315223081790700,9.417790771484375,-0.013889716938138008,-0.012379704043269157,-0.04705352708697319
1761315223091837700,9.427837646484376,-0.008045942522585392,0.002487925114110112,-0.06303595751523972
1761315223101884700,9.437884765625,-0.003528422210365534,0.026072081178426743,-0.07141692191362381
1761315223111932700,9.4479326171875,0.002897785510867834,0.03701048344373703,-0.06824883073568344
1761315223121979600,9.457979736328125,0.009338906966149807,0.04146381840109825,-0.05522916838526726
1761315223132026600,9.468026611328124,0.011442803777754307,0.05155880004167557,-0.043774910271167755
1761315223142073600,9.478073486328125,0.01805037260055542,0.05589096248149872,-0.03532150387763977
1761315223152121600,9.48812158203125,0.03291720524430275,0.052391570061445236,-0.025553563609719276
1761315223162168800,9.4981689453125,0.0463898703455925,0.02815999835729599,-0.018312428146600723
1761315223172215800,9.5082158203125,0.058759987354278564,-0.01293417438864708,-0.009528257884085178
1761315223182262800,9.5182626953125,0.0595749132335186,-0.045218344777822495,0.007089334540069103
1761315223192310500,9.528310546875,0.06461600959300995,-0.0671665221452713,0.02622920647263527
1761315223202360600,9.538360595703125,0.05790084972977638,-0.0759778544306755,0.04529211297631264
1761315223212407600,9.548407470703125,0.0538451224565506,-0.07067470252513885,0.05095905438065529
1761315223222454500,9.55845458984375,0.04242894798517227,-0.0560946948826313,0.04758642613887787
1761315223232501800,9.568501708984375,0.032332371920347214,-0.021618476137518883,0.0304561760276556
1761315223242549800,9.5785498046875,0.03513987734913826,0.012229502201080322,0.008228901773691177
1761315223252596700,9.5885966796875,0.04508518800139427,0.032165125012397766,-0.012888101860880852
1761315223262643500,9.5986435546875,0.047699347138404846,0.020799022167921066,-0.03297792375087738
1761315223272690700,9.608690673828125,0.04815820977091789,-0.0111032510176301,-0.042824696749448776
1761315223282738700,9.61873876953125,0.04656670242547989,-0.04080229252576828,-0.030301978811621666
1761315223292785700,9.62878564453125,0.04483911022543907,-0.05122030898928642,-0.012468920089304447
1761315223302832600,9.63883251953125,0.041602037847042084,-0.045527003705501556,0.006776679772883654
1761315223312880600,9.648880615234376,0.03897962346673012,-0.036251746118068695,0.017898039892315865
1761315223322928400,9.658928466796874,0.04111894220113754,-0.015559518709778786,0.025404425337910652
1761315223332975400,9.668975341796875,0.03734284266829491,0.0032799490727484226,0.02136813849210739
1761315223343022600,9.679022705078125,0.032532643526792526,0.010510697960853577,0.022654445841908455
1761315223353070600,9.689070556640624,0.025364479050040245,0.02889236807823181,0.029202893376350403
1761315223363117600,9.69911767578125,0.022905848920345306,0.036927126348018646,0.031682293862104416
1761315223373164300,9.709164306640625,0.016823189333081245,0.025127191096544266,0.029629264026880264
1761315223383211300,9.719211181640626,0.01858380436897278,0.01353365182876587,0.030046315863728523
1761315223393259500,9.729259521484375,0.012811935506761074,-0.0006982808117754757,0.030604248866438866
1761315223403306500,9.739306396484375,0.009604424238204956,-0.011830028146505356,0.03509780019521713
1761315223413353500,9.749353515625,0.0057100835256278515,-0.01133973989635706,0.04231869429349899
1761315223423400400,9.759400390625,-0.010022540576756,-0.0007177218794822693,0.054962050169706345
1761315223433448400,9.769448486328125,-0.029380260035395622,0.018185928463935852,0.06983447819948196
1761315223443495400,9.779495361328125,-0.04388756304979324,0.0414731428027153,0.07483456283807755
1761315223453542400,9.78954248046875,-0.04902932792901993,0.05146265774965286,0.07577519118785858
1761315223463589400,9.79958935546875,-0.04633154720067978,0.05613623932003975,0.0702347457408905
1761315223473637600,9.8096376953125,-0.03780783340334892,0.06555584073066711,0.07041557878255844
1761315223483684600,9.8196845703125,-0.03472921997308731,0.0722275897860527,0.07659623771905899
1761315223493731600,9.829731689453125,-0.029274266213178635,0.07137085497379303,0.09158637374639511
1761315223503778600,9.839778564453125,-0.02828490175306797,0.05988410487771034,0.11326716840267181
1761315223513826600,9.84982666015625,-0.03346847742795944,0.038424354046583176,0.12817128002643585
1761315223523873500,9.85987353515625,-0.03562430664896965,0.016574183478951454,0.13788196444511414
1761315223533920500,9.86992041015625,-0.04242069274187088,-0.01206678245216608,0.13343581557273865
1761315223543967500,9.879967529296875,-0.04658002033829689,-0.03867841884493828,0.11894716322422028
1761315223554015500,9.890015380859374,-0.06454650312662125,-0.04045794531702995,0.11126899719238281
1761315223564062700,9.900062744140625,-0.07980508357286453,-0.021807294338941574,0.09472757577896118
1761315223574109400,9.910109375,-0.09629350900650024,0.011828962713479996,0.08325067907571793
1761315223584156400,9.920156494140626,-0.11997487396001816,0.053101036697626114,0.06886694580316544
1761315223594204400,9.930204345703125,-0.14156672358512878,0.08436255156993866,0.04656697064638138
1761315223604251400,9.94025146484375,-0.16250209510326385,0.09528417140245438,0.019593408331274986
1761315223614298600,9.950298583984376,-0.1807098537683487,0.09698167443275452,-0.005885852500796318
1761315223624345600,9.960345703125,-0.18370378017425537,0.08563447743654251,-0.027048129588365555
1761315223634393300,9.970393310546875,-0.17711272835731506,0.06259386986494064,-0.03715003281831741
1761315223644440300,9.9804404296875,-0.16780471801757812,0.04069070518016815,-0.03406502678990364
1761315223654487300,9.9904873046875,-0.16077157855033875,0.018160628154873848,-0.019459452480077744
1761315223664534500,10.000534423828125,-0.155040442943573,0.00042743736412376165,-0.0014586133183911443
1761315223674582500,10.01058251953125,-0.15441353619098663,-0.023748472332954407,0.023630227893590927
1761315223684629500,10.02062939453125,-0.15716911852359772,-0.033251695334911346,0.042097918689250946
1761315223694676500,10.030676513671875,-0.15043558180332184,-0.02184750884771347,0.05663451552391052
1761315223704723700,10.0407236328125,-0.1394292712211609,-0.020195815712213516,0.056228384375572205
1761315223714771500,10.050771484375,-0.12241405993700027,-0.02383635751903057,0.03648184612393379
1761315223724818400,10.060818359375,-0.10178761184215546,-0.0006713828770443797,0.004019775427877903
1761315223734865400,10.070865478515625,-0.07883862406015396,0.03566425293684006,-0.03212491422891617
1761315223744913700,10.08091357421875,-0.04423670470714569,0.05152284726500511,-0.06654547154903412
1761315223754960600,10.090960693359374,-0.006938067264854908,0.050522297620773315,-0.09371291100978851
1761315223765007600,10.101007568359375,0.010133860632777214,0.021572936326265335,-0.10510804504156113
1761315223775054300,10.111054443359375,0.020118584856390953,-0.04039962217211723,-0.08723663538694382
1761315223785102600,10.1211025390625,0.009512810967862606,-0.08343177288770676,-0.04151228815317154
1761315223795149600,10.131149658203125,-0.009857957251369953,-0.08849018812179565,0.016465526074171066
1761315223805196500,10.141196533203125,-0.015370700508356094,-0.060917679220438004,0.059360530227422714
1761315223815243500,10.151243408203126,-0.0051873051561415195,-0.021581990644335747,0.07889401912689209
1761315223825291500,10.16129150390625,0.016756875440478325,0.0009962886106222868,0.07166992872953415
1761315223835338500,10.17133837890625,0.025353560224175453,0.01901070959866047,0.06000075116753578
1761315223845385500,10.181385498046875,0.0229354090988636,0.0231173038482666,0.0426662378013134
1761315223855432400,10.191432373046876,0.008757272735238075,0.022531142458319664,0.01498187892138958
1761315223865480400,10.20148046875,0.0025885924696922302,0.0059990365989506245,-0.01830071024596691
1761315223875527400,10.21152734375,0.006701312027871609,-0.019117768853902817,-0.0542890727519989
1761315223885574700,10.22157470703125,0.01149739883840084,-0.04519117996096611,-0.08486748486757278
1761315223895621600,10.23162158203125,0.010732805356383324,-0.05771150067448616,-0.0998014286160469
1761315223905669400,10.24166943359375,0.00657481187954545,-0.0738353431224823,-0.10892142355442047
1761315223915716400,10.25171630859375,-0.0037116475868970156,-0.08399423956871033,-0.10864951461553574
1761315223925763600,10.261763671875,-0.011806592345237732,-0.08334442228078842,-0.09713347256183624
1761315223935810600,10.271810546875,-0.013347230851650238,-0.08613648265600204,-0.07531072944402695
1761315223945858600,10.281858642578126,-0.015017298981547356,-0.07721835374832153,-0.04879976436495781
1761315223955905500,10.291905517578124,-0.014510499313473701,-0.066527359187603,-0.036083437502384186
1761315223965952500,10.301952392578125,-0.009550894610583782,-0.05401316657662392,-0.027755199000239372
1761315223975999500,10.31199951171875,-0.00013022858183830976,-0.02509629912674427,-0.020301276817917824
1761315223986047500,10.322047607421876,0.012468387372791767,0.005688512232154608,-0.0105916578322649
1761315223996094500,10.332094482421875,0.024157000705599785,0.015150723047554493,0.002380333375185728
1761315224006141400,10.342141357421875,0.027232419699430466,0.019573967903852463,0.018020812422037125
1761315224016188400,10.3521884765625,0.028678782284259796,0.018812570720911026,0.0403817780315876
1761315224026236400,10.362236328125,0.028662804514169693,0.017079384997487068,0.06126362457871437
1761315224036283400,10.372283447265625,0.026825755834579468,0.012297412380576134,0.07383161038160324
1761315224046330400,10.382330322265625,0.02630297653377056,-0.0025989788118749857,0.07722687721252441
1761315224056377300,10.39237744140625,0.021815549582242966,-0.01846342906355858,0.06434489786624908
1761315224066425600,10.402425537109375,0.021378258243203163,-0.03548369184136391,0.04369927570223808
1761315224076472600,10.41247265625,0.013376525603234768,-0.047025565057992935,0.019692745059728622
1761315224086519600,10.42251953125,-0.006110356654971838,-0.04271737113595009,-0.0002668487431947142
1761315224096566500,10.43256640625,-0.018430139869451523,-0.02617461234331131,-0.020565995946526527
1761315224106614500,10.442614501953125,-0.024235298857092857,-0.009408148936927319,-0.025232918560504913
1761315224116661500,10.45266162109375,-0.02191195636987686,0.012080631218850613,-0.02858397364616394
1761315224126708500,10.46270849609375,-0.008255799300968647,0.02496819943189621,-0.03179148584604263
1761315224136755500,10.47275537109375,0.010104832239449024,0.00506959343329072,-0.02917865850031376
1761315224146803500,10.482803466796875,0.019637349992990494,-0.021752700209617615,-0.022495988756418228
1761315224156850700,10.4928505859375,0.026136528700590134,-0.04718295857310295,-0.013953099958598614
1761315224166897400,10.5028974609375,0.03716627508401871,-0.05950940027832985,-0.0010436928132548928
1761315224176944400,10.5129443359375,0.04273920878767967,-0.055754873901605606,0.02695518545806408
1761315224186992400,10.522992431640626,0.037454698234796524,-0.05642785504460335,0.04640531539916992
1761315224197039600,10.53303955078125,0.01751827262341976,-0.05741908401250839,0.061159759759902954
1761315224207086600,10.543086669921875,0.0030929953791201115,-0.04053251072764397,0.059474777430295944
1761315224217134600,10.553134521484376,0.001315335277467966,-0.022372417151927948,0.04218926653265953
1761315224227181300,10.563181396484374,0.006299174856394529,-0.011544536799192429,0.016742760315537453
1761315224237228300,10.573228271484375,0.00806298665702343,0.0031523837242275476,-0.007150587625801563
1761315224247275500,10.583275634765625,0.005696767941117287,0.010702445171773434,-0.028685973957180977
1761315224257323500,10.593323486328124,0.0017904432024806738,0.001856489572674036,-0.046425022184848785
1761315224267370500,10.60337060546875,-0.00887924525886774,-0.02015373855829239,-0.053230732679367065
1761315224277417500,10.61341748046875,-0.009333580732345581,-0.03839132934808731,-0.04947487637400627
1761315224287464400,10.62346435546875,-0.006954312324523926,-0.05234070122241974,-0.03943102806806564
1761315224297512400,10.633512451171875,-0.01070697233080864,-0.05742600932717323,-0.027730431407690048
1761315224307558700,10.64355859375,-0.015095063485205173,-0.03706534206867218,-0.013656956143677235
1761315224317606000,10.65360595703125,-0.015847139060497284,0.016599483788013458,-0.0016556872287765145
1761315224327652900,10.66365283203125,-0.012221512384712696,0.0600135363638401,0.0026530411560088396
1761315224337700900,10.673700927734375,-0.0027182884514331818,0.07749905437231064,-0.0030418625101447105
1761315224347747800,10.683747802734375,0.007383880205452442,0.0882457047700882,-0.001255680457688868
1761315224357794800,10.693794921875,0.015575231052935123,0.07320497184991837,-0.000046072687837295234
1761315224367842000,10.703842041015625,0.027937624603509903,0.045585595071315765,0.0037736992817372084
1761315224377889800,10.713889892578125,0.043593816459178925,0.019726300612092018,0.012824186123907566
1761315224387936800,10.723936767578126,0.05614769086241722,-0.007029680069535971,0.02225363999605179
1761315224397983700,10.733983642578124,0.06857400387525558,-0.03815031424164772,0.03160559758543968
1761315224408030700,10.74403076171875,0.067899689078331,-0.0669872909784317,0.032939307391643524
1761315224418079000,10.754078857421876,0.061225008219480515,-0.08262297511100769,0.03485278785228729
1761315224428126000,10.7641259765625,0.045643918216228485,-0.07163344323635101,0.03725416213274002
1761315224438173000,10.7741728515625,0.03398486599326134,-0.04342949762940407,0.04018523544073105
1761315224448220000,10.784219970703125,0.027484621852636337,-0.011737083084881306,0.03154434263706207
1761315224458268000,10.794267822265626,0.027383953332901,0.009865413419902325,0.0068062408827245235
1761315224468315000,10.80431494140625,0.029750172048807144,0.014289990067481995,-0.030180539935827255
1761315224478361900,10.81436181640625,0.03719450533390045,0.019144132733345032,-0.06052006781101227
1761315224488408800,10.824408935546876,0.042933885008096695,0.015294267795979977,-0.07873822003602982
1761315224498456800,10.834456787109374,0.03507090359926224,0.0001155811914941296,-0.07907271385192871
1761315224508503800,10.84450390625,0.028073180466890335,-0.014389059506356716,-0.055022504180669785
1761315224518550800,10.85455078125,0.02624412067234516,-0.017230918630957603,-0.028788238763809204
1761315224528597800,10.86459765625,0.029916886240243912,-0.01918674446642399,-0.0043838294222950935
1761315224538646000,10.87464599609375,0.03425624221563339,-0.021314876154065132,0.008709069341421127
1761315224548693000,10.88469287109375,0.03845471516251564,-0.02683374471962452,0.020110327750444412
1761315224558740000,10.894739990234376,0.03777667507529259,-0.022591594606637955,0.02389201708137989
1761315224568787000,10.904786865234374,0.0433804951608181,-0.02028503082692623,0.015615178272128105
1761315224578834700,10.914834716796875,0.04796912521123886,-0.029016470536589622,-0.002092179376631975
1761315224588882000,10.9248818359375,0.049021605402231216,-0.03554654121398926,-0.017672736197710037
1761315224598929000,10.934928955078124,0.04394402354955673,-0.03816922381520271,-0.03169028460979462
1761315224608976000,10.944975830078125,0.03737560287117958,-0.03155020251870155,-0.03400430455803871
1761315224619024000,10.95502392578125,0.028558939695358276,-0.0020759340841323137,-0.032276712357997894
1761315224629070800,10.96507080078125,0.027517644688487053,0.008598814718425274,-0.03964940831065178
1761315224639118000,10.9751181640625,0.02664865553379059,0.0032743564806878567,-0.04024036228656769
1761315224649164800,10.985164794921875,0.02961248718202114,-0.008332764729857445,-0.03832581639289856
1761315224659212800,10.995212890625,0.03453613817691803,-0.009951167739927769,-0.027771443128585815
1761315224669259800,11.005259765625,0.04183772951364517,-0.012859073467552662,-0.013265205547213554
1761315224679307000,11.01530712890625,0.048827994614839554,-0.019471967592835426,0.00007590009045088664
1761315224689355000,11.02535498046875,0.04150030389428139,-0.04391339421272278,0.0032205607276409864
1761315224699401700,11.035401611328124,0.03682752326130867,-0.0627206414937973,0.00845580268651247
1761315224709448700,11.04544873046875,0.03310894966125488,-0.06528579443693161,0.015726765617728233
1761315224719495700,11.05549560546875,0.025348765775561333,-0.054429419338703156,0.01317891851067543
1761315224729544000,11.0655439453125,0.02178998477756977,-0.03416995331645012,0.005481051746755838
1761315224739591000,11.0755908203125,0.012803945690393448,-0.01495364960283041,-0.009608685038983822
1761315224749638000,11.085637939453125,-0.001222390914335847,-0.008157795295119286,-0.028737371787428856
1761315224759684900,11.095684814453126,-0.013948572799563408,0.0027691549621522427,-0.044792238622903824
1761315224769732900,11.10573291015625,-0.02022377960383892,0.01233576238155365,-0.047560062259435654
1761315224779779800,11.11577978515625,-0.025737321004271507,0.03520086407661438,-0.04044942185282707
1761315224789826800,11.125826904296876,-0.02804228663444519,0.04908605292439461,-0.027606593444943428
1761315224799873800,11.135873779296874,-0.026216156780719757,0.05435884743928909,-0.01540532149374485
1761315224809922000,11.145922119140625,-0.021323397755622864,0.04965303838253021,-0.007960454560816288
1761315224819969000,11.155968994140625,-0.01781574822962284,0.043180227279663086,-0.006397445686161518
1761315224830016000,11.16601611328125,-0.006619020365178585,0.0348338820040226,-0.009228918701410294
1761315224840063000,11.17606298828125,-0.00242214510217309,0.026101108640432358,-0.01678643748164177
1761315224850110700,11.18611083984375,0.0049068741500377655,0.016596287488937378,-0.018580075353384018
1761315224860158000,11.196157958984376,0.0070794811472296715,0.006880276836454868,-0.02237587980926037
1761315224870205000,11.206204833984375,0.008237157016992569,0.005302620120346546,-0.018016817048192024
1761315224880252000,11.216251953125,0.005276521202176809,0.0006045375484973192,-0.01876836083829403
1761315224890300000,11.2262998046875,0.010341853834688663,-0.004269047174602747,-0.011887285858392715
1761315224900347000,11.236346923828124,0.017493506893515587,-0.005850166082382202,-0.013464676216244698
1761315224910393900,11.246393798828125,0.021387847140431404,-0.010185525752604008,-0.016771256923675537
1761315224920440800,11.25644091796875,0.017899904400110245,-0.01314935740083456,-0.016593091189861298
1761315224930488800,11.26648876953125,0.013307815417647362,-0.0007534082396887243,-0.02147919312119484
1761315224940535800,11.276535888671875,0.01696673221886158,0.009213738143444061,-0.03068387694656849
1761315224950583000,11.2865830078125,0.029224731028079987,-0.0015662050573155284,-0.03778013586997986
1761315224960630000,11.296630126953126,0.03159148246049881,-0.02737969346344471,-0.03498328477144241
1761315224970677800,11.306677734375,0.02570190094411373,-0.030969899147748947,-0.03626692667603493
1761315224980724700,11.316724853515625,0.025317873805761337,-0.029337648302316666,-0.022097844630479813
1761315224990771700,11.326771728515626,0.024717863649129868,0.0007185208378359675,-0.0021992383990436792
1761315225000819000,11.33681884765625,0.03340988978743553,0.0347830131649971,0.006139385048300028
1761315225010867000,11.346866943359375,0.046960584819316864,0.03368685767054558,0.003206978552043438
1761315225020914000,11.356913818359375,0.051900215446949005,0.019050123170018196,0.008798285387456417
1761315225030961000,11.3669609375,0.05080059543251991,0.0014426343841478229,0.022527679800987244
1761315225041007900,11.3770078125,0.03864939138293266,0.0027300063520669937,0.04510888829827309
1761315225051055900,11.387055908203125,0.03827015683054924,0.02257561683654785,0.06996364146471024
1761315225061102800,11.397102783203126,0.052444566041231155,0.055800147354602814,0.08351913094520569
1761315225071149800,11.40714990234375,0.05849659815430641,0.06166389584541321,0.07875420153141022
1761315225081196800,11.41719677734375,0.04638241231441498,0.023129021748900414,0.07743673771619797
1761315225091245000,11.4272451171875,0.051358528435230255,0.009943444281816483,0.08096888661384583
1761315225101291800,11.437291748046874,0.058888617902994156,-0.004337490536272526,0.07393920421600342
1761315225111338800,11.4473388671875,0.06077226996421814,-0.04192880913615227,0.07446438074111938
1761315225121385700,11.4573857421875,0.05520200356841087,-0.08958980441093445,0.07440419495105743
1761315225131434000,11.46743408203125,0.04513418674468994,-0.1226835772395134,0.07369872182607651
1761315225141481000,11.47748095703125,0.03609329089522362,-0.13228720426559448,0.08064078539609909
1761315225151528000,11.48752783203125,0.03579075261950493,-0.13737304508686066,0.0921376496553421
1761315225161575700,11.49757568359375,0.033012278378009796,-0.12243137508630753,0.10405529290437698
1761315225171622700,11.50762255859375,0.03545146808028221,-0.08641691505908966,0.11026471853256226
1761315225181670000,11.517669921875,0.03254116326570511,-0.03340216353535652,0.10480284690856934
1761315225191716900,11.527716796875,0.021644042804837227,0.01546364463865757,0.08062586933374405
1761315225201764900,11.537764892578124,0.007445931900292635,0.032888174057006836,0.040758080780506134
1761315225211811800,11.547811767578125,0.0025273398496210575,0.030438600108027458,-0.006643521599471569
1761315225221859000,11.557859130859375,-0.0019297265680506825,0.01938807964324951,-0.03740702569484711
1761315225231906000,11.567906005859374,-0.013455887325108051,0.011392470449209213,-0.0580768845975399
1761315225241953800,11.577953857421875,-0.019662117585539818,0.01332539226859808,-0.061531003564596176
1761315225252000800,11.588000732421875,-0.021161478012800217,0.02208186686038971,-0.0587189719080925
1761315225262047700,11.5980478515625,-0.02010047435760498,0.027175161987543106,-0.050820037722587585
1761315225272095000,11.608094970703124,-0.017180584371089935,0.024442225694656372,-0.04417678341269493
1761315225282143000,11.61814306640625,-0.02136733941733837,-0.0015363775892183185,-0.0375622883439064
1761315225292190000,11.62818994140625,-0.021640047430992126,-0.026672357693314552,-0.03333398699760437
1761315225302236700,11.638236572265624,-0.01594194769859314,-0.04670199006795883,-0.01787114143371582
1761315225312284000,11.648283935546875,-0.011092598550021648,-0.0439770445227623,0.0013558153295889497
1761315225322332000,11.658331787109375,-0.006310093682259321,-0.02540123090147972,0.017026387155056
1761315225332379100,11.668379150390624,-0.004797950852662325,-0.007318366784602404,0.028073979541659355
1761315225342426000,11.678426025390625,0.00038216362008824944,0.00009667274571256712,0.03195686638355255
1761315225352473000,11.68847314453125,0.005003546830266714,0.013125921599566936,0.02509416826069355
1761315225362520800,11.698520751953126,0.026191657409071922,0.016864201053977013,0.021101290360093117
1761315225372567800,11.70856787109375,0.03975673392415047,0.008463792502880096,0.014475345611572266
1761315225382615000,11.718614990234375,0.041670747101306915,0.0033068470656871796,0.0011432950850576162
1761315225392662000,11.728662109375,0.042381010949611664,0.019786488264799118,-0.0004830974212381989
1761315225402710000,11.7387099609375,0.03797774389386177,0.041250500828027725,0.0003587277897167951
1761315225412757000,11.748757080078125,0.021084778010845184,0.04789029434323311,-0.0007105313707143068
1761315225422804000,11.758803955078125,0.011082478798925877,0.04223373904824257,-0.011078749783337116
1761315225432851200,11.768851318359374,0.014855911023914814,0.028724588453769684,-0.028983181342482567
1761315225442899000,11.77889892578125,0.029938723891973495,0.015208513475954533,-0.05073881149291992
1761315225452946000,11.78894580078125,0.046123284846544266,0.014100905507802963,-0.06233394891023636
1761315225462993000,11.798992919921876,0.04872679337859154,0.05180167779326439,-0.05705210193991661
1761315225473040100,11.8090400390625,0.051234159618616104,0.10467448085546494,-0.04379648342728615
1761315225483088100,11.819088134765625,0.05941086262464523,0.14006149768829346,-0.02600044198334217
1761315225493134800,11.829134765625,0.05074440315365791,0.1297558695077896,0.04441114142537117
1761315225503181800,11.839181884765624,0.056286174803972244,-0.0037499971222132444,0.06691431999206543
1761315225513228800,11.849228759765625,0.08094757795333862,-0.12060923874378204,0.07713446766138077
1761315225523277000,11.859277099609375,0.11349274218082428,-0.17638568580150604,0.0999433770775795
1761315225533324000,11.869323974609374,0.1117238700389862,-0.16391703486442566,0.09740644693374634
1761315225543371000,11.87937109375,0.10024164617061615,-0.1180049329996109,0.0626647099852562
1761315225553418000,11.88941796875,0.08209700137376785,-0.042450785636901855,0.0000774979853304103
1761315225563466000,11.899466064453126,0.06214885786175728,0.038476284593343735,-0.08070310205221176
1761315225573513000,11.909512939453125,0.027092870324850082,0.07714112102985382,-0.1501476913690567
1761315225583560000,11.919559814453125,0.012480637989938259,0.06663016229867935,-0.16754186153411865
