time,seconds_elapsed,z,y,x
1761315170411889200,0.06288916015625,-0.95831298828125,-0.144561767578125,0.0731658935546875
1761315170421936000,0.07293603515625,-0.956512451171875,-0.141937255859375,0.0764923095703125
1761315170431984000,0.082984130859375,-0.955810546875,-0.141326904296875,0.075531005859375
1761315170442031000,0.093031005859375,-0.9559478759765625,-0.1439666748046875,0.0751800537109375
1761315170452079000,0.1030791015625,-0.9553375244140625,-0.1499481201171875,0.0747833251953125
1761315170462126000,0.1131259765625,-0.956787109375,-0.156951904296875,0.0735321044921875
1761315170472173000,0.123173095703125,-0.961273193359375,-0.1643218994140625,0.076904296875
1761315170482221000,0.133220947265625,-0.972625732421875,-0.1707916259765625,0.0771636962890625
1761315170492268000,0.14326806640625,-0.9825592041015625,-0.1741180419921875,0.069244384765625
1761315170502316000,0.15331591796875,-0.9893798828125,-0.1755828857421875,0.059051513671875
1761315170512363300,0.16336328125,-0.992279052734375,-0.1777801513671875,0.044525146484375
1761315170522410200,0.17341015625,-0.9906768798828125,-0.178924560546875,0.0318603515625
1761315170532458000,0.1834580078125,-0.9867706298828125,-0.178314208984375,0.02386474609375
1761315170542505000,0.1935048828125,-0.9920806884765625,-0.18157958984375,0.021392822265625
1761315170552553200,0.20355322265625,-0.98919677734375,-0.185211181640625,0.0216522216796875
1761315170562600200,0.21360009765625,-0.981689453125,-0.1881866455078125,0.022247314453125
1761315170572648000,0.22364794921875,-0.981903076171875,-0.1868438720703125,0.0263519287109375
1761315170582695000,0.23369482421875,-0.978363037109375,-0.1813507080078125,0.0300445556640625
1761315170592742000,0.243741943359375,-0.9717254638671875,-0.1743927001953125,0.032867431640625
1761315170602790100,0.2537900390625,-0.9630889892578125,-0.16998291015625,0.034393310546875
1761315170612837000,0.263837158203125,-0.956878662109375,-0.168426513671875,0.0373992919921875
1761315170622884900,0.273884765625,-0.949554443359375,-0.1671600341796875,0.0343170166015625
1761315170632932000,0.28393212890625,-0.9500274658203125,-0.1660003662109375,0.0320587158203125
1761315170642979000,0.29397900390625,-0.9510040283203125,-0.1661529541015625,0.0282745361328125
1761315170653027000,0.304027099609375,-0.9468231201171875,-0.1665191650390625,0.0263671875
1761315170663074000,0.314073974609375,-0.9622955322265625,-0.1710662841796875,0.03472900390625
1761315170673122000,0.3241220703125,-0.971343994140625,-0.1728057861328125,0.033172607421875
1761315170683169000,0.3341689453125,-0.95806884765625,-0.1715087890625,0.0310821533203125
1761315170693217000,0.344217041015625,-0.952423095703125,-0.177703857421875,0.032928466796875
1761315170703264000,0.354263916015625,-0.9488677978515625,-0.186553955078125,0.039276123046875
1761315170713311200,0.364311279296875,-0.9444122314453125,-0.19366455078125,0.0435638427734375
1761315170723359200,0.374359130859375,-0.9577484130859375,-0.19488525390625,0.0448455810546875
1761315170733406000,0.384406005859375,-0.96392822265625,-0.1884765625,0.043212890625
1761315170743454000,0.394453857421875,-0.960723876953125,-0.1837921142578125,0.0380706787109375
1761315170753501200,0.404501220703125,-0.961181640625,-0.18499755859375,0.0370635986328125
1761315170763549200,0.414549072265625,-0.9666595458984375,-0.1847991943359375,0.0417327880859375
1761315170773596200,0.42459619140625,-0.9739532470703125,-0.1802520751953125,0.04248046875
1761315170783643000,0.434642822265625,-0.97442626953125,-0.1762542724609375,0.04083251953125
1761315170793691100,0.444691162109375,-0.9746246337890625,-0.1735076904296875,0.044281005859375
1761315170803738000,0.454738037109375,-0.9826202392578125,-0.1726531982421875,0.0512237548828125
1761315170813786000,0.4647861328125,-0.985626220703125,-0.1734619140625,0.059600830078125
1761315170823833000,0.4748330078125,-0.9857635498046875,-0.1763916015625,0.064605712890625
1761315170833880000,0.484880126953125,-0.9818878173828125,-0.175262451171875,0.0665740966796875
1761315170843928000,0.494927978515625,-0.9715576171875,-0.174163818359375,0.0665435791015625
1761315170853975000,0.50497509765625,-0.965118408203125,-0.17236328125,0.060638427734375
1761315170864023000,0.51502294921875,-0.96942138671875,-0.1694488525390625,0.0571136474609375
1761315170874070300,0.5250703125,-0.97857666015625,-0.1709136962890625,0.055450439453125
1761315170884118000,0.535117919921875,-0.9741668701171875,-0.172821044921875,0.0519866943359375
1761315170894165000,0.5451650390625,-0.969879150390625,-0.1751861572265625,0.05072021484375
1761315170904212000,0.5552119140625,-0.9716033935546875,-0.179656982421875,0.0499725341796875
1761315170914260200,0.56526025390625,-0.9729766845703125,-0.1829986572265625,0.044647216796875
1761315170924307200,0.57530712890625,-0.975555419921875,-0.18426513671875,0.0421295166015625
1761315170934355000,0.58535498046875,-0.97564697265625,-0.1874542236328125,0.03826904296875
1761315170944402000,0.59540185546875,-0.97332763671875,-0.1904296875,0.0361785888671875
1761315170954449200,0.60544921875,-0.9706573486328125,-0.1930389404296875,0.03192138671875
1761315170964497200,0.6154970703125,-0.9611968994140625,-0.1941680908203125,0.029388427734375
1761315170974544100,0.625544189453125,-0.9644317626953125,-0.197601318359375,0.031707763671875
1761315170984592000,0.635591796875,-0.9788055419921875,-0.2012786865234375,0.0403289794921875
1761315170994639000,0.64563916015625,-0.98101806640625,-0.20135498046875,0.047576904296875
1761315171004686000,0.65568603515625,-0.9718780517578125,-0.1995849609375,0.04913330078125
1761315171014734000,0.665734130859375,-0.967193603515625,-0.19781494140625,0.051239013671875
1761315171024781000,0.675781005859375,-0.95928955078125,-0.1962890625,0.054229736328125
1761315171034829000,0.6858291015625,-0.95550537109375,-0.1981658935546875,0.0628814697265625
1761315171044876000,0.6958759765625,-0.942901611328125,-0.200439453125,0.070892333984375
1761315171054924000,0.705924072265625,-0.9403076171875,-0.2043304443359375,0.083648681640625
1761315171064971000,0.715970947265625,-0.94903564453125,-0.2086029052734375,0.0943145751953125
1761315171075018200,0.726018310546875,-0.95001220703125,-0.21087646484375,0.09759521484375
1761315171085066000,0.73606591796875,-0.93780517578125,-0.201873779296875,0.0945281982421875
1761315171095113000,0.746113037109375,-0.9344329833984375,-0.1854705810546875,0.0925140380859375
1761315171105161200,0.7561611328125,-0.9317779541015625,-0.178619384765625,0.095947265625
1761315171115208200,0.766208251953125,-0.912353515625,-0.1808319091796875,0.10137939453125
1761315171125255200,0.776255126953125,-0.9740447998046875,-0.208526611328125,0.1189727783203125
1761315171135303000,0.786302978515625,-0.9749298095703125,-0.2127532958984375,0.101776123046875
1761315171145350000,0.796349853515625,-0.9602813720703125,-0.206634521484375,0.0831451416015625
1761315171155398100,0.806398193359375,-0.9702606201171875,-0.2070770263671875,0.0743865966796875
1761315171165445000,0.816445068359375,-0.9747467041015625,-0.2113494873046875,0.06829833984375
1761315171175493000,0.8264931640625,-0.9758453369140625,-0.21868896484375,0.070526123046875
1761315171185539800,0.836539794921875,-0.9622955322265625,-0.2105865478515625,0.0653839111328125
1761315171195587000,0.846587158203125,-0.95294189453125,-0.218170166015625,0.0676422119140625
1761315171205635000,0.856635009765625,-0.9700469970703125,-0.23406982421875,0.0817108154296875
1761315171215682000,0.86668212890625,-0.9811248779296875,-0.228057861328125,0.08746337890625
1761315171225730300,0.876730224609375,-0.9778900146484375,-0.2134246826171875,0.0840606689453125
1761315171235777000,0.886777099609375,-0.97491455078125,-0.200897216796875,0.0747222900390625
1761315171245825000,0.896824951171875,-0.9692230224609375,-0.1941375732421875,0.0686798095703125
1761315171255872000,0.9068720703125,-0.9726104736328125,-0.1955718994140625,0.069854736328125
1761315171265919000,0.9169189453125,-0.9744415283203125,-0.1970977783203125,0.0736541748046875
1761315171275967200,0.92696728515625,-0.9743194580078125,-0.1957244873046875,0.0763397216796875
1761315171286014200,0.93701416015625,-0.9739837646484375,-0.195404052734375,0.078277587890625
1761315171296062000,0.94706201171875,-0.9682769775390625,-0.19940185546875,0.08282470703125
1761315171306109200,0.957109130859375,-0.9623565673828125,-0.2042083740234375,0.0874176025390625
1761315171316156200,0.96715625,-0.9636383056640625,-0.2054595947265625,0.0877227783203125
1761315171326204200,0.9772041015625,-0.9578399658203125,-0.2057342529296875,0.08465576171875
1761315171336251100,0.987251220703125,-0.9542999267578125,-0.207977294921875,0.0816802978515625
1761315171346299100,0.997299072265625,-0.9576568603515625,-0.209869384765625,0.077880859375
1761315171356346000,1.00734619140625,-0.9614410400390625,-0.2103118896484375,0.0756988525390625
1761315171366394000,1.01739404296875,-0.9603118896484375,-0.2091217041015625,0.0693359375
1761315171376441000,1.027441162109375,-0.956298828125,-0.2099151611328125,0.06561279296875
1761315171386488000,1.037488037109375,-0.9555511474609375,-0.2111358642578125,0.063079833984375
1761315171396536000,1.0475361328125,-0.95831298828125,-0.2125091552734375,0.06060791015625
1761315171406583000,1.0575830078125,-0.9580078125,-0.2130584716796875,0.0611419677734375
1761315171416631000,1.067631103515625,-0.958251953125,-0.2121429443359375,0.0617523193359375
1761315171426678300,1.07767822265625,-0.9575653076171875,-0.2098388671875,0.0659637451171875
1761315171436725200,1.087725341796875,-0.955596923828125,-0.2094573974609375,0.0704803466796875
1761315171446773000,1.09777294921875,-0.95050048828125,-0.2081146240234375,0.0719451904296875
1761315171456820000,1.107820068359375,-0.95001220703125,-0.20428466796875,0.0713958740234375
1761315171466868200,1.1178681640625,-0.95458984375,-0.1999969482421875,0.0707550048828125
1761315171476915200,1.127915283203125,-0.9537353515625,-0.196533203125,0.0645294189453125
1761315171486963000,1.137962890625,-0.953399658203125,-0.197723388671875,0.0608978271484375
1761315171497010000,1.148010009765625,-0.9560089111328125,-0.20025634765625,0.0538330078125
1761315171507057200,1.15805712890625,-0.955078125,-0.20147705078125,0.050933837890625
1761315171517105200,1.168105224609375,-0.9635162353515625,-0.2048797607421875,0.0577850341796875
1761315171527152000,1.178152099609375,-0.9775848388671875,-0.211090087890625,0.0642852783203125
1761315171537199900,1.188199951171875,-0.9757537841796875,-0.2111358642578125,0.0597686767578125
1761315171547247000,1.1982470703125,-0.9712371826171875,-0.20928955078125,0.0562896728515625
1761315171557294000,1.208294189453125,-0.9716796875,-0.21044921875,0.0584259033203125
1761315171567342000,1.218342041015625,-0.9661407470703125,-0.2122955322265625,0.0618743896484375
1761315171577389000,1.22838916015625,-0.9561004638671875,-0.2138214111328125,0.060882568359375
1761315171587437000,1.23843701171875,-0.9514007568359375,-0.2120361328125,0.063720703125
1761315171597484000,1.248484130859375,-0.95281982421875,-0.2131500244140625,0.0675811767578125
1761315171607532000,1.258531982421875,-0.9492034912109375,-0.214996337890625,0.0698394775390625
1761315171617579000,1.2685791015625,-0.9503631591796875,-0.212860107421875,0.07244873046875
1761315171627626200,1.278626220703125,-0.973358154296875,-0.2083740234375,0.0722503662109375
1761315171637674000,1.288674072265625,-0.978118896484375,-0.2003021240234375,0.0607757568359375
1761315171647721000,1.298720947265625,-0.975921630859375,-0.1965789794921875,0.0570068359375
1761315171657769000,1.30876904296875,-0.980377197265625,-0.2024993896484375,0.06256103515625
1761315171667816200,1.318816162109375,-0.977783203125,-0.2078399658203125,0.0676422119140625
1761315171677863200,1.32886328125,-0.97198486328125,-0.2095794677734375,0.067840576171875
1761315171687911000,1.338910888671875,-0.9609832763671875,-0.2125701904296875,0.0717315673828125
1761315171697958000,1.3489580078125,-0.962615966796875,-0.219268798828125,0.0763397216796875
1761315171708006100,1.359006103515625,-0.9625244140625,-0.2223358154296875,0.0754547119140625
1761315171718053000,1.36905322265625,-0.954864501953125,-0.2175445556640625,0.0653533935546875
1761315171728101000,1.37910107421875,-0.9518585205078125,-0.2122955322265625,0.0615997314453125
1761315171738148000,1.389148193359375,-0.9565887451171875,-0.2112579345703125,0.0640411376953125
1761315171748195000,1.399195068359375,-0.954925537109375,-0.2105255126953125,0.0643463134765625
1761315171758243000,1.4092431640625,-0.9485626220703125,-0.2103118896484375,0.062713623046875
1761315171768290000,1.4192900390625,-0.9508514404296875,-0.2101898193359375,0.061553955078125
1761315171778338300,1.42933837890625,-0.9549407958984375,-0.20916748046875,0.0547637939453125
1761315171788385300,1.43938525390625,-0.953460693359375,-0.2069091796875,0.047760009765625
1761315171798433000,1.44943310546875,-0.953765869140625,-0.2104339599609375,0.0485687255859375
1761315171808480000,1.45947998046875,-0.9570159912109375,-0.215240478515625,0.0551605224609375
1761315171818527000,1.46952685546875,-0.9573211669921875,-0.216796875,0.061767578125
1761315171828575200,1.4795751953125,-0.953765869140625,-0.21356201171875,0.0639190673828125
1761315171838622200,1.489622314453125,-0.9546966552734375,-0.21051025390625,0.0650177001953125
1761315171848670000,1.499669921875,-0.9586334228515625,-0.208160400390625,0.06512451171875
1761315171858717000,1.509717041015625,-0.967498779296875,-0.205169677734375,0.062042236328125
1761315171868765200,1.51976513671875,-0.9702911376953125,-0.20166015625,0.054443359375
1761315171878812200,1.529812255859375,-0.9666900634765625,-0.20135498046875,0.0497894287109375
1761315171888859100,1.539859130859375,-0.9671478271484375,-0.206878662109375,0.04986572265625
1761315171898907100,1.5499072265625,-0.9705963134765625,-0.213104248046875,0.0526275634765625
1761315171908954000,1.5599541015625,-0.971893310546875,-0.216033935546875,0.0540771484375
1761315171919002000,1.570002197265625,-0.9708251953125,-0.217498779296875,0.0576324462890625
1761315171929049000,1.580049072265625,-0.971923828125,-0.2165679931640625,0.0613555908203125
1761315171939096000,1.590095947265625,-0.97137451171875,-0.2160186767578125,0.0629730224609375
1761315171949144000,1.60014404296875,-0.9609375,-0.21539306640625,0.059539794921875
1761315171959191000,1.61019091796875,-0.9560546875,-0.2153778076171875,0.058868408203125
1761315171969239000,1.620239013671875,-0.9620208740234375,-0.2158203125,0.06146240234375
1761315171979286300,1.630286376953125,-0.9593353271484375,-0.2132568359375,0.059051513671875
1761315171989334000,1.640333984375,-0.954376220703125,-0.209381103515625,0.0543670654296875
1761315171999381000,1.650381103515625,-0.952850341796875,-0.2089996337890625,0.0562744140625
1761315172009428000,1.660427978515625,-0.959442138671875,-0.2103271484375,0.059112548828125
1761315172019476200,1.670476318359375,-0.958038330078125,-0.210296630859375,0.05364990234375
1761315172029523200,1.680523193359375,-0.95159912109375,-0.2103424072265625,0.050506591796875
1761315172039571000,1.690571044921875,-0.95806884765625,-0.214447021484375,0.056549072265625
1761315172049618000,1.700617919921875,-0.9650115966796875,-0.2142486572265625,0.0569305419921875
1761315172059666200,1.710666259765625,-0.962646484375,-0.2096405029296875,0.0504302978515625
1761315172069713200,1.720713134765625,-0.962921142578125,-0.2093353271484375,0.0469207763671875
1761315172079760100,1.730760009765625,-0.9616241455078125,-0.2147216796875,0.0473175048828125
1761315172089808000,1.740807861328125,-0.9527740478515625,-0.221466064453125,0.0481719970703125
1761315172099855000,1.750855224609375,-0.9535980224609375,-0.2231292724609375,0.05426025390625
1761315172109903000,1.760903076171875,-0.95648193359375,-0.2209930419921875,0.0596160888671875
1761315172119950000,1.7709501953125,-0.947021484375,-0.2169342041015625,0.0599365234375
1761315172129997000,1.7809970703125,-0.9406890869140625,-0.2118072509765625,0.060333251953125
1761315172140045000,1.791045166015625,-0.9458770751953125,-0.2096099853515625,0.06072998046875
1761315172150092000,1.801092041015625,-0.953765869140625,-0.206329345703125,0.0555877685546875
1761315172160140000,1.81114013671875,-0.9565887451171875,-0.2025146484375,0.05084228515625
1761315172170187000,1.82118701171875,-0.960906982421875,-0.2028961181640625,0.051544189453125
1761315172180235300,1.8312353515625,-0.967987060546875,-0.2058868408203125,0.0538787841796875
1761315172190282000,1.841281982421875,-0.9723663330078125,-0.2081146240234375,0.057281494140625
1761315172200329000,1.851328857421875,-0.9771575927734375,-0.209564208984375,0.0607757568359375
1761315172210377000,1.861376953125,-0.9771270751953125,-0.20880126953125,0.0608673095703125
1761315172220424200,1.871424072265625,-0.975555419921875,-0.206787109375,0.0571746826171875
1761315172230472200,1.88147216796875,-0.97174072265625,-0.206695556640625,0.056396484375
1761315172240519200,1.891519287109375,-0.970001220703125,-0.2091522216796875,0.055328369140625
1761315172250567000,1.90156689453125,-0.9673309326171875,-0.2107696533203125,0.053466796875
1761315172260613000,1.911613037109375,-0.960693359375,-0.20953369140625,0.0517425537109375
1761315172270660000,1.92166015625,-0.96148681640625,-0.2084808349609375,0.0527496337890625
1761315172280708400,1.931708251953125,-0.9636993408203125,-0.2069549560546875,0.0498046875
1761315172290755300,1.94175537109375,-0.9600677490234375,-0.2071685791015625,0.048431396484375
1761315172300803000,1.951802978515625,-0.96295166015625,-0.2093658447265625,0.050262451171875
1761315172310850000,1.96185009765625,-0.9681854248046875,-0.2086029052734375,0.0495758056640625
1761315172320898300,1.971898193359375,-0.96136474609375,-0.205291748046875,0.04486083984375
1761315172330945300,1.9819453125,-0.959014892578125,-0.2057342529296875,0.0468902587890625
1761315172340992300,1.9919921875,-0.9625244140625,-0.2092742919921875,0.0535888671875
1761315172351040000,2.0020400390625,-0.9589996337890625,-0.2085418701171875,0.0525054931640625
1761315172361087000,2.0120869140625,-0.9544219970703125,-0.2065277099609375,0.0509796142578125
1761315172371135200,2.02213525390625,-0.9605255126953125,-0.20550537109375,0.053802490234375
1761315172381182200,2.03218212890625,-0.958892822265625,-0.2062225341796875,0.055084228515625
1761315172391230200,2.042230224609375,-0.953643798828125,-0.204833984375,0.0535125732421875
1761315172401277200,2.052277099609375,-0.958709716796875,-0.2050628662109375,0.0537261962890625
1761315172411324200,2.06232421875,-0.9597625732421875,-0.2065582275390625,0.0516815185546875
1761315172421372200,2.0723720703125,-0.9579925537109375,-0.2080841064453125,0.0516357421875
1761315172431419100,2.082419189453125,-0.9663848876953125,-0.208709716796875,0.054718017578125
1761315172441467400,2.09246728515625,-0.9691925048828125,-0.2062225341796875,0.0487060546875
1761315172451514400,2.102514404296875,-0.9628448486328125,-0.204559326171875,0.045928955078125
1761315172461561000,2.11256103515625,-0.961761474609375,-0.2086944580078125,0.0491790771484375
1761315172471609000,2.122609130859375,-0.961517333984375,-0.2140045166015625,0.055694580078125
1761315172481656300,2.13265625,-0.958770751953125,-0.2152099609375,0.057830810546875
1761315172491704300,2.142704345703125,-0.96368408203125,-0.21221923828125,0.0537872314453125
1761315172501751300,2.152751220703125,-0.966278076171875,-0.2031707763671875,0.04632568359375
1761315172511799000,2.162799072265625,-0.96905517578125,-0.199493408203125,0.0433807373046875
1761315172521846300,2.17284619140625,-0.96685791015625,-0.2024993896484375,0.0471649169921875
1761315172531893200,2.182893310546875,-0.960723876953125,-0.2066192626953125,0.0519561767578125
1761315172541941200,2.192941162109375,-0.9557647705078125,-0.20806884765625,0.0540618896484375
1761315172551988200,2.20298828125,-0.9478912353515625,-0.20855712890625,0.0531005859375
1761315172562036200,2.2130361328125,-0.9443206787109375,-0.2087554931640625,0.05047607421875
1761315172572083200,2.223083251953125,-0.949615478515625,-0.20623779296875,0.046051025390625
1761315172582131200,2.233131103515625,-0.9579315185546875,-0.2041015625,0.041656494140625
1761315172592178200,2.24317822265625,-0.961456298828125,-0.20050048828125,0.035552978515625
1761315172602225400,2.253225341796875,-0.9648284912109375,-0.1988372802734375,0.0330810546875
1761315172612273200,2.263273193359375,-0.9705047607421875,-0.2007904052734375,0.036376953125
1761315172622320000,2.273320068359375,-0.9769439697265625,-0.205169677734375,0.04248046875
1761315172632368000,2.2833681640625,-0.9834442138671875,-0.2061920166015625,0.04705810546875
1761315172642415400,2.293415283203125,-0.98712158203125,-0.2021026611328125,0.046478271484375
1761315172652463000,2.303463134765625,-0.980224609375,-0.2012176513671875,0.04547119140625
1761315172662510000,2.313510009765625,-0.977935791015625,-0.1999359130859375,0.047515869140625
1761315172672557000,2.32355712890625,-0.9747161865234375,-0.1986846923828125,0.051422119140625
1761315172682605300,2.333605224609375,-0.970367431640625,-0.2003173828125,0.0546112060546875
1761315172692652300,2.34365234375,-0.9663238525390625,-0.1993560791015625,0.0581817626953125
1761315172702700000,2.353699951171875,-0.9642181396484375,-0.1968994140625,0.0575408935546875
1761315172712747000,2.3637470703125,-0.9620819091796875,-0.19451904296875,0.0535125732421875
1761315172722794200,2.373794189453125,-0.95416259765625,-0.1956939697265625,0.050872802734375
1761315172732842200,2.38384228515625,-0.9517364501953125,-0.1990203857421875,0.0527801513671875
1761315172742889200,2.39388916015625,-0.9582977294921875,-0.2016754150390625,0.0535430908203125
1761315172752937200,2.403937255859375,-0.9583587646484375,-0.1997528076171875,0.0449676513671875
1761315172762984200,2.413984130859375,-0.95721435546875,-0.1995849609375,0.03948974609375
1761315172773032200,2.4240322265625,-0.96258544921875,-0.2029876708984375,0.0368499755859375
1761315172783079200,2.4340791015625,-0.96051025390625,-0.205078125,0.035736083984375
1761315172793126100,2.444126220703125,-0.9646453857421875,-0.2049407958984375,0.0400238037109375
1761315172803174100,2.454174072265625,-0.96759033203125,-0.2038116455078125,0.043121337890625
1761315172813221000,2.46422119140625,-0.9622650146484375,-0.204254150390625,0.0459747314453125
1761315172823269000,2.47426904296875,-0.9628753662109375,-0.203765869140625,0.04998779296875
1761315172833316000,2.484316162109375,-0.9631805419921875,-0.1989593505859375,0.0499267578125
1761315172843364400,2.4943642578125,-0.9632720947265625,-0.195068359375,0.04937744140625
1761315172853411000,2.5044111328125,-0.9641265869140625,-0.1944580078125,0.04937744140625
1761315172863458000,2.5144580078125,-0.9619903564453125,-0.1961822509765625,0.0520477294921875
1761315172873506300,2.52450634765625,-0.9651031494140625,-0.1957550048828125,0.0562896728515625
1761315172883553300,2.53455322265625,-0.967071533203125,-0.1954345703125,0.0579833984375
1761315172893601300,2.544601318359375,-0.9703369140625,-0.19012451171875,0.061553955078125
1761315172903648300,2.554648193359375,-0.971923828125,-0.1880950927734375,0.06304931640625
1761315172913696300,2.5646962890625,-0.969635009765625,-0.190826416015625,0.0644683837890625
1761315172923743200,2.5747431640625,-0.9680328369140625,-0.19775390625,0.0658721923828125
1761315172933790200,2.584790283203125,-0.96746826171875,-0.2032623291015625,0.06512451171875
1761315172943838200,2.594838134765625,-0.9656219482421875,-0.205841064453125,0.0612335205078125
1761315172953885400,2.604885498046875,-0.967681884765625,-0.2055206298828125,0.0567626953125
1761315172963933200,2.61493310546875,-0.97113037109375,-0.2049560546875,0.0531463623046875
1761315172973980200,2.624980224609375,-0.9705047607421875,-0.20452880859375,0.0472412109375
1761315172984027100,2.635027099609375,-0.968963623046875,-0.2028350830078125,0.0449371337890625
1761315172994075400,2.645075439453125,-0.9691925048828125,-0.203765869140625,0.0457916259765625
1761315173004122400,2.655122314453125,-0.9681854248046875,-0.2070465087890625,0.05291748046875
1761315173014170000,2.665170166015625,-0.968780517578125,-0.20697021484375,0.057342529296875
1761315173024217000,2.675217041015625,-0.9634857177734375,-0.2018280029296875,0.0524139404296875
1761315173034265300,2.685265380859375,-0.9571075439453125,-0.196685791015625,0.052825927734375
1761315173044312300,2.695312255859375,-0.9578857421875,-0.19647216796875,0.057464599609375
1761315173054359300,2.705359375,-0.9568939208984375,-0.1978759765625,0.0600128173828125
1761315173064407000,2.715406982421875,-0.9535369873046875,-0.1948394775390625,0.05731201171875
1761315173074454300,2.725454345703125,-0.960601806640625,-0.1935882568359375,0.0544281005859375
1761315173084502300,2.735502197265625,-0.9622955322265625,-0.193115234375,0.050933837890625
1761315173094549200,2.74554931640625,-0.96026611328125,-0.1934661865234375,0.0499267578125
1761315173104597000,2.755596923828125,-0.9628448486328125,-0.196624755859375,0.05303955078125
1761315173114644200,2.765644287109375,-0.964019775390625,-0.2001190185546875,0.053558349609375
1761315173124691200,2.775691162109375,-0.961883544921875,-0.2030181884765625,0.0489044189453125
1761315173134739200,2.7857392578125,-0.9631195068359375,-0.20477294921875,0.0438690185546875
1761315173144786200,2.7957861328125,-0.9608306884765625,-0.2054290771484375,0.0442657470703125
1761315173154834200,2.805834228515625,-0.9615020751953125,-0.20745849609375,0.0464324951171875
1761315173164881200,2.815881103515625,-0.9609527587890625,-0.2096099853515625,0.04925537109375
1761315173174929200,2.82592919921875,-0.9575653076171875,-0.2108154296875,0.051666259765625
1761315173184976100,2.83597607421875,-0.953948974609375,-0.20953369140625,0.05194091796875
1761315173195023400,2.8460234375,-0.954833984375,-0.2062530517578125,0.052520751953125
1761315173205071000,2.856071044921875,-0.9588470458984375,-0.202880859375,0.050506591796875
1761315173215118000,2.8661181640625,-0.95941162109375,-0.2007293701171875,0.049285888671875
1761315173225166300,2.876166259765625,-0.9620208740234375,-0.1999969482421875,0.0495758056640625
1761315173235213300,2.88621337890625,-0.9664154052734375,-0.2005157470703125,0.0529937744140625
1761315173245261300,2.89626123046875,-0.96502685546875,-0.2003631591796875,0.053741455078125
1761315173255308000,2.90630810546875,-0.9628753662109375,-0.19866943359375,0.05426025390625
1761315173265355800,2.916355712890625,-0.962646484375,-0.2010345458984375,0.05450439453125
1761315173275404000,2.926404052734375,-0.9607391357421875,-0.2016143798828125,0.053558349609375
1761315173285451000,2.936450927734375,-0.959442138671875,-0.201416015625,0.0501861572265625
1761315173295498800,2.946498779296875,-0.9652252197265625,-0.19970703125,0.045440673828125
1761315173305545700,2.956545654296875,-0.96942138671875,-0.1987457275390625,0.0414581298828125
1761315173315592700,2.9665927734375,-0.969329833984375,-0.1991424560546875,0.0390777587890625
1761315173325641000,2.976640869140625,-0.972930908203125,-0.2018585205078125,0.040283203125
1761315173335688000,2.98668798828125,-0.975494384765625,-0.2057037353515625,0.0423583984375
1761315173345735700,2.996735595703125,-0.9728851318359375,-0.20989990234375,0.0459442138671875
1761315173355783000,3.006782958984375,-0.9705657958984375,-0.2120819091796875,0.0474090576171875
1761315173365831000,3.016830810546875,-0.9674835205078125,-0.2100067138671875,0.046600341796875
1761315173375878000,3.0268779296875,-0.962738037109375,-0.207733154296875,0.0463409423828125
1761315173385924900,3.0369248046875,-0.9593048095703125,-0.205718994140625,0.0472869873046875
1761315173395972900,3.046972900390625,-0.9610137939453125,-0.2032470703125,0.04852294921875
1761315173406019800,3.057019775390625,-0.9624176025390625,-0.199676513671875,0.048248291015625
1761315173416067800,3.06706787109375,-0.962799072265625,-0.1978759765625,0.0487213134765625
1761315173426114800,3.07711474609375,-0.9643096923828125,-0.1987457275390625,0.04998779296875
1761315173436163000,3.0871630859375,-0.9673309326171875,-0.1973114013671875,0.05303955078125
1761315173446209800,3.097209716796875,-0.9647064208984375,-0.1966094970703125,0.052703857421875
1761315173456256800,3.1072568359375,-0.96527099609375,-0.195037841796875,0.048309326171875
1761315173466304800,3.1173046875,-0.9664306640625,-0.1977996826171875,0.046417236328125
1761315173476352000,3.12735205078125,-0.9657440185546875,-0.202972412109375,0.0460357666015625
1761315173486400000,3.13739990234375,-0.9673614501953125,-0.20794677734375,0.0498199462890625
1761315173496446700,3.14744677734375,-0.96697998046875,-0.2078399658203125,0.051971435546875
1761315173506493700,3.15749365234375,-0.96099853515625,-0.20758056640625,0.0485687255859375
1761315173516542000,3.1675419921875,-0.9606170654296875,-0.205718994140625,0.0475311279296875
1761315173526589000,3.1775888671875,-0.964996337890625,-0.2036895751953125,0.05084228515625
1761315173536637000,3.187636962890625,-0.9693450927734375,-0.200897216796875,0.0497283935546875
1761315173546684000,3.197683837890625,-0.9672698974609375,-0.1988525390625,0.04669189453125
1761315173556732000,3.20773193359375,-0.965850830078125,-0.197601318359375,0.0465850830078125
1761315173566779000,3.21777880859375,-0.96954345703125,-0.1982421875,0.0489044189453125
1761315173576825900,3.227825927734375,-0.9694061279296875,-0.1980743408203125,0.050506591796875
1761315173586873900,3.237873779296875,-0.9653167724609375,-0.1986083984375,0.052154541015625
1761315173596921000,3.247921142578125,-0.9683074951171875,-0.2004852294921875,0.0542755126953125
1761315173606968800,3.25796875,-0.97015380859375,-0.2008514404296875,0.05218505859375
1761315173617015800,3.268015869140625,-0.9669342041015625,-0.1996002197265625,0.0491485595703125
1761315173627063800,3.278063720703125,-0.965240478515625,-0.2011871337890625,0.0500640869140625
1761315173637111000,3.288111083984375,-0.958709716796875,-0.2047576904296875,0.052276611328125
1761315173647158000,3.298157958984375,-0.959564208984375,-0.2059783935546875,0.0522308349609375
1761315173657205800,3.308205810546875,-0.960357666015625,-0.2038116455078125,0.0494537353515625
1761315173667252700,3.318252685546875,-0.9586944580078125,-0.2049102783203125,0.046875
1761315173677301000,3.328301025390625,-0.9619903564453125,-0.2063140869140625,0.048492431640625
1761315173687348000,3.338347900390625,-0.96490478515625,-0.2044677734375,0.04766845703125
1761315173697395700,3.348395751953125,-0.9649505615234375,-0.2019195556640625,0.04522705078125
1761315173707442700,3.358442626953125,-0.9626922607421875,-0.201385498046875,0.04595947265625
1761315173717490000,3.368489990234375,-0.9615936279296875,-0.2026824951171875,0.0488433837890625
1761315173727538000,3.378537841796875,-0.9575958251953125,-0.2025909423828125,0.0486297607421875
1761315173737585000,3.3885849609375,-0.9539794921875,-0.202056884765625,0.0504608154296875
1761315173747633000,3.3986328125,-0.95159912109375,-0.201141357421875,0.0531158447265625
1761315173757679900,3.408679931640625,-0.9512481689453125,-0.19854736328125,0.0529937744140625
1761315173767726800,3.418726806640625,-0.9605255126953125,-0.1941070556640625,0.0473785400390625
1761315173777774800,3.42877490234375,-0.96527099609375,-0.1881561279296875,0.03955078125
1761315173787821800,3.43882177734375,-0.9685821533203125,-0.1897735595703125,0.0365142822265625
1761315173797869800,3.448869873046875,-0.969635009765625,-0.1962738037109375,0.036773681640625
1761315173807916800,3.458916748046875,-0.971649169921875,-0.202056884765625,0.0390777587890625
1761315173817964800,3.46896484375,-0.9701385498046875,-0.205108642578125,0.040374755859375
1761315173828011800,3.47901171875,-0.9689483642578125,-0.20648193359375,0.04156494140625
1761315173838059000,3.48905908203125,-0.9701385498046875,-0.205535888671875,0.0435638427734375
1761315173848106800,3.499106689453125,-0.968170166015625,-0.200714111328125,0.04376220703125
1761315173858153700,3.50915380859375,-0.9654083251953125,-0.1984710693359375,0.0441131591796875
1761315173868202000,3.519201904296875,-0.96533203125,-0.19989013671875,0.0469207763671875
1761315173878249000,3.5292490234375,-0.96478271484375,-0.2000732421875,0.0477447509765625
1761315173888296000,3.5392958984375,-0.9581146240234375,-0.1973724365234375,0.0488128662109375
1761315173898343700,3.54934375,-0.9607391357421875,-0.196441650390625,0.0476531982421875
1761315173908390700,3.559390625,-0.9678802490234375,-0.1962432861328125,0.0478973388671875
1761315173918439000,3.56943896484375,-0.9671478271484375,-0.1958160400390625,0.047698974609375
1761315173928486000,3.57948583984375,-0.96685791015625,-0.1966400146484375,0.0490264892578125
1761315173938534000,3.589533935546875,-0.9659423828125,-0.1984100341796875,0.049560546875
1761315173948580900,3.599580810546875,-0.9675750732421875,-0.1998138427734375,0.050750732421875
1761315173958627800,3.6096279296875,-0.9667510986328125,-0.200836181640625,0.047271728515625
1761315173968675800,3.61967578125,-0.962432861328125,-0.1997833251953125,0.0441741943359375
1761315173978722800,3.629722900390625,-0.9656219482421875,-0.201751708984375,0.04437255859375
1761315173988771000,3.63977099609375,-0.9658050537109375,-0.2038116455078125,0.043609619140625
1761315173998818000,3.649818115234375,-0.964935302734375,-0.20440673828125,0.04144287109375
1761315174008864800,3.65986474609375,-0.9599761962890625,-0.2037811279296875,0.042022705078125
1761315174018912800,3.669912841796875,-0.95953369140625,-0.2049102783203125,0.0457611083984375
1761315174028959700,3.679959716796875,-0.9544219970703125,-0.20526123046875,0.0465545654296875
1761315174039008000,3.690008056640625,-0.9530029296875,-0.2021636962890625,0.047332763671875
1761315174049055000,3.700054931640625,-0.952392578125,-0.1968994140625,0.04803466796875
1761315174059102700,3.710102783203125,-0.952850341796875,-0.1943817138671875,0.0485687255859375
1761315174069150000,3.72014990234375,-0.9515380859375,-0.1937713623046875,0.0480499267578125
1761315174079197000,3.730197021484375,-0.9496917724609375,-0.1934661865234375,0.0462188720703125
1761315174089245000,3.740244873046875,-0.9517364501953125,-0.1958160400390625,0.0471038818359375
1761315174099292000,3.7502919921875,-0.95343017578125,-0.198699951171875,0.04864501953125
1761315174109340000,3.76033984375,-0.960540771484375,-0.1977691650390625,0.0471038818359375
1761315174119387000,3.770386962890625,-0.9693450927734375,-0.1971282958984375,0.045440673828125
1761315174129433900,3.780433837890625,-0.9761505126953125,-0.1970672607421875,0.044677734375
1761315174139481900,3.79048193359375,-0.9832916259765625,-0.1944732666015625,0.0460205078125
1761315174149529000,3.800529052734375,-0.985260009765625,-0.192413330078125,0.046630859375
1761315174159576800,3.810576904296875,-0.9810333251953125,-0.191619873046875,0.047088623046875
1761315174169623800,3.820623779296875,-0.9802703857421875,-0.1936492919921875,0.05255126953125
1761315174179671800,3.830671875,-0.982147216796875,-0.194427490234375,0.05621337890625
1761315174189719000,3.840718994140625,-0.975433349609375,-0.19488525390625,0.057159423828125
1761315174199766000,3.85076611328125,-0.969268798828125,-0.1942291259765625,0.055419921875
1761315174209813800,3.860813720703125,-0.9672393798828125,-0.1928253173828125,0.056396484375
1761315174219860700,3.87086083984375,-0.9703369140625,-0.1938018798828125,0.0578765869140625
1761315174229909000,3.880908935546875,-0.9671783447265625,-0.1935272216796875,0.05413818359375
1761315174239956000,3.8909560546875,-0.962738037109375,-0.1920013427734375,0.0494842529296875
1761315174250003000,3.9010029296875,-0.966583251953125,-0.1944732666015625,0.050140380859375
1761315174260050400,3.911050537109375,-0.9703826904296875,-0.1961822509765625,0.0510711669921875
1761315174270097700,3.92109765625,-0.972930908203125,-0.19635009765625,0.0478668212890625
1761315174280145700,3.931145751953125,-0.9695892333984375,-0.1953887939453125,0.0454864501953125
1761315174290192600,3.941192626953125,-0.968505859375,-0.1959991455078125,0.045379638671875
1761315174300240600,3.95124072265625,-0.967803955078125,-0.197601318359375,0.0468902587890625
1761315174310287600,3.96128759765625,-0.96826171875,-0.1976318359375,0.0472869873046875
1761315174320334600,3.97133447265625,-0.965606689453125,-0.19781494140625,0.0482940673828125
1761315174330382600,3.981382568359375,-0.9644622802734375,-0.19610595703125,0.046722412109375
1761315174340429600,3.9914296875,-0.9622955322265625,-0.1944427490234375,0.0437469482421875
1761315174350477600,4.0014775390625,-0.9633026123046875,-0.1938018798828125,0.04296875
1761315174360524500,4.011524658203125,-0.9620361328125,-0.1920928955078125,0.0430908203125
1761315174370571500,4.021571533203125,-0.9605560302734375,-0.19122314453125,0.044952392578125
1761315174380619500,4.03161962890625,-0.9612579345703125,-0.191162109375,0.0481414794921875
1761315174390666800,4.041666748046875,-0.9625244140625,-0.1913604736328125,0.0485992431640625
1761315174400714800,4.05171484375,-0.9630889892578125,-0.189666748046875,0.04705810546875
1761315174410761500,4.061761474609375,-0.9654998779296875,-0.189208984375,0.0449981689453125
1761315174420809500,4.0718095703125,-0.9664306640625,-0.1891021728515625,0.0452880859375
1761315174430856700,4.081856689453125,-0.9674224853515625,-0.191162109375,0.047576904296875
1761315174440903700,4.091903564453125,-0.9666900634765625,-0.1948394775390625,0.051605224609375
1761315174450951700,4.10195166015625,-0.9688873291015625,-0.193939208984375,0.05548095703125
1761315174460998700,4.11199853515625,-0.974151611328125,-0.1892242431640625,0.0565948486328125
1761315174471046700,4.122046630859375,-0.9733428955078125,-0.1877288818359375,0.0556182861328125
1761315174481093600,4.13209375,-0.9653167724609375,-0.1871795654296875,0.05084228515625
1761315174491140600,4.142140625,-0.968292236328125,-0.1867828369140625,0.0513763427734375
1761315174501188600,4.152188720703125,-0.97259521484375,-0.185638427734375,0.051971435546875
1761315174511235800,4.16223583984375,-0.9676361083984375,-0.188568115234375,0.0482635498046875
1761315174521283600,4.17228369140625,-0.9660491943359375,-0.1929931640625,0.0476837158203125
1761315174531330600,4.18233056640625,-0.968719482421875,-0.1964569091796875,0.048858642578125
1761315174541377500,4.19237744140625,-0.962982177734375,-0.1977081298828125,0.0482940673828125
1761315174551425800,4.20242578125,-0.957305908203125,-0.196319580078125,0.0451202392578125
1761315174561472800,4.21247265625,-0.9547882080078125,-0.1951141357421875,0.04119873046875
1761315174571520500,4.2225205078125,-0.9571380615234375,-0.1953277587890625,0.041015625
1761315174581567500,4.2325673828125,-0.96044921875,-0.1938323974609375,0.039886474609375
1761315174591615700,4.24261572265625,-0.96209716796875,-0.190277099609375,0.0363616943359375
1761315174601662700,4.252662841796875,-0.9594573974609375,-0.1885223388671875,0.0331573486328125
1761315174611709700,4.262709716796875,-0.9629364013671875,-0.18524169921875,0.029754638671875
1761315174621757400,4.27275732421875,-0.96832275390625,-0.18475341796875,0.032501220703125
1761315174631804700,4.2828046875,-0.96905517578125,-0.185455322265625,0.03680419921875
1761315174641852700,4.292852783203125,-0.97119140625,-0.1869354248046875,0.0394744873046875
1761315174651899600,4.302899658203125,-0.9691009521484375,-0.1871185302734375,0.039794921875
1761315174661946600,4.312946533203125,-0.9696807861328125,-0.187103271484375,0.0430145263671875
1761315174671994600,4.32299462890625,-0.9683380126953125,-0.18707275390625,0.0446014404296875
1761315174682041600,4.33304150390625,-0.96337890625,-0.187744140625,0.045013427734375
1761315174692089600,4.343089599609375,-0.9641571044921875,-0.1876983642578125,0.046417236328125
1761315174702136600,4.353136474609375,-0.963714599609375,-0.189544677734375,0.0488739013671875
1761315174712183800,4.363183837890625,-0.9635162353515625,-0.1919097900390625,0.049957275390625
1761315174722231600,4.3732314453125,-0.96588134765625,-0.19281005859375,0.050079345703125
1761315174732278500,4.383278564453125,-0.9678802490234375,-0.19232177734375,0.050933837890625
1761315174742326800,4.393326904296875,-0.9692535400390625,-0.1939697265625,0.0508880615234375
1761315174752373800,4.403373779296875,-0.9716644287109375,-0.1932220458984375,0.048919677734375
1761315174762421500,4.41342138671875,-0.9686737060546875,-0.189605712890625,0.0486297607421875
1761315174772468500,4.423468505859375,-0.9720611572265625,-0.1911468505859375,0.05401611328125
1761315174782515500,4.433515380859375,-0.976348876953125,-0.193939208984375,0.0602569580078125
1761315174792563700,4.443563720703125,-0.9769439697265625,-0.190673828125,0.06109619140625
1761315174802610700,4.453610595703125,-0.9766693115234375,-0.1870269775390625,0.057159423828125
1761315174812658400,4.463658447265625,-0.97735595703125,-0.1827392578125,0.054107666015625
1761315174822705400,4.473705322265625,-0.978118896484375,-0.1815032958984375,0.0552520751953125
1761315174832752600,4.483752685546875,-0.9771728515625,-0.183013916015625,0.0553436279296875
1761315174842800600,4.493800537109375,-0.9764556884765625,-0.183929443359375,0.05419921875
1761315174852847600,4.50384765625,-0.972808837890625,-0.185089111328125,0.0557861328125
1761315174862895600,4.5138955078125,-0.9690399169921875,-0.1864471435546875,0.05206298828125
1761315174872942600,4.523942626953125,-0.9663238525390625,-0.1866302490234375,0.0495452880859375
1761315174882989600,4.533989501953125,-0.9614715576171875,-0.1872100830078125,0.04693603515625
1761315174893037600,4.54403759765625,-0.959228515625,-0.1888580322265625,0.04473876953125
1761315174903084500,4.55408447265625,-0.9582366943359375,-0.1917877197265625,0.0430450439453125
1761315174913132500,4.564132568359375,-0.9576873779296875,-0.192718505859375,0.0420989990234375
1761315174923179500,4.574179443359375,-0.9599151611328125,-0.1929473876953125,0.0391387939453125
1761315174933227500,4.5842275390625,-0.9605255126953125,-0.1922607421875,0.03509521484375
1761315174943274800,4.594274658203125,-0.961273193359375,-0.1925811767578125,0.0335845947265625
1761315174953321700,4.60432177734375,-0.9635009765625,-0.1934967041015625,0.0354156494140625
1761315174963369700,4.61436962890625,-0.96514892578125,-0.1930694580078125,0.039031982421875
1761315174973416400,4.62441650390625,-0.96258544921875,-0.1935577392578125,0.0414886474609375
1761315174983464700,4.634464599609375,-0.963592529296875,-0.19146728515625,0.044403076171875
1761315174993511700,4.64451171875,-0.9676055908203125,-0.188232421875,0.047607421875
1761315175003558700,4.65455859375,-0.9701690673828125,-0.184234619140625,0.0482177734375
1761315175013606700,4.664606689453125,-0.974212646484375,-0.1805419921875,0.04656982421875
1761315175023653600,4.674653564453125,-0.9759368896484375,-0.1829833984375,0.0479278564453125
1761315175033701600,4.68470166015625,-0.9795989990234375,-0.186004638671875,0.049224853515625
1761315175043748600,4.69474853515625,-0.983642578125,-0.188201904296875,0.0466461181640625
1761315175053795600,4.704795654296875,-0.9870452880859375,-0.1895904541015625,0.044158935546875
1761315175063843800,4.71484375,-0.9786376953125,-0.191680908203125,0.0471954345703125
1761315175073890600,4.724890625,-0.9809722900390625,-0.1941070556640625,0.0480804443359375
1761315175083938600,4.7349384765625,-0.9729156494140625,-0.1954498291015625,0.0486907958984375
1761315175093985500,4.744985595703125,-0.96484375,-0.1948089599609375,0.04815673828125
1761315175104032500,4.755032470703125,-0.9620361328125,-0.1965484619140625,0.0478057861328125
1761315175114080800,4.765080810546875,-0.9575653076171875,-0.194580078125,0.0463104248046875
1761315175124127700,4.775127685546875,-0.9531707763671875,-0.19268798828125,0.0467681884765625
1761315175134175500,4.785175537109375,-0.9552154541015625,-0.1927032470703125,0.047027587890625
1761315175144222700,4.79522265625,-0.9561004638671875,-0.191650390625,0.0466461181640625
1761315175154270700,4.805270751953125,-0.95806884765625,-0.1888885498046875,0.04705810546875
1761315175164317700,4.815317626953125,-0.962982177734375,-0.188751220703125,0.0455780029296875
1761315175174364700,4.82536474609375,-0.9614410400390625,-0.19036865234375,0.044281005859375
1761315175184412700,4.83541259765625,-0.96319580078125,-0.1921539306640625,0.04443359375
1761315175194459600,4.845459716796875,-0.9634857177734375,-0.1929473876953125,0.0433807373046875
1761315175204507600,4.855507568359375,-0.961669921875,-0.1935577392578125,0.04486083984375
1761315175214551800,4.8655517578125,-0.96484375,-0.1949310302734375,0.0483551025390625
1761315175224599600,4.875599609375,-0.9662933349609375,-0.1948699951171875,0.04864501953125
1761315175234646500,4.885646484375,-0.96417236328125,-0.194000244140625,0.048095703125
1761315175244693500,4.895693603515625,-0.964111328125,-0.1935882568359375,0.04876708984375
1761315175254741800,4.90574169921875,-0.965301513671875,-0.1931304931640625,0.046722412109375
1761315175264789200,4.915789306640625,-0.9669647216796875,-0.1920928955078125,0.043792724609375
1761315175274837200,4.925837158203125,-0.9681396484375,-0.191131591796875,0.046234130859375
1761315175284884500,4.935884521484375,-0.969085693359375,-0.19219970703125,0.0503692626953125
1761315175294931500,4.945931396484375,-0.9661407470703125,-0.193695068359375,0.0499725341796875
1761315175304979200,4.955979248046875,-0.966888427734375,-0.192626953125,0.0489349365234375
1761315175315026200,4.966026123046875,-0.96649169921875,-0.1932373046875,0.0500335693359375
1761315175325074400,4.976074462890625,-0.9679718017578125,-0.1946868896484375,0.0495758056640625
1761315175335121400,4.986121337890625,-0.9677276611328125,-0.195343017578125,0.0479278564453125
1761315175345168400,4.99616845703125,-0.965576171875,-0.1945953369140625,0.044708251953125
1761315175355216400,5.00621630859375,-0.966278076171875,-0.1957550048828125,0.0431365966796875
1761315175365263400,5.016263427734375,-0.9650726318359375,-0.1971282958984375,0.04315185546875
1761315175375311400,5.026311279296875,-0.963409423828125,-0.1974029541015625,0.0418701171875
1761315175385358300,5.0363583984375,-0.960784912109375,-0.1969146728515625,0.04132080078125
1761315175395405300,5.0464052734375,-0.96002197265625,-0.1959228515625,0.042724609375
1761315175405453600,5.05645361328125,-0.958953857421875,-0.19476318359375,0.0435943603515625
1761315175415500300,5.066500244140625,-0.9613189697265625,-0.1945648193359375,0.0444488525390625
1761315175425548300,5.07654833984375,-0.960906982421875,-0.194488525390625,0.0467529296875
1761315175435595300,5.08659521484375,-0.96026611328125,-0.194000244140625,0.0468292236328125
1761315175445643500,5.0966435546875,-0.9626922607421875,-0.19183349609375,0.0476837158203125
1761315175455690500,5.1066904296875,-0.9653778076171875,-0.1919708251953125,0.048309326171875
1761315175465737200,5.1167373046875,-0.9664154052734375,-0.1919403076171875,0.0496978759765625
1761315175475785200,5.12678515625,-0.9710845947265625,-0.191497802734375,0.05169677734375
1761315175485832400,5.13683251953125,-0.9732666015625,-0.191497802734375,0.05401611328125
1761315175495880400,5.14688037109375,-0.9695281982421875,-0.192108154296875,0.0549774169921875
1761315175505927400,5.156927490234375,-0.968505859375,-0.1917724609375,0.0524139404296875
1761315175515974400,5.166974365234375,-0.970001220703125,-0.1895294189453125,0.0531005859375
1761315175526022400,5.1770224609375,-0.9680938720703125,-0.1887054443359375,0.050079345703125
1761315175536069400,5.1870693359375,-0.9629364013671875,-0.1912689208984375,0.0452728271484375
1761315175546117400,5.197117431640625,-0.9629364013671875,-0.1948394775390625,0.0453338623046875
1761315175556164400,5.207164306640625,-0.9647216796875,-0.1978912353515625,0.0467987060546875
1761315175566211600,5.217211669921875,-0.9640960693359375,-0.19964599609375,0.0448455810546875
1761315175576259300,5.22725927734375,-0.96417236328125,-0.1990509033203125,0.041656494140625
1761315175586306300,5.237306396484375,-0.96099853515625,-0.1973419189453125,0.0404510498046875
1761315175596354600,5.2473544921875,-0.9589996337890625,-0.196746826171875,0.0429534912109375
1761315175606401500,5.257401611328125,-0.960723876953125,-0.1978302001953125,0.0457611083984375
1761315175616448500,5.267448486328125,-0.9557342529296875,-0.1978759765625,0.0468292236328125
1761315175626496300,5.277496337890625,-0.957244873046875,-0.1972198486328125,0.047821044921875
1761315175636543200,5.287543212890625,-0.9621124267578125,-0.1950531005859375,0.0485076904296875
1761315175646591500,5.297591552734375,-0.964935302734375,-0.1911773681640625,0.0464630126953125
1761315175656638500,5.307638427734375,-0.96759033203125,-0.1889190673828125,0.0436248779296875
1761315175666685400,5.317685546875,-0.972412109375,-0.1890869140625,0.0438232421875
1761315175676733200,5.327733154296875,-0.9737091064453125,-0.191253662109375,0.0441741943359375
1761315175686780400,5.337780517578125,-0.9735565185546875,-0.1927642822265625,0.0443115234375
1761315175696828400,5.347828369140625,-0.97210693359375,-0.1930389404296875,0.0438690185546875
1761315175706875400,5.35787548828125,-0.9686737060546875,-0.193328857421875,0.043304443359375
1761315175716922400,5.36792236328125,-0.9665069580078125,-0.1950225830078125,0.044403076171875
1761315175726970400,5.377970458984375,-0.9636077880859375,-0.1953125,0.043487548828125
1761315175737017300,5.388017333984375,-0.961761474609375,-0.19598388671875,0.0450439453125
1761315175747065300,5.3980654296875,-0.9598236083984375,-0.1949462890625,0.048614501953125
1761315175757112300,5.4081123046875,-0.9561004638671875,-0.191436767578125,0.0487213134765625
1761315175767159600,5.41815966796875,-0.9563446044921875,-0.1886749267578125,0.0494232177734375
1761315175777207300,5.428207275390625,-0.955535888671875,-0.18572998046875,0.0498809814453125
1761315175787254300,5.438254150390625,-0.9567108154296875,-0.182891845703125,0.0496063232421875
1761315175797302500,5.448302490234375,-0.957916259765625,-0.1821441650390625,0.0465240478515625
1761315175807349500,5.458349609375,-0.9649658203125,-0.182464599609375,0.04388427734375
1761315175817398300,5.468398193359375,-0.9767608642578125,-0.181243896484375,0.044036865234375
1761315175827446500,5.478446533203125,-0.9818878173828125,-0.1806793212890625,0.0478515625
1761315175837493500,5.488493408203125,-0.9799041748046875,-0.1820526123046875,0.0480499267578125
1761315175847540500,5.49854052734375,-0.9746856689453125,-0.186370849609375,0.05023193359375
1761315175857588200,5.508588134765625,-0.9785308837890625,-0.191558837890625,0.058319091796875
1761315175867635500,5.518635498046875,-0.980010986328125,-0.19561767578125,0.0599822998046875
1761315175877683500,5.528683349609375,-0.9701385498046875,-0.1946258544921875,0.0543670654296875
1761315175887730400,5.53873046875,-0.9701995849609375,-0.1926422119140625,0.053497314453125
1761315175897778200,5.548778076171875,-0.9698486328125,-0.193084716796875,0.0544281005859375
1761315175907825400,5.558825439453125,-0.9654998779296875,-0.194366455078125,0.0510101318359375
1761315175917872400,5.568872314453125,-0.96337890625,-0.194915771484375,0.0507049560546875
1761315175927920400,5.57892041015625,-0.9651031494140625,-0.19757080078125,0.0550994873046875
1761315175937967400,5.58896728515625,-0.96533203125,-0.1997222900390625,0.0550994873046875
1761315175948015400,5.599015380859375,-0.9629669189453125,-0.2008514404296875,0.0526275634765625
1761315175958062300,5.609062255859375,-0.9584808349609375,-0.2013397216796875,0.05078125
1761315175968109300,5.619109375,-0.9592742919921875,-0.2015228271484375,0.0519561767578125
1761315175978157300,5.6291572265625,-0.9622039794921875,-0.1999053955078125,0.0518951416015625
1761315175988204500,5.63920458984375,-0.963409423828125,-0.1983642578125,0.0519256591796875
1761315175998252300,5.649252197265625,-0.9679107666015625,-0.19744873046875,0.0516357421875
1761315176008299300,5.65929931640625,-0.974212646484375,-0.1943359375,0.052276611328125
1761315176018346200,5.66934619140625,-0.9751129150390625,-0.1900787353515625,0.0504150390625
1761315176028394500,5.67939453125,-0.9737701416015625,-0.1874847412109375,0.0506134033203125
1761315176038441500,5.68944140625,-0.9741973876953125,-0.188629150390625,0.05157470703125
1761315176048489200,5.6994892578125,-0.9730224609375,-0.1895751953125,0.0535430908203125
1761315176058536200,5.7095361328125,-0.972015380859375,-0.1903533935546875,0.0529937744140625
1761315176068583400,5.71958349609375,-0.9678497314453125,-0.1905670166015625,0.0518646240234375
1761315176078631400,5.72963134765625,-0.964385986328125,-0.1920013427734375,0.0518798828125
1761315176088678400,5.739678466796875,-0.9629058837890625,-0.194122314453125,0.0526275634765625
1761315176098726400,5.749726318359375,-0.9607086181640625,-0.1947479248046875,0.0520782470703125
1761315176108773400,5.7597734375,-0.9608001708984375,-0.194122314453125,0.0501556396484375
1761315176118820400,5.7698203125,-0.9645233154296875,-0.1929473876953125,0.0487060546875
1761315176128868400,5.779868408203125,-0.9688568115234375,-0.1916961669921875,0.04620361328125
1761315176138915300,5.789915283203125,-0.9683837890625,-0.1937255859375,0.0440673828125
1761315176148963300,5.79996337890625,-0.9683380126953125,-0.1941070556640625,0.042999267578125
1761315176159010300,5.81001025390625,-0.9685211181640625,-0.194183349609375,0.041656494140625
1761315176169057300,5.820057373046875,-0.9700775146484375,-0.195587158203125,0.0411834716796875
1761315176179105300,5.830105224609375,-0.9696807861328125,-0.199371337890625,0.0399932861328125
1761315176189152500,5.840152587890625,-0.9672698974609375,-0.201202392578125,0.0381622314453125
1761315176199200500,5.850200439453125,-0.968170166015625,-0.201507568359375,0.0403594970703125
1761315176209247200,5.860247314453125,-0.9668121337890625,-0.2025909423828125,0.040283203125
1761315176219294200,5.870294189453125,-0.9639739990234375,-0.201263427734375,0.0374603271484375
1761315176229342500,5.880342529296875,-0.9599761962890625,-0.199737548828125,0.0377197265625
1761315176239389400,5.890389404296875,-0.960693359375,-0.1983642578125,0.04217529296875
1761315176249437400,5.9004375,-0.9659271240234375,-0.1994171142578125,0.04449462890625
1761315176259484400,5.910484375,-0.9694671630859375,-0.1977081298828125,0.04388427734375
1761315176269531000,5.92053076171875,-0.969207763671875,-0.194183349609375,0.0431671142578125
1761315176279578600,5.93057861328125,-0.9687042236328125,-0.1938323974609375,0.042816162109375
1761315176289625600,5.94062548828125,-0.966766357421875,-0.1954498291015625,0.0429534912109375
1761315176299673900,5.950673828125,-0.961639404296875,-0.1975555419921875,0.0442657470703125
1761315176309720800,5.960720947265625,-0.9581146240234375,-0.1996612548828125,0.046356201171875
1761315176319767800,5.970767822265625,-0.9579620361328125,-0.2018280029296875,0.0507659912109375
1761315176329815600,5.980815673828125,-0.9607391357421875,-0.2035064697265625,0.053619384765625
1761315176339862500,5.990862548828125,-0.960968017578125,-0.2017669677734375,0.05352783203125
1761315176349910800,6.000910888671875,-0.958984375,-0.1988525390625,0.05328369140625
1761315176359957800,6.010957763671875,-0.9588775634765625,-0.197357177734375,0.054046630859375
1761315176370004700,6.021004638671875,-0.959381103515625,-0.1958160400390625,0.053436279296875
1761315176380052700,6.031052734375,-0.9599609375,-0.196044921875,0.0542449951171875
1761315176390099700,6.041099609375,-0.96246337890625,-0.1961822509765625,0.055450439453125
1761315176400147700,6.051147705078125,-0.96490478515625,-0.195709228515625,0.0536346435546875
1761315176410194700,6.061194580078125,-0.9665069580078125,-0.194976806640625,0.0527496337890625
1761315176420241700,6.07124169921875,-0.9679107666015625,-0.1925811767578125,0.050933837890625
1761315176430289700,6.08128955078125,-0.9670257568359375,-0.1932220458984375,0.0490264892578125
1761315176440336600,6.091336669921875,-0.969757080078125,-0.19610595703125,0.049224853515625
1761315176450384600,6.101384521484375,-0.9694976806640625,-0.2005615234375,0.0488739013671875
1761315176460432000,6.111431884765625,-0.9648895263671875,-0.203094482421875,0.0481109619140625
1761315176470478800,6.121478759765625,-0.9610748291015625,-0.2044830322265625,0.0459747314453125
1761315176480526600,6.131526611328125,-0.96185302734375,-0.2041473388671875,0.04449462890625
1761315176490573600,6.141573486328125,-0.9617156982421875,-0.202972412109375,0.0428924560546875
1761315176500621800,6.151621826171875,-0.96563720703125,-0.2016754150390625,0.04400634765625
1761315176510668800,6.161668701171875,-0.9717559814453125,-0.1999359130859375,0.0455322265625
1761315176520715800,6.1717158203125,-0.9710693359375,-0.1991424560546875,0.044097900390625
1761315176530763500,6.181763427734375,-0.975006103515625,-0.1996612548828125,0.0434722900390625
1761315176540810500,6.191810546875,-0.97491455078125,-0.199554443359375,0.043121337890625
1761315176550857700,6.201857666015625,-0.9743499755859375,-0.198486328125,0.043121337890625
1761315176560905700,6.21190576171875,-0.972320556640625,-0.198699951171875,0.04296875
1761315176570952700,6.22195263671875,-0.97344970703125,-0.2017974853515625,0.0419921875
1761315176581000700,6.232000732421875,-0.968963623046875,-0.203216552734375,0.0420684814453125
1761315176591047700,6.242047607421875,-0.96600341796875,-0.20477294921875,0.0433502197265625
1761315176601094700,6.2520947265625,-0.9644622802734375,-0.20623779296875,0.0443878173828125
1761315176611142700,6.262142578125,-0.959075927734375,-0.2051239013671875,0.0440673828125
1761315176621189600,6.272189697265625,-0.9527587890625,-0.20751953125,0.04473876953125
1761315176631237600,6.282237548828125,-0.9523162841796875,-0.2092742919921875,0.0477447509765625
1761315176641284600,6.29228466796875,-0.9565887451171875,-0.2098236083984375,0.0492095947265625
1761315176651331600,6.30233154296875,-0.95648193359375,-0.208587646484375,0.0502777099609375
1761315176661379800,6.3123798828125,-0.9573211669921875,-0.20477294921875,0.0520172119140625
1761315176671426800,6.3224267578125,-0.9592742919921875,-0.202178955078125,0.0547027587890625
1761315176681474600,6.332474609375,-0.96112060546875,-0.200653076171875,0.056427001953125
1761315176691521500,6.342521484375,-0.9594268798828125,-0.2001953125,0.056427001953125
1761315176701568500,6.352568603515625,-0.9630584716796875,-0.2003326416015625,0.0584259033203125
1761315176711616800,6.36261669921875,-0.9676971435546875,-0.20098876953125,0.0577545166015625
1761315176721663700,6.372663818359375,-0.9666595458984375,-0.199676513671875,0.055908203125
1761315176731711700,6.382711669921875,-0.9690704345703125,-0.1997833251953125,0.053375244140625
1761315176741758500,6.392758544921875,-0.9666900634765625,-0.2014007568359375,0.049041748046875
1761315176751805700,6.4028056640625,-0.965179443359375,-0.202911376953125,0.0494232177734375
1761315176761853700,6.412853759765625,-0.970306396484375,-0.2055816650390625,0.0527496337890625
1761315176771900700,6.422900634765625,-0.970306396484375,-0.205535888671875,0.050811767578125
1761315176781949000,6.432948974609375,-0.965423583984375,-0.204681396484375,0.048309326171875
1761315176791995600,6.44299560546875,-0.96124267578125,-0.20672607421875,0.04693603515625
1761315176802042600,6.453042724609375,-0.9620361328125,-0.209625244140625,0.0455474853515625
1761315176812090600,6.463090576171875,-0.960235595703125,-0.2103424072265625,0.0461578369140625
1761315176822137600,6.4731376953125,-0.9599456787109375,-0.2098846435546875,0.04559326171875
1761315176832185900,6.483185791015625,-0.9630126953125,-0.2067718505859375,0.0472564697265625
1761315176842232800,6.49323291015625,-0.9650421142578125,-0.202728271484375,0.0464935302734375
1761315176852279600,6.503279541015625,-0.966827392578125,-0.1990509033203125,0.0461578369140625
1761315176862327800,6.513327880859375,-0.9672698974609375,-0.1967926025390625,0.0471038818359375
1761315176872374800,6.523374755859375,-0.96728515625,-0.196075439453125,0.047698974609375
1761315176882422800,6.5334228515625,-0.964447021484375,-0.195709228515625,0.0483245849609375
1761315176892469800,6.5434697265625,-0.9659271240234375,-0.1985626220703125,0.0508575439453125
1761315176902516500,6.5535166015625,-0.9661865234375,-0.19964599609375,0.051025390625
1761315176912564700,6.563564697265625,-0.9629974365234375,-0.1991424560546875,0.049896240234375
1761315176922611700,6.57361181640625,-0.96331787109375,-0.1998748779296875,0.0487518310546875
1761315176932659700,6.58365966796875,-0.9621429443359375,-0.2012176513671875,0.043243408203125
1761315176942706700,6.593706787109375,-0.953125,-0.20013427734375,0.0390167236328125
1761315176952753700,6.603753662109375,-0.9547576904296875,-0.20159912109375,0.0418853759765625
1761315176962801700,6.6138017578125,-0.960357666015625,-0.205596923828125,0.0463409423828125
1761315176972848600,6.6238486328125,-0.960174560546875,-0.204437255859375,0.044830322265625
1761315176982897000,6.63389697265625,-0.960845947265625,-0.19842529296875,0.0417022705078125
1761315176992943900,6.64394384765625,-0.9596405029296875,-0.197662353515625,0.040863037109375
1761315177002990800,6.653990966796875,-0.9572601318359375,-0.1976318359375,0.0419464111328125
1761315177013038600,6.66403857421875,-0.957977294921875,-0.196014404296875,0.0455169677734375
1761315177023085600,6.67408544921875,-0.957275390625,-0.197967529296875,0.0499420166015625
1761315177033132800,6.6841328125,-0.962860107421875,-0.198822021484375,0.054229736328125
1761315177043180800,6.694180908203125,-0.96875,-0.19647216796875,0.0535888671875
1761315177053227800,6.704227783203125,-0.969970703125,-0.1919708251953125,0.052581787109375
1761315177063275800,6.71427587890625,-0.9750518798828125,-0.1915130615234375,0.05120849609375
1761315177073322800,6.72432275390625,-0.9748992919921875,-0.1943817138671875,0.04840087890625
1761315177083369700,6.73436962890625,-0.9717254638671875,-0.1947174072265625,0.046783447265625
1761315177093417700,6.744417724609375,-0.9696197509765625,-0.1980438232421875,0.0478515625
1761315177103464700,6.754464599609375,-0.971160888671875,-0.201812744140625,0.0496826171875
1761315177113512700,6.7645126953125,-0.9742431640625,-0.2018280029296875,0.0478668212890625
1761315177123559700,6.7745595703125,-0.9743499755859375,-0.1982269287109375,0.0456695556640625
1761315177133606700,6.784606689453125,-0.972381591796875,-0.1974029541015625,0.046051025390625
1761315177143654700,6.794654541015625,-0.972503662109375,-0.19781494140625,0.04864501953125
1761315177153702000,6.804701904296875,-0.9712982177734375,-0.1985626220703125,0.0509796142578125
1761315177163749600,6.81474951171875,-0.9654998779296875,-0.1969451904296875,0.0521240234375
1761315177173796600,6.824796630859375,-0.9676055908203125,-0.195770263671875,0.0553131103515625
1761315177183843600,6.834843505859375,-0.9644317626953125,-0.193756103515625,0.055084228515625
1761315177193891800,6.844891845703125,-0.95751953125,-0.190277099609375,0.0530853271484375
1761315177203938800,6.854938720703125,-0.9584503173828125,-0.1890411376953125,0.05364990234375
1761315177213986600,6.864986572265625,-0.96173095703125,-0.1904296875,0.0562286376953125
1761315177224033500,6.875033447265625,-0.958343505859375,-0.1913299560546875,0.055389404296875
1761315177234080800,6.885080810546875,-0.959075927734375,-0.191558837890625,0.055389404296875
1761315177244128800,6.895128662109375,-0.9618682861328125,-0.19366455078125,0.05462646484375
1761315177254175700,6.90517578125,-0.961456298828125,-0.1963958740234375,0.0533447265625
1761315177264223000,6.915222900390625,-0.9655914306640625,-0.1961517333984375,0.050933837890625
1761315177274270700,6.925270751953125,-0.96673583984375,-0.1951904296875,0.0467071533203125
1761315177284317700,6.935317626953125,-0.967559814453125,-0.1952972412109375,0.04766845703125
1761315177294365700,6.94536572265625,-0.9725189208984375,-0.1976165771484375,0.04901123046875
1761315177304413000,6.955412841796875,-0.970428466796875,-0.19866943359375,0.0502777099609375
1761315177314460000,6.9654599609375,-0.97088623046875,-0.19927978515625,0.051971435546875
1761315177324507600,6.975507568359375,-0.9715118408203125,-0.1984100341796875,0.050537109375
1761315177334554600,6.9855546875,-0.9685211181640625,-0.1961212158203125,0.050506591796875
1761315177344603000,6.995602783203125,-0.9698638916015625,-0.194366455078125,0.050933837890625
1761315177354649900,7.00564990234375,-0.9702911376953125,-0.19293212890625,0.0514068603515625
1761315177364696800,7.01569677734375,-0.967987060546875,-0.1915740966796875,0.05157470703125
1761315177374744600,7.02574462890625,-0.9696044921875,-0.19024658203125,0.0507965087890625
1761315177384791800,7.035791748046875,-0.96978759765625,-0.1890106201171875,0.050872802734375
1761315177394839800,7.04583984375,-0.9684295654296875,-0.18988037109375,0.0533447265625
1761315177404886800,7.05588671875,-0.9677734375,-0.1920166015625,0.0536651611328125
1761315177414933800,7.065933837890625,-0.9605865478515625,-0.1927947998046875,0.0513153076171875
1761315177424981800,7.075981689453125,-0.9556121826171875,-0.1942138671875,0.0502471923828125
1761315177435028700,7.08602880859375,-0.95794677734375,-0.19549560546875,0.048919677734375
1761315177445076700,7.09607666015625,-0.9582061767578125,-0.1966552734375,0.046051025390625
1761315177455123700,7.106123779296875,-0.95831298828125,-0.194610595703125,0.0426788330078125
1761315177465171000,7.1161708984375,-0.9594573974609375,-0.195159912109375,0.042572021484375
1761315177475218700,7.12621875,-0.96044921875,-0.197540283203125,0.0456085205078125
1761315177485265700,7.136265625,-0.9557647705078125,-0.199249267578125,0.0454864501953125
1761315177495312600,7.146312744140625,-0.9494476318359375,-0.2004852294921875,0.046234130859375
1761315177505361000,7.15636083984375,-0.9492950439453125,-0.199951171875,0.0478363037109375
1761315177515408000,7.166407958984375,-0.94879150390625,-0.1969451904296875,0.048309326171875
1761315177525455600,7.17645556640625,-0.9514617919921875,-0.1928253173828125,0.050048828125
1761315177535502600,7.186502685546875,-0.959320068359375,-0.189208984375,0.049713134765625
1761315177545549600,7.196549560546875,-0.96636962890625,-0.1868743896484375,0.05303955078125
1761315177555597800,7.206597900390625,-0.9763031005859375,-0.1830291748046875,0.0554962158203125
1761315177565644800,7.216644775390625,-0.98406982421875,-0.1807708740234375,0.0570526123046875
1761315177575692500,7.226692626953125,-0.982177734375,-0.17999267578125,0.0565338134765625
1761315177585739800,7.23673974609375,-0.98028564453125,-0.18182373046875,0.057769775390625
1761315177595786800,7.246786865234375,-0.975860595703125,-0.1881561279296875,0.058013916015625
1761315177605834800,7.256834716796875,-0.9723358154296875,-0.1929931640625,0.0600433349609375
1761315177615881700,7.2668818359375,-0.97344970703125,-0.196685791015625,0.05902099609375
1761315177625929700,7.2769296875,-0.96856689453125,-0.1976470947265625,0.0560150146484375
1761315177635976700,7.286976806640625,-0.96728515625,-0.1966552734375,0.0533905029296875
1761315177646023700,7.297023681640625,-0.965667724609375,-0.1966094970703125,0.0523681640625
1761315177656071700,7.30707177734375,-0.963836669921875,-0.196563720703125,0.05096435546875
1761315177666119000,7.317118896484375,-0.96435546875,-0.1974334716796875,0.053955078125
1761315177676166000,7.327165771484375,-0.9703521728515625,-0.19769287109375,0.0583038330078125
1761315177686213600,7.337213623046875,-0.9716796875,-0.19775390625,0.0565338134765625
1761315177696260600,7.347260498046875,-0.97137451171875,-0.1943817138671875,0.0525970458984375
1761315177706308900,7.357308837890625,-0.9748382568359375,-0.190765380859375,0.0529937744140625
1761315177716355800,7.36735595703125,-0.97674560546875,-0.1912078857421875,0.054168701171875
1761315177726402800,7.37740283203125,-0.972015380859375,-0.1934814453125,0.056427001953125
1761315177736450600,7.387450439453125,-0.9683685302734375,-0.19464111328125,0.0592193603515625
1761315177746497500,7.39749755859375,-0.96466064453125,-0.1961212158203125,0.06097412109375
1761315177756545800,7.4075458984375,-0.963348388671875,-0.1956329345703125,0.0623931884765625
1761315177766592800,7.4175927734375,-0.96063232421875,-0.1930084228515625,0.061126708984375
1761315177776639700,7.4276396484375,-0.96282958984375,-0.1891632080078125,0.0586090087890625
1761315177786687700,7.437687744140625,-0.9632110595703125,-0.1879730224609375,0.0598907470703125
1761315177796734700,7.447734619140625,-0.9596710205078125,-0.1898193359375,0.0604400634765625
1761315177806782700,7.45778271484375,-0.9608612060546875,-0.192047119140625,0.063079833984375
1761315177816829700,7.46782958984375,-0.961578369140625,-0.1943511962890625,0.064208984375
1761315177826876700,7.477876708984375,-0.9645843505859375,-0.19403076171875,0.0625152587890625
1761315177836924700,7.487924560546875,-0.9664154052734375,-0.192230224609375,0.058349609375
1761315177846971600,7.4979716796875,-0.96978759765625,-0.1943359375,0.0534820556640625
1761315177857018600,7.5080185546875,-0.9712677001953125,-0.1944732666015625,0.0494232177734375
1761315177867067000,7.51806689453125,-0.9696197509765625,-0.1973114013671875,0.048004150390625
1761315177877113900,7.52811376953125,-0.9677886962890625,-0.2013092041015625,0.0491943359375
1761315177887161900,7.538161865234375,-0.966094970703125,-0.202392578125,0.050201416015625
1761315177897208600,7.54820849609375,-0.9651641845703125,-0.2000274658203125,0.0516357421875
1761315177907255600,7.558255615234375,-0.9659881591796875,-0.1964874267578125,0.050506591796875
1761315177917303800,7.5683037109375,-0.9641571044921875,-0.19329833984375,0.0470123291015625
1761315177927350800,7.578350830078125,-0.963470458984375,-0.193878173828125,0.0466461181640625
1761315177937398800,7.588398681640625,-0.965240478515625,-0.195159912109375,0.0490875244140625
1761315177947445500,7.598445556640625,-0.9645538330078125,-0.19500732421875,0.0477447509765625
1761315177957492700,7.60849267578125,-0.9592742919921875,-0.19464111328125,0.0469818115234375
1761315177967540700,7.618540771484375,-0.9601898193359375,-0.194183349609375,0.0489959716796875
1761315177977587700,7.628587646484375,-0.9631500244140625,-0.19439697265625,0.05059814453125
1761315177987634700,7.638634765625,-0.966278076171875,-0.19281005859375,0.046905517578125
1761315177997682700,7.6486826171875,-0.96868896484375,-0.19024658203125,0.040863037109375
1761315178007729700,7.658729736328125,-0.9695892333984375,-0.19134521484375,0.037353515625
1761315178017777700,7.668777587890625,-0.966339111328125,-0.195648193359375,0.0398101806640625
1761315178027824600,7.67882470703125,-0.965972900390625,-0.2017059326171875,0.0449676513671875
1761315178037871900,7.688871826171875,-0.9677734375,-0.2048187255859375,0.0499114990234375
1761315178047919900,7.698919921875,-0.96600341796875,-0.2035064697265625,0.0512237548828125
1761315178057966600,7.708966552734375,-0.9649200439453125,-0.199554443359375,0.050628662109375
1761315178068014800,7.719014892578125,-0.965606689453125,-0.196380615234375,0.0494842529296875
1761315178078061800,7.729061767578125,-0.965911865234375,-0.19384765625,0.0493011474609375
1761315178088108800,7.73910888671875,-0.963775634765625,-0.193389892578125,0.048248291015625
1761315178098156800,7.74915673828125,-0.9636993408203125,-0.1942138671875,0.048187255859375
1761315178108203800,7.759203857421875,-0.9696044921875,-0.1957855224609375,0.04901123046875
1761315178118250800,7.769250732421875,-0.9720611572265625,-0.19549560546875,0.0498809814453125
1761315178128298800,7.779298828125,-0.9713287353515625,-0.1945648193359375,0.0492401123046875
1761315178138345700,7.789345703125,-0.97186279296875,-0.1938934326171875,0.051605224609375
1761315178148393700,7.799393798828125,-0.97625732421875,-0.1972198486328125,0.0559234619140625
1761315178158440700,7.809440673828125,-0.97637939453125,-0.19830322265625,0.057098388671875
1761315178168487700,7.81948779296875,-0.9731292724609375,-0.19573974609375,0.0547027587890625
1761315178178535700,7.82953564453125,-0.9747467041015625,-0.1946258544921875,0.05126953125
1761315178188582700,7.839582763671875,-0.972381591796875,-0.1944732666015625,0.047271728515625
1761315178198631000,7.849630859375,-0.971710205078125,-0.1949310302734375,0.0448455810546875
1761315178208678000,7.859677978515625,-0.9636383056640625,-0.19720458984375,0.0389251708984375
1761315178218724600,7.869724609375,-0.9611053466796875,-0.1990203857421875,0.0357818603515625
1761315178228772600,7.879772705078125,-0.9609832763671875,-0.1988525390625,0.039276123046875
1761315178238819800,7.88981982421875,-0.9598846435546875,-0.2006072998046875,0.040496826171875
1761315178248866800,7.89986669921875,-0.957183837890625,-0.20233154296875,0.04266357421875
1761315178258914800,7.909914794921875,-0.9549713134765625,-0.2017669677734375,0.0446929931640625
1761315178268961500,7.91996142578125,-0.95074462890625,-0.200225830078125,0.045379638671875
1761315178279009300,7.93000927734375,-0.9495849609375,-0.19940185546875,0.0475616455078125
1761315178289056500,7.940056396484375,-0.954315185546875,-0.197998046875,0.0494537353515625
1761315178299103500,7.950103515625,-0.9578094482421875,-0.1947784423828125,0.050018310546875
1761315178309151500,7.9601513671875,-0.961090087890625,-0.1929931640625,0.0468902587890625
1761315178319198500,7.970198486328125,-0.96331787109375,-0.1924285888671875,0.0431976318359375
1761315178329246500,7.98024658203125,-0.964080810546875,-0.196624755859375,0.044219970703125
1761315178339293400,7.99029345703125,-0.96685791015625,-0.20263671875,0.0460662841796875
1761315178349340400,8.00034033203125,-0.9690093994140625,-0.2059783935546875,0.04681396484375
1761315178359388400,8.010388427734375,-0.9696197509765625,-0.20526123046875,0.0451812744140625
1761315178369435600,8.020435546875,-0.97119140625,-0.2040863037109375,0.0462188720703125
1761315178379482600,8.030482666015626,-0.97442626953125,-0.20367431640625,0.0496368408203125
1761315178389530400,8.0405302734375,-0.978790283203125,-0.203125,0.050201416015625
1761315178399577300,8.050577392578125,-0.9789276123046875,-0.201202392578125,0.0524749755859375
1761315178409625600,8.06062548828125,-0.977020263671875,-0.19964599609375,0.0532684326171875
1761315178419672600,8.070672607421875,-0.97515869140625,-0.19873046875,0.0548553466796875
1761315178429719600,8.080719482421875,-0.9738616943359375,-0.19805908203125,0.0548858642578125
1761315178439767300,8.090767333984376,-0.9697723388671875,-0.1959075927734375,0.050537109375
1761315178449814500,8.100814453125,-0.9669647216796875,-0.1956329345703125,0.0490264892578125
1761315178459862500,8.110862548828125,-0.9647369384765625,-0.1984710693359375,0.0457611083984375
1761315178469909500,8.120909423828126,-0.9629364013671875,-0.2008514404296875,0.04144287109375
1761315178479956500,8.13095654296875,-0.961151123046875,-0.200927734375,0.04119873046875
1761315178490004500,8.14100439453125,-0.9610595703125,-0.19989013671875,0.0418548583984375
1761315178500051500,8.151051513671876,-0.9593505859375,-0.2015228271484375,0.0406646728515625
1761315178510098400,8.161098388671874,-0.955657958984375,-0.2042236328125,0.03790283203125
1761315178520146400,8.171146484375,-0.95513916015625,-0.20538330078125,0.0340423583984375
1761315178530193700,8.181193603515625,-0.9519500732421875,-0.2053985595703125,0.0352325439453125
1761315178540241400,8.191241455078124,-0.9522705078125,-0.2086029052734375,0.0382537841796875
1761315178550288400,8.201288330078125,-0.95233154296875,-0.20916748046875,0.0414886474609375
1761315178560335400,8.21133544921875,-0.9522705078125,-0.20635986328125,0.0435791015625
1761315178570383600,8.221383544921874,-0.9553375244140625,-0.2040557861328125,0.0457763671875
1761315178580430600,8.2314306640625,-0.9589996337890625,-0.201202392578125,0.0480804443359375
1761315178590477600,8.2414775390625,-0.9622955322265625,-0.1990203857421875,0.04852294921875
1761315178600525300,8.251525390625,-0.964263916015625,-0.1984405517578125,0.0499725341796875
1761315178610572300,8.261572265625,-0.9654998779296875,-0.19970703125,0.0519561767578125
1761315178620620500,8.27162060546875,-0.9656219482421875,-0.201568603515625,0.0520782470703125
1761315178630667500,8.28166748046875,-0.9679412841796875,-0.2027130126953125,0.0517730712890625
1761315178640714500,8.291714599609374,-0.9708709716796875,-0.2031402587890625,0.052154541015625
1761315178650762500,8.301762451171875,-0.9717864990234375,-0.205169677734375,0.0513458251953125
1761315178660809500,8.3118095703125,-0.957977294921875,-0.2102203369140625,0.0500946044921875
1761315178670857500,8.321857421875,-0.9558258056640625,-0.21044921875,0.05474853515625
1761315178680904400,8.331904541015625,-0.966156005859375,-0.2087249755859375,0.05712890625
1761315178690951400,8.341951416015625,-0.9548492431640625,-0.2073516845703125,0.05169677734375
1761315178700999400,8.35199951171875,-0.9550933837890625,-0.2055206298828125,0.0497283935546875
1761315178711046400,8.36204638671875,-0.9713134765625,-0.2011566162109375,0.053924560546875
1761315178721093400,8.37209326171875,-0.97369384765625,-0.196563720703125,0.0501556396484375
1761315178731141600,8.3821416015625,-0.9747314453125,-0.1985626220703125,0.0507965087890625
1761315178741188600,8.392188720703125,-0.9791717529296875,-0.2028961181640625,0.0527496337890625
1761315178751236400,8.402236328125,-0.9778900146484375,-0.2061614990234375,0.05889892578125
1761315178761283300,8.412283447265626,-0.9766082763671875,-0.208038330078125,0.0628509521484375
1761315178771330300,8.422330322265625,-0.9703826904296875,-0.2110443115234375,0.06195068359375
1761315178781378600,8.432378662109375,-0.96173095703125,-0.21331787109375,0.0575408935546875
1761315178791425500,8.442425537109376,-0.95635986328125,-0.214141845703125,0.05267333984375
1761315178801472500,8.452472412109374,-0.9551544189453125,-0.215545654296875,0.048583984375
1761315178811520300,8.462520263671875,-0.9603271484375,-0.214996337890625,0.0493011474609375
1761315178821567500,8.4725673828125,-0.9642791748046875,-0.2151031494140625,0.0489044189453125
1761315178831615500,8.482615478515624,-0.9632568359375,-0.212554931640625,0.0462188720703125
1761315178841662500,8.492662353515625,-0.9681854248046875,-0.2099456787109375,0.0494842529296875
1761315178851709400,8.50270947265625,-0.974395751953125,-0.2056732177734375,0.05047607421875
1761315178861757400,8.51275732421875,-0.970489501953125,-0.2030487060546875,0.0474700927734375
1761315178871804400,8.522804443359375,-0.9674072265625,-0.2000579833984375,0.0451202392578125
1761315178881851400,8.532851318359375,-0.9658355712890625,-0.1974639892578125,0.0417938232421875
1761315178891899400,8.5428994140625,-0.9602508544921875,-0.1978302001953125,0.0367431640625
1761315178901946600,8.552946533203125,-0.9557952880859375,-0.199371337890625,0.0332183837890625
1761315178911994400,8.562994384765625,-0.9548187255859375,-0.1999053955078125,0.03131103515625
1761315178922041300,8.573041259765626,-0.95257568359375,-0.2010955810546875,0.031494140625
1761315178932088300,8.58308837890625,-0.953094482421875,-0.20184326171875,0.0317230224609375
1761315178942136600,8.593136474609375,-0.953125,-0.201141357421875,0.03155517578125
1761315178952183600,8.60318359375,-0.9548492431640625,-0.2014312744140625,0.0303802490234375
1761315178962231300,8.613231201171875,-0.9591217041015625,-0.2022857666015625,0.0293121337890625
1761315178972278300,8.6232783203125,-0.9626922607421875,-0.2030029296875,0.0306396484375
1761315178982325500,8.633325439453126,-0.9633026123046875,-0.2021026611328125,0.0312042236328125
1761315178992373500,8.64337353515625,-0.9655914306640625,-0.1994476318359375,0.034271240234375
1761315179002420500,8.65342041015625,-0.9662322998046875,-0.19879150390625,0.034820556640625
1761315179012467500,8.663467529296875,-0.96856689453125,-0.198974609375,0.0360260009765625
1761315179022515500,8.673515380859374,-0.9727325439453125,-0.2000579833984375,0.0381622314453125
1761315179032562400,8.6835625,-0.973846435546875,-0.200897216796875,0.0382843017578125
1761315179042610400,8.6936103515625,-0.9719696044921875,-0.2008209228515625,0.0404052734375
1761315179052657400,8.703657470703124,-0.9698333740234375,-0.2026824951171875,0.0425872802734375
1761315179062704600,8.71370458984375,-0.9654541015625,-0.205718994140625,0.0454254150390625
1761315179072752400,8.72375244140625,-0.9605865478515625,-0.2069549560546875,0.0457916259765625
1761315179082799400,8.73379931640625,-0.95684814453125,-0.20709228515625,0.0470733642578125
1761315179092846300,8.743846435546875,-0.958221435546875,-0.2093353271484375,0.04937744140625
1761315179102894600,8.75389453125,-0.9633331298828125,-0.2059326171875,0.04888916015625
1761315179112941600,8.763941650390626,-0.9661865234375,-0.199127197265625,0.0445556640625
1761315179122989300,8.7739892578125,-0.9710693359375,-0.195556640625,0.0419769287109375
1761315179133036300,8.784036376953125,-0.97467041015625,-0.19439697265625,0.0407867431640625
1761315179143083300,8.794083251953126,-0.9736328125,-0.197723388671875,0.0401153564453125
1761315179153131500,8.804131591796875,-0.970489501953125,-0.2032012939453125,0.0422210693359375
1761315179163178500,8.814178466796875,-0.9682464599609375,-0.2066650390625,0.0441436767578125
1761315179173225500,8.8242255859375,-0.966278076171875,-0.2069854736328125,0.0452117919921875
1761315179183273500,8.8342734375,-0.962066650390625,-0.2060699462890625,0.0446624755859375
1761315179193320400,8.844320556640625,-0.959930419921875,-0.20489501953125,0.0440521240234375
1761315179203368400,8.854368408203126,-0.9596405029296875,-0.203948974609375,0.043487548828125
1761315179213413400,8.864413330078126,-0.9577178955078125,-0.2035980224609375,0.042694091796875
1761315179223460400,8.87446044921875,-0.9590301513671875,-0.203338623046875,0.0422515869140625
1761315179233508400,8.88450830078125,-0.960906982421875,-0.2005615234375,0.0380401611328125
1761315179243555600,8.8945556640625,-0.962127685546875,-0.1977081298828125,0.03619384765625
1761315179253603600,8.904603515625,-0.9612884521484375,-0.1987457275390625,0.036865234375
1761315179263650300,8.914650390625,-0.9605560302734375,-0.199127197265625,0.0378875732421875
1761315179273698300,8.9246982421875,-0.959930419921875,-0.2028961181640625,0.040008544921875
1761315179283746300,8.934746337890624,-0.9565887451171875,-0.206573486328125,0.042236328125
1761315179293793300,8.944793212890625,-0.955841064453125,-0.206817626953125,0.0419921875
1761315179303840300,8.95484033203125,-0.9600677490234375,-0.20684814453125,0.0445098876953125
1761315179313888300,8.96488818359375,-0.95928955078125,-0.2046966552734375,0.0429840087890625
1761315179323935200,8.974935302734375,-0.954986572265625,-0.202789306640625,0.0421142578125
1761315179333983200,8.984983154296875,-0.9632720947265625,-0.20458984375,0.0454864501953125
1761315179344030200,8.9950302734375,-0.9700164794921875,-0.205657958984375,0.047576904296875
1761315179354077400,9.005077392578125,-0.969512939453125,-0.2042083740234375,0.04766845703125
1761315179364125200,9.015125244140625,-0.973358154296875,-0.2024078369140625,0.04669189453125
1761315179374172200,9.025172119140626,-0.9789276123046875,-0.201568603515625,0.0472869873046875
1761315179384219100,9.03521923828125,-0.976470947265625,-0.2012176513671875,0.048583984375
1761315179394267400,9.045267333984375,-0.972015380859375,-0.201690673828125,0.0497283935546875
1761315179404314400,9.055314453125,-0.9720001220703125,-0.2025299072265625,0.05291748046875
1761315179414362000,9.065362060546875,-0.968658447265625,-0.202545166015625,0.0541839599609375
1761315179424409000,9.0754091796875,-0.9641876220703125,-0.2029876708984375,0.054901123046875
1761315179434456300,9.085456298828126,-0.9615325927734375,-0.2003631591796875,0.0531005859375
1761315179444504300,9.09550439453125,-0.9607696533203125,-0.1990509033203125,0.0504608154296875
1761315179454551300,9.10555126953125,-0.9595947265625,-0.199310302734375,0.049072265625
1761315179464598300,9.115598388671875,-0.9611968994140625,-0.1989288330078125,0.04730224609375
1761315179474646300,9.125646240234374,-0.9640350341796875,-0.1986846923828125,0.0462646484375
1761315179484693200,9.135693359375,-0.96435546875,-0.2002716064453125,0.0465240478515625
1761315179494741200,9.1457412109375,-0.9642333984375,-0.2003173828125,0.0435333251953125
1761315179504788200,9.155788330078124,-0.9611358642578125,-0.199951171875,0.0415802001953125
1761315179514835500,9.16583544921875,-0.9571075439453125,-0.2013397216796875,0.0420989990234375
1761315179524883200,9.17588330078125,-0.955047607421875,-0.203155517578125,0.0433349609375
1761315179534930200,9.18593017578125,-0.957000732421875,-0.201385498046875,0.04180908203125
1761315179544977200,9.19597705078125,-0.959442138671875,-0.199249267578125,0.0403594970703125
1761315179555025400,9.206025390625,-0.9589691162109375,-0.1994781494140625,0.039886474609375
1761315179565072400,9.216072265625,-0.9610595703125,-0.2006378173828125,0.0399017333984375
1761315179575119400,9.226119384765624,-0.9596405029296875,-0.19952392578125,0.0398712158203125
1761315179585167000,9.2361669921875,-0.9582977294921875,-0.198974609375,0.043060302734375
1761315179595214000,9.246214111328126,-0.9567413330078125,-0.197967529296875,0.0452423095703125
1761315179605262300,9.256262451171875,-0.9603424072265625,-0.1988067626953125,0.0466461181640625
1761315179615309300,9.266309326171875,-0.9641571044921875,-0.1990966796875,0.0490264892578125
1761315179625356300,9.276356201171875,-0.96624755859375,-0.196624755859375,0.0484619140625
1761315179635404300,9.286404296875,-0.9717864990234375,-0.19342041015625,0.0474700927734375
1761315179645451300,9.296451171875,-0.9741058349609375,-0.1917724609375,0.04736328125
1761315179655498200,9.306498291015625,-0.971466064453125,-0.19207763671875,0.047454833984375
1761315179665546200,9.316546142578124,-0.9723968505859375,-0.197845458984375,0.049163818359375
1761315179675593200,9.32659326171875,-0.97515869140625,-0.2028656005859375,0.0520782470703125
1761315179685641200,9.33664111328125,-0.97515869140625,-0.204437255859375,0.0519256591796875
1761315179695688200,9.346688232421876,-0.974334716796875,-0.202239990234375,0.04962158203125
1761315179705735200,9.356735107421875,-0.9713287353515625,-0.199981689453125,0.04833984375
1761315179715783400,9.366783447265625,-0.9701385498046875,-0.19866943359375,0.0489044189453125
1761315179725830400,9.376830322265626,-0.967987060546875,-0.1971893310546875,0.04827880859375
1761315179735877400,9.38687744140625,-0.96734619140625,-0.195343017578125,0.049072265625
1761315179745925000,9.396925048828125,-0.967498779296875,-0.1948699951171875,0.048614501953125
1761315179755972000,9.40697216796875,-0.96588134765625,-0.1925811767578125,0.0469512939453125
1761315179766020400,9.417020263671875,-0.96551513671875,-0.1904449462890625,0.045379638671875
1761315179776067300,9.4270673828125,-0.964691162109375,-0.191558837890625,0.04681396484375
1761315179786114300,9.4371142578125,-0.9595947265625,-0.193878173828125,0.04718017578125
1761315179796162000,9.447162109375,-0.9581146240234375,-0.19622802734375,0.0479736328125
1761315179806209300,9.457209228515625,-0.9608001708984375,-0.198333740234375,0.0494384765625
1761315179816259000,9.467259033203124,-0.963531494140625,-0.19781494140625,0.04443359375
1761315179826307300,9.477307373046875,-0.96270751953125,-0.1956939697265625,0.039947509765625
1761315179836354300,9.487354248046875,-0.9636993408203125,-0.195770263671875,0.0392303466796875
1761315179846401300,9.4974013671875,-0.964019775390625,-0.198822021484375,0.0416717529296875
1761315179856449000,9.507448974609375,-0.9631195068359375,-0.2011871337890625,0.043121337890625
1761315179866496300,9.517496337890625,-0.9608917236328125,-0.200958251953125,0.044708251953125
1761315179876543200,9.527543212890626,-0.9652557373046875,-0.20074462890625,0.049530029296875
1761315179886591200,9.53759130859375,-0.9666595458984375,-0.1991729736328125,0.0517578125
1761315179896638200,9.54763818359375,-0.9671630859375,-0.19549560546875,0.0513458251953125
1761315179906685400,9.557685546875,-0.9668121337890625,-0.1933441162109375,0.0525970458984375
1761315179916733200,9.567733154296874,-0.968109130859375,-0.19390869140625,0.0544281005859375
1761315179926780200,9.5777802734375,-0.96881103515625,-0.1956024169921875,0.0543670654296875
1761315179936828200,9.587828125,-0.9715576171875,-0.197021484375,0.05377197265625
1761315179946875400,9.59787548828125,-0.9769287109375,-0.196533203125,0.0567626953125
1761315179956922400,9.60792236328125,-0.977874755859375,-0.193267822265625,0.0532073974609375
1761315179966970000,9.61797021484375,-0.9754791259765625,-0.192535400390625,0.046600341796875
1761315179977017000,9.62801708984375,-0.975250244140625,-0.1947479248046875,0.0435638427734375
1761315179987064300,9.638064208984375,-0.9727325439453125,-0.1981964111328125,0.042236328125
1761315179997112300,9.6481123046875,-0.9662322998046875,-0.2012939453125,0.042572021484375
1761315180007159300,9.6581591796875,-0.96148681640625,-0.2016754150390625,0.0420379638671875
1761315180017207000,9.66820703125,-0.9622344970703125,-0.2020416259765625,0.0434722900390625
1761315180027254300,9.678254150390625,-0.9608612060546875,-0.199798583984375,0.0413360595703125
1761315180037301200,9.68830126953125,-0.959686279296875,-0.1961822509765625,0.0377197265625
1761315180047349200,9.698349365234375,-0.9591827392578125,-0.19525146484375,0.037872314453125
1761315180057396200,9.708396240234375,-0.9581298828125,-0.1956024169921875,0.03985595703125
1761315180067443200,9.718443115234376,-0.955413818359375,-0.1965484619140625,0.0428314208984375
1761315180077491200,9.7284912109375,-0.9567413330078125,-0.1953277587890625,0.0449066162109375
1761315180087538200,9.7385380859375,-0.961700439453125,-0.19598388671875,0.0479736328125
1761315180097585200,9.748585205078125,-0.9647674560546875,-0.19622802734375,0.046966552734375
1761315180107633400,9.75863330078125,-0.9645538330078125,-0.195404052734375,0.0429840087890625
1761315180117680400,9.768680419921875,-0.9677581787109375,-0.1948089599609375,0.039459228515625
1761315180127728000,9.77872802734375,-0.96917724609375,-0.196685791015625,0.0412139892578125
1761315180137775000,9.788775146484374,-0.9696197509765625,-0.1974945068359375,0.0445556640625
1761315180147822000,9.798822021484375,-0.96624755859375,-0.2008514404296875,0.046173095703125
1761315180157870300,9.808870361328125,-0.965423583984375,-0.20184326171875,0.0406646728515625
1761315180167917300,9.818917236328126,-0.9677734375,-0.2015380859375,0.036346435546875
1761315180177964300,9.82896435546875,-0.97491455078125,-0.2011871337890625,0.0370941162109375
1761315180188012300,9.83901220703125,-0.97467041015625,-0.197967529296875,0.043060302734375
1761315180198059300,9.849059326171876,-0.9731903076171875,-0.1938629150390625,0.0551300048828125
1761315180208107300,9.859107177734375,-0.9718475341796875,-0.192169189453125,0.060638427734375
1761315180218154200,9.869154296875,-0.9644622802734375,-0.1952667236328125,0.0615692138671875
1761315180228201200,9.879201171875,-0.956298828125,-0.1986541748046875,0.06011962890625
1761315180238249200,9.889249267578125,-0.9551544189453125,-0.1996612548828125,0.066558837890625
1761315180248296200,9.899296142578125,-0.961456298828125,-0.200408935546875,0.0681304931640625
1761315180258343200,9.90934326171875,-0.9631195068359375,-0.1969146728515625,0.062896728515625
1761315180268391200,9.91939111328125,-0.9648284912109375,-0.1938018798828125,0.057464599609375
1761315180278438100,9.929438232421875,-0.9700469970703125,-0.1943206787109375,0.05364990234375
1761315180288485400,9.9394853515625,-0.9702911376953125,-0.2006988525390625,0.0535888671875
1761315180298533000,9.949533203125,-0.959808349609375,-0.213043212890625,0.05535888671875
1761315180308580000,9.959580078125,-0.9576873779296875,-0.2209320068359375,0.058746337890625
1761315180318628400,9.96962841796875,-0.95123291015625,-0.2212677001953125,0.0507965087890625
1761315180328675300,9.97967529296875,-0.9432830810546875,-0.214813232421875,0.04498291015625
1761315180338722300,9.989722412109375,-0.95916748046875,-0.2080230712890625,0.0454254150390625
1761315180348770000,9.99977001953125,-0.96453857421875,-0.2050018310546875,0.0446929931640625
1761315180358817000,10.009817138671876,-0.9665069580078125,-0.2004547119140625,0.0443267822265625
1761315180368864300,10.0198642578125,-0.9788818359375,-0.197601318359375,0.0474090576171875
1761315180378912300,10.029912353515625,-0.97747802734375,-0.19683837890625,0.0483551025390625
1761315180388959200,10.039959228515626,-0.96490478515625,-0.2023162841796875,0.0515289306640625
1761315180399006200,10.050006103515624,-0.959747314453125,-0.207855224609375,0.0556640625
1761315180409054200,10.06005419921875,-0.9559783935546875,-0.2108306884765625,0.059326171875
1761315180419101200,10.07010107421875,-0.9560699462890625,-0.2109375,0.0601959228515625
1761315180429149200,10.080149169921874,-0.954376220703125,-0.2072296142578125,0.059234619140625
1761315180439196200,10.090196044921875,-0.9555206298828125,-0.2022857666015625,0.0557861328125
1761315180449243400,10.100243408203125,-0.957611083984375,-0.2017669677734375,0.0532989501953125
1761315180459291100,10.110291015625,-0.9591217041015625,-0.2017822265625,0.0504150390625
1761315180469338000,10.120338134765625,-0.957550048828125,-0.203216552734375,0.047271728515625
1761315180479385000,10.130385009765625,-0.961761474609375,-0.2080535888671875,0.0498046875
1761315180489433300,10.140433349609374,-0.966766357421875,-0.211456298828125,0.0504150390625
1761315180499480300,10.150480224609375,-0.965850830078125,-0.2124786376953125,0.048370361328125
1761315180509528000,10.160528076171875,-0.96484375,-0.2118377685546875,0.0487518310546875
1761315180519575000,10.170574951171876,-0.9667816162109375,-0.21221923828125,0.048828125
1761315180529622300,10.180622314453124,-0.9686431884765625,-0.212615966796875,0.047271728515625
1761315180539670300,10.190670166015625,-0.96875,-0.209228515625,0.048675537109375
1761315180549717200,10.20071728515625,-0.9692840576171875,-0.207183837890625,0.0528717041015625
1761315180559764200,10.21076416015625,-0.9683990478515625,-0.20794677734375,0.054229736328125
1761315180569812200,10.220812255859375,-0.968780517578125,-0.20733642578125,0.0560302734375
1761315180579859200,10.230859130859375,-0.9690093994140625,-0.2050018310546875,0.0539703369140625
1761315180589906200,10.24090625,-0.969207763671875,-0.2040863037109375,0.05474853515625
1761315180599954200,10.2509541015625,-0.965789794921875,-0.2034759521484375,0.0572052001953125
1761315180610001200,10.261001220703125,-0.963134765625,-0.204833984375,0.057830810546875
1761315180620049200,10.271049072265624,-0.959747314453125,-0.20611572265625,0.0567474365234375
1761315180630096100,10.28109619140625,-0.957916259765625,-0.206268310546875,0.0583343505859375
1761315180640143000,10.29114306640625,-0.9636077880859375,-0.2051544189453125,0.0606536865234375
1761315180650191400,10.30119140625,-0.9619140625,-0.20367431640625,0.0576019287109375
1761315180660238300,10.31123828125,-0.9597015380859375,-0.203155517578125,0.054779052734375
1761315180670285300,10.321285400390625,-0.9617462158203125,-0.2053070068359375,0.0530548095703125
1761315180680333000,10.3313330078125,-0.960235595703125,-0.20538330078125,0.052032470703125
1761315180690380000,10.341380126953124,-0.9542694091796875,-0.20526123046875,0.05010986328125
1761315180700427300,10.35142724609375,-0.9505462646484375,-0.2041473388671875,0.047088623046875
1761315180710475300,10.361475341796876,-0.95294189453125,-0.2071380615234375,0.0472564697265625
1761315180720522200,10.371522216796874,-0.962158203125,-0.2038726806640625,0.0456085205078125
1761315180730570200,10.3815703125,-0.9714202880859375,-0.1969757080078125,0.03472900390625
1761315180740617200,10.3916171875,-0.976287841796875,-0.1965789794921875,0.02679443359375
1761315180750664200,10.401664306640624,-0.9832763671875,-0.2026519775390625,0.02728271484375
1761315180760712200,10.411712158203125,-0.9860382080078125,-0.2062225341796875,0.0356292724609375
1761315180770759200,10.42175927734375,-0.97698974609375,-0.203369140625,0.0443115234375
1761315180780806400,10.431806396484374,-0.9679412841796875,-0.20465087890625,0.0444183349609375
1761315180790854100,10.441854248046875,-0.9554595947265625,-0.2076263427734375,0.048858642578125
1761315180800901000,10.451901123046875,-0.9568328857421875,-0.2070770263671875,0.05572509765625
1761315180810948000,10.461947998046876,-0.9630889892578125,-0.2022857666015625,0.0601348876953125
1761315180820996400,10.471996337890625,-0.9618988037109375,-0.1967926025390625,0.05810546875
1761315180831043300,10.482043212890625,-0.9600677490234375,-0.1939544677734375,0.054901123046875
1761315180841091000,10.492091064453126,-0.958984375,-0.1964874267578125,0.0551605224609375
1761315180851138000,10.502137939453124,-0.9582977294921875,-0.199066162109375,0.0571746826171875
1761315180861185300,10.512185302734375,-0.9567718505859375,-0.20159912109375,0.0572052001953125
1761315180871233300,10.5222333984375,-0.9595489501953125,-0.20458984375,0.0556182861328125
1761315180881280300,10.5322802734375,-0.967193603515625,-0.2064361572265625,0.0557403564453125
1761315180891327200,10.5423271484375,-0.9734344482421875,-0.2036285400390625,0.0518341064453125
1761315180901375200,10.552375244140626,-0.975128173828125,-0.2014007568359375,0.0500335693359375
1761315180911422200,10.562422119140624,-0.9763946533203125,-0.20440673828125,0.0461578369140625
1761315180921469200,10.57246923828125,-0.97357177734375,-0.2100830078125,0.0440673828125
1761315180931517200,10.58251708984375,-0.9675750732421875,-0.210357666015625,0.046539306640625
1761315180941564400,10.592564453125,-0.9643707275390625,-0.208587646484375,0.048553466796875
1761315180951612200,10.602612060546875,-0.9529571533203125,-0.208953857421875,0.04791259765625
1761315180961659100,10.6126591796875,-0.94805908203125,-0.2107086181640625,0.0503692626953125
1761315180971706000,10.6227060546875,-0.9496917724609375,-0.208526611328125,0.0531768798828125
1761315180981754400,10.63275439453125,-0.9549713134765625,-0.204345703125,0.052398681640625
1761315180991801300,10.64280126953125,-0.954742431640625,-0.198028564453125,0.0471038818359375
1761315181001848300,10.652848388671876,-0.9576263427734375,-0.1961669921875,0.046417236328125
1761315181011896000,10.66289599609375,-0.963348388671875,-0.1991424560546875,0.048828125
1761315181021943000,10.672943115234375,-0.9643402099609375,-0.2023468017578125,0.0451812744140625
1761315181031991300,10.6829912109375,-0.9675750732421875,-0.2041778564453125,0.0417633056640625
1761315181042038300,10.693038330078124,-0.96783447265625,-0.202362060546875,0.0406341552734375
1761315181052085200,10.703085205078125,-0.9654083251953125,-0.2007904052734375,0.0430145263671875
1761315181062133200,10.71313330078125,-0.958526611328125,-0.2021636962890625,0.0460205078125
1761315181072180200,10.72318017578125,-0.952606201171875,-0.2053070068359375,0.0468292236328125
1761315181082227200,10.733227294921875,-0.9497528076171875,-0.2071075439453125,0.0470428466796875
1761315181092275200,10.743275146484375,-0.9542999267578125,-0.20623779296875,0.0477447509765625
1761315181102322200,10.753322265625,-0.9598846435546875,-0.2010040283203125,0.0442047119140625
1761315181112369400,10.763369384765625,-0.9600830078125,-0.1959686279296875,0.037628173828125
1761315181122417200,10.773417236328125,-0.9586944580078125,-0.191009521484375,0.0370330810546875
1761315181132464000,10.783464111328126,-0.969879150390625,-0.192108154296875,0.0441741943359375
1761315181142511000,10.793510986328124,-0.9674224853515625,-0.1954498291015625,0.045501708984375
1761315181152559400,10.803559326171875,-0.94525146484375,-0.2010650634765625,0.046173095703125
1761315181162606300,10.8136064453125,-0.9829254150390625,-0.1984100341796875,0.0753173828125
1761315181172654000,10.823654052734375,-0.9934234619140625,-0.208465576171875,0.084075927734375
1761315181182701000,10.833701171875,-0.96917724609375,-0.20489501953125,0.06732177734375
1761315181192748300,10.843748291015626,-0.9691009521484375,-0.196441650390625,0.057403564453125
1761315181202796300,10.85379638671875,-0.969390869140625,-0.193634033203125,0.04486083984375
1761315181212843300,10.86384326171875,-0.9681396484375,-0.197265625,0.04217529296875
1761315181222890200,10.87389013671875,-0.970306396484375,-0.2035369873046875,0.045501708984375
1761315181232938200,10.883938232421874,-0.973602294921875,-0.2010345458984375,0.0546417236328125
