time,seconds_elapsed,z,y,x
1761315170411889200,0.06288916015625,-0.01865704171359539,-0.08007912337779999,0.01594514399766922
1761315170421936000,0.07293603515625,-0.001404284848831594,-0.05441610515117645,0.002918025478720665
1761315170431984000,0.082984130859375,0.016801616176962852,-0.015386412851512432,-0.015479623340070248
1761315170442031000,0.093031005859375,0.039915990084409714,0.017836254090070724,-0.03612018749117851
1761315170452079000,0.1030791015625,0.07869640737771988,0.03433613479137421,-0.05560946464538574
1761315170462126000,0.1131259765625,0.11547865718603134,0.026006832718849182,-0.07136233150959015
1761315170472173000,0.123173095703125,0.1566186398267746,-0.01775849051773548,-0.07959682494401932
1761315170482221000,0.133220947265625,0.18388861417770386,-0.07348407059907913,-0.07499461621046066
1761315170492268000,0.14326806640625,0.19056062400341034,-0.11950988322496414,-0.05709098279476166
1761315170502316000,0.15331591796875,0.1796259582042694,-0.14001064002513885,-0.02588273026049137
1761315170512363300,0.16336328125,0.1618884950876236,-0.12558987736701965,0.009952499531209469
1761315170522410200,0.17341015625,0.13374634087085724,-0.08147834986448288,0.045946452766656876
1761315170532458000,0.1834580078125,0.09746850281953812,-0.04253973811864853,0.07842263579368591
1761315170542505000,0.1935048828125,0.05939674749970436,-0.020000873133540154,0.09607166796922684
1761315170552553200,0.20355322265625,0.03563176468014717,-0.010989001952111721,0.10540072619915009
1761315170562600200,0.21360009765625,0.026398317888379097,-0.012985306791961193,0.11684645712375641
1761315170572648000,0.22364794921875,0.014058028347790241,-0.021634189411997795,0.12674570083618164
1761315170582695000,0.23369482421875,0.008838498964905739,-0.036319658160209656,0.13878370821475983
1761315170592742000,0.243741943359375,0.009219597093760967,-0.038056839257478714,0.1456322968006134
1761315170602790100,0.2537900390625,0.009943976998329163,-0.0398467481136322,0.13233327865600586
1761315170612837000,0.263837158203125,0.007968710735440254,-0.044626589864492416,0.11483018100261688
1761315170622884900,0.273884765625,-0.001333178486675024,-0.045705437660217285,0.09127797931432724
1761315170632932000,0.28393212890625,-0.024704547598958015,-0.04549238458275795,0.07630489021539688
1761315170642979000,0.29397900390625,-0.051775313913822174,-0.02486140839755535,0.06331478804349899
1761315170653027000,0.304027099609375,-0.08010069280862808,-0.022337529808282852,0.04472885653376579
1761315170663074000,0.314073974609375,-0.08920471370220184,-0.03398273512721062,0.03555240109562874
1761315170673122000,0.3241220703125,-0.09305457770824432,-0.016233032569289207,0.04267502576112747
1761315170683169000,0.3341689453125,-0.09181381016969681,0.015179751440882683,0.04278794303536415
1761315170693217000,0.344217041015625,-0.08821747452020645,0.021819012239575386,0.029084915295243263
1761315170703264000,0.354263916015625,-0.076454296708107,0.01136850193142891,0.0018042916199192405
1761315170713311200,0.364311279296875,-0.07182332128286362,-0.025613218545913696,-0.024509336799383163
1761315170723359200,0.374359130859375,-0.08113480359315872,-0.06872526556253433,-0.03707466274499893
1761315170733406000,0.384406005859375,-0.09329133480787277,-0.06706958264112473,-0.038895200937986374
1761315170743454000,0.394453857421875,-0.10321506857872009,-0.04880509153008461,-0.03898708149790764
1761315170753501200,0.404501220703125,-0.10947296768426895,-0.02972567081451416,-0.04502872750163078
1761315170763549200,0.414549072265625,-0.11909283697605133,-0.028834577649831772,-0.050265565514564514
1761315170773596200,0.42459619140625,-0.12275761365890503,-0.025430524721741676,-0.048896171152591705
1761315170783643000,0.434642822265625,-0.12191765010356903,-0.0017627463676035404,-0.03093421459197998
1761315170793691100,0.444691162109375,-0.11625763028860092,0.014184794388711452,-0.008206530474126339
1761315170803738000,0.454738037109375,-0.10595972090959549,0.015564045868813992,0.015276957303285599
1761315170813786000,0.4647861328125,-0.08747871220111847,0.010630007833242416,0.0287642702460289
1761315170823833000,0.4748330078125,-0.06027532368898392,0.0017409083666279912,0.023574568331241608
1761315170833880000,0.484880126953125,-0.02996722050011158,-0.005315136630088091,0.019063705578446388
1761315170843928000,0.494927978515625,-0.00754926260560751,-0.00041092574247159064,0.015471368096768856
1761315170853975000,0.50497509765625,0.010552509687840939,0.0041212416253983974,0.017360081896185875
1761315170864023000,0.51502294921875,0.014285728335380554,-0.0027174896094948053,0.026875821873545647
1761315170874070300,0.5250703125,0.012893161736428738,-0.005590241402387619,0.043540019541978836
1761315170884118000,0.535117919921875,0.015680959448218346,0.012090484611690044,0.05197611451148987
1761315170894165000,0.5451650390625,0.01926131173968315,0.03409858047962189,0.04872359707951546
1761315170904212000,0.5552119140625,0.028874792158603668,0.06036720424890518,0.04679813235998154
1761315170914260200,0.56526025390625,0.037580929696559906,0.0901850238442421,0.05368320271372795
1761315170924307200,0.57530712890625,0.040939975529909134,0.11380406469106674,0.0799880400300026
1761315170934355000,0.58535498046875,0.03846829757094383,0.12504605948925018,0.10206378251314163
1761315170944402000,0.59540185546875,0.034815505146980286,0.13413383066654205,0.13220304250717163
1761315170954449200,0.60544921875,0.022409701719880104,0.16503210365772247,0.15639333426952362
1761315170964497200,0.6154970703125,0.00851705577224493,0.1999642550945282,0.17293289303779602
1761315170974544100,0.625544189453125,-0.00933144986629486,0.21403132379055023,0.18558476865291595
1761315170984592000,0.635591796875,-0.021132448688149452,0.2133687436580658,0.21002113819122314
1761315170994639000,0.64563916015625,-0.025708293542265892,0.22819828987121582,0.24457059800624847
1761315171004686000,0.65568603515625,-0.01859339140355587,0.2478577345609665,0.2836040258407593
1761315171014734000,0.665734130859375,-0.003400590270757675,0.2707524001598358,0.3090987205505371
1761315171024781000,0.675781005859375,0.006431001238524914,0.2788766324520111,0.3030480146408081
1761315171034829000,0.6858291015625,0.006879477761685848,0.27084988355636597,0.271966814994812
1761315171044876000,0.6958759765625,0.002570483135059476,0.25506263971328735,0.21528275310993195
1761315171054924000,0.705924072265625,0.0062517705373466015,0.21340735256671906,0.15310139954090118
1761315171064971000,0.715970947265625,0.005780390929430723,0.14911597967147827,0.09269718080759048
1761315171075018200,0.726018310546875,0.01666952483355999,0.11525415629148483,0.04562287777662277
1761315171085066000,0.73606591796875,0.027331223711371422,0.10933288186788559,0.018621088936924934
1761315171095113000,0.746113037109375,0.0415106900036335,0.10071196407079697,0.006098372396081686
1761315171105161200,0.7561611328125,0.05409199744462967,0.1285792738199234,-0.010060623288154602
1761315171115208200,0.766208251953125,0.06150064617395401,0.09043056517839432,-0.043522175401449203
1761315171125255200,0.776255126953125,0.06172275170683861,-0.017421334981918335,-0.0828312337398529
1761315171135303000,0.786302978515625,0.05317613482475281,-0.04015247896313667,-0.10293037444353104
1761315171145350000,0.796349853515625,0.037513285875320435,-0.033733729273080826,-0.10407926142215729
1761315171155398100,0.806398193359375,0.024448884651064873,-0.026165824383497238,-0.0955267921090126
1761315171165445000,0.816445068359375,0.010543720796704292,-0.029375465586781502,-0.08213401585817337
1761315171175493000,0.8264931640625,-0.005742307752370834,-0.04344414547085762,-0.07102704048156738
1761315171185539800,0.836539794921875,-0.020739367231726646,-0.044133637100458145,-0.067142553627491
1761315171195587000,0.846587158203125,-0.019245866686105728,-0.07598664611577988,-0.07816936820745468
1761315171205635000,0.856635009765625,-0.011478756554424763,-0.14633964002132416,-0.08156916499137878
1761315171215682000,0.86668212890625,-0.010085923597216606,-0.1892293095588684,-0.06598727405071259
1761315171225730300,0.876730224609375,-0.010034791193902493,-0.19203469157218933,-0.03676706925034523
1761315171235777000,0.886777099609375,-0.008539692498743534,-0.15401166677474976,-0.008297344669699669
1761315171245825000,0.896824951171875,-0.012062788009643555,-0.10676293075084686,0.013466008007526398
1761315171255872000,0.9068720703125,-0.01631399244070053,-0.063172847032547,0.03290362283587456
1761315171265919000,0.9169189453125,-0.025901371613144875,-0.02900022640824318,0.048595231026411057
1761315171275967200,0.92696728515625,-0.02526753954589367,-0.003102849004790187,0.06604932248592377
1761315171286014200,0.93701416015625,-0.02113058604300022,0.009446232579648495,0.06949332356452942
1761315171296062000,0.94706201171875,-0.002103098202496767,0.00695058424025774,0.07151013612747192
1761315171306109200,0.957109130859375,0.014524880796670914,-0.019540145993232727,0.06367138773202896
1761315171316156200,0.96715625,0.029677733778953552,-0.04358209669589996,0.05817142874002457
1761315171326204200,0.9772041015625,0.03819052875041962,-0.05557830631732941,0.05560493841767311
1761315171336251100,0.987251220703125,0.043183956295251846,-0.06933406740427017,0.04201269894838333
1761315171346299100,0.997299072265625,0.041669417172670364,-0.08666671812534332,0.03943662345409393
1761315171356346000,1.00734619140625,0.02966415137052536,-0.09132831543684006,0.039453133940696716
1761315171366394000,1.01739404296875,0.0123030049726367,-0.08247517049312592,0.03742034360766411
1761315171376441000,1.027441162109375,0.0005427522119134665,-0.064930260181427,0.03003566339612007
1761315171386488000,1.037488037109375,-0.004230164922773838,-0.057685401290655136,0.03063833713531494
1761315171396536000,1.0475361328125,-0.002484729280695319,-0.05326268821954727,0.029206087812781334
1761315171406583000,1.0575830078125,-0.0023433153983205557,-0.053046438843011856,0.029982399195432663
1761315171416631000,1.067631103515625,0.0012745888670906425,-0.05679350718855858,0.03057575225830078
1761315171426678300,1.07767822265625,0.003227751236408949,-0.07108722627162933,0.01715102419257164
1761315171436725200,1.087725341796875,0.0051686628721654415,-0.08164826035499573,-0.0013757890556007624
1761315171446773000,1.09777294921875,0.01218715775758028,-0.08909525722265244,-0.02184670977294445
1761315171456820000,1.107820068359375,0.006914897821843624,-0.0935981273651123,-0.029952306300401688
1761315171466868200,1.1178681640625,-0.003397128311917186,-0.08685420453548431,-0.03573056682944298
1761315171476915200,1.127915283203125,-0.004066380672156811,-0.06690020114183426,-0.04145423322916031
1761315171486963000,1.137962890625,0.0002820287481881678,-0.04662342742085457,-0.04416080191731453
1761315171497010000,1.148010009765625,-0.0008847020799294114,-0.011232680641114712,-0.03910345956683159
1761315171507057200,1.15805712890625,-0.0052086105570197105,0.0035113778430968523,-0.03057468682527542
1761315171517105200,1.168105224609375,-0.010304835624992847,-0.0203313697129488,-0.026756778359413147
1761315171527152000,1.178152099609375,-0.01050324086099863,-0.04468890652060509,-0.009924269281327724
1761315171537199900,1.188199951171875,-0.00871998816728592,-0.03928455710411072,0.01122309360653162
1761315171547247000,1.1982470703125,-0.013115002773702145,-0.03225088119506836,0.02545236237347126
1761315171557294000,1.208294189453125,-0.01726207695901394,-0.02424621768295765,0.029821544885635376
1761315171567342000,1.218342041015625,-0.013797304593026638,-0.016636233776807785,0.021587317809462547
1761315171577389000,1.22838916015625,-0.01558401994407177,-0.006068811286240816,0.01031655352562666
1761315171587437000,1.23843701171875,-0.016115320846438408,-0.015103851445019245,-0.0013883059145882726
1761315171597484000,1.248484130859375,-0.014165886677801609,-0.033601634204387665,-0.013260145671665668
1761315171607532000,1.258531982421875,-0.008695486932992935,-0.0533742755651474,-0.030700920149683952
1761315171617579000,1.2685791015625,-0.011954663321375847,-0.08349702507257462,-0.042394328862428665
1761315171627626200,1.278626220703125,-0.0181070975959301,-0.08846621960401535,-0.023731695488095284
1761315171637674000,1.288674072265625,-0.03230547532439232,-0.04385107755661011,0.012718458659946918
1761315171647721000,1.298720947265625,-0.03887815773487091,-0.00942093227058649,0.03699743375182152
1761315171657769000,1.30876904296875,-0.024235298857092857,0.014672419987618923,0.057127732783555984
1761315171667816200,1.318816162109375,0.0009384979493916035,0.01835636980831623,0.07579276710748672
1761315171677863200,1.32886328125,0.017732124775648117,0.019156916067004204,0.08884625136852264
1761315171687911000,1.338910888671875,0.026789270341396332,-0.0018823222490027547,0.08820043504238129
1761315171697958000,1.3489580078125,0.035049062222242355,-0.04483990743756294,0.07111065834760666
1761315171708006100,1.359006103515625,0.03843154385685921,-0.06239253655076027,0.049081526696681976
1761315171718053000,1.36905322265625,0.034684475511312485,-0.05053294822573662,0.04116900637745857
1761315171728101000,1.37910107421875,0.0321161262691021,-0.03773432970046997,0.03689836338162422
1761315171738148000,1.389148193359375,0.029085980728268623,-0.03500325605273247,0.03434306010603905
1761315171748195000,1.399195068359375,0.034579548984766006,-0.030000776052474976,0.02871073968708515
1761315171758243000,1.4092431640625,0.0387633740901947,-0.026796460151672363,0.016274843364953995
1761315171768290000,1.4192900390625,0.027088608592748642,-0.020783042535185814,0.013363475911319256
1761315171778338300,1.42933837890625,0.013728861697018147,-0.0009933591354638338,0.02052631415426731
1761315171788385300,1.43938525390625,0.00040772996726445854,0.016116918995976448,0.019159846007823944
1761315171798433000,1.44943310546875,-0.008085090667009354,0.011509116739034653,0.01519786100834608
1761315171808480000,1.45947998046875,-0.002633600030094385,-0.011659053154289722,0.00552259711548686
1761315171818527000,1.46952685546875,0.004746019374579191,-0.03176139295101166,-0.0004575310740619898
1761315171828575200,1.4795751953125,0.010238522663712502,-0.044830322265625,-0.008262723684310913
1761315171838622200,1.489622314453125,0.0235292948782444,-0.05554235354065895,-0.022177474573254585
1761315171848670000,1.499669921875,0.0339217483997345,-0.06869091093540192,-0.031870048493146896
1761315171858717000,1.509717041015625,0.03265541419386864,-0.06462879478931427,-0.026008164510130882
1761315171868765200,1.51976513671875,0.02435966767370701,-0.029642047360539436,-0.010365289635956287
1761315171878812200,1.529812255859375,0.01720668375492096,0.007523163687437773,0.0035033884923905134
1761315171888859100,1.539859130859375,0.01519786100834608,0.021348964422941208,0.003949468024075031
1761315171898907100,1.5499072265625,0.010456635616719723,0.01284602377563715,0.015117966569960117
1761315171908954000,1.5599541015625,0.009827064350247383,0.005825398489832878,0.03795457258820534
1761315171919002000,1.570002197265625,0.011029215529561043,-0.014883342199027538,0.058568503707647324
1761315171929049000,1.580049072265625,0.017072459682822227,-0.036322854459285736,0.060920074582099915
1761315171939096000,1.590095947265625,0.023070698603987694,-0.041184186935424805,0.0579538457095623
1761315171949144000,1.60014404296875,0.018085526302456856,-0.021674135699868202,0.05035398527979851
1761315171959191000,1.61019091796875,0.01846662536263466,-0.018152372911572456,0.03912902623414993
1761315171969239000,1.620239013671875,0.014629276469349861,-0.017376327887177467,0.03466397151350975
1761315171979286300,1.630286376953125,0.014886803925037384,-0.011979963630437851,0.02877172641456127
1761315171989334000,1.640333984375,0.015152587555348873,-0.007677893154323101,0.019708989188075066
1761315171999381000,1.650381103515625,0.008871521800756454,-0.015090801753103733,0.011272095143795013
1761315172009428000,1.660427978515625,0.0057404437102377415,-0.01732279732823372,0.010998588986694813
1761315172019476200,1.670476318359375,0.012227637693285942,0.00023542344570159912,0.006286391522735357
1761315172029523200,1.680523193359375,0.013486247509717941,0.0021315941121429205,-0.004552141297608614
1761315172039571000,1.690571044921875,0.022211829200387,-0.013353622518479824,-0.009406285360455513
1761315172049618000,1.700617919921875,0.03161172196269035,-0.016473514959216118,-0.0024554345291107893
1761315172059666200,1.710666259765625,0.0255756676197052,-0.005880792159587145,0.019049590453505516
1761315172069713200,1.720713134765625,0.010264622047543526,0.000031957933970261365,0.02654452621936798
1761315172079760100,1.730760009765625,0.004963599611073732,0.006101301871240139,0.019934559240937233
1761315172089808000,1.740807861328125,0.005317800212651491,0.005682653281837702,0.00307621737010777
1761315172099855000,1.750855224609375,0.005603291094303131,-0.013833257369697094,-0.01715714856982231
1761315172109903000,1.760903076171875,0.011389008723199368,-0.02647102251648903,-0.03713378682732582
1761315172119950000,1.7709501953125,0.01944187469780445,-0.02503291517496109,-0.05837143212556839
1761315172129997000,1.7809970703125,0.024519991129636765,-0.027091804891824722,-0.0811353325843811
1761315172140045000,1.791045166015625,0.027107251808047295,-0.030043652281165123,-0.09932658821344376
1761315172150092000,1.801092041015625,0.0214187391102314,-0.025116005912423134,-0.09899928420782089
1761315172160140000,1.81114013671875,0.006972688250243664,-0.008681639097630978,-0.09281382709741592
1761315172170187000,1.82118701171875,0.001528920722194016,0.0015763250412419438,-0.0815206915140152
1761315172180235300,1.8312353515625,0.000477504770969972,0.004756139125674963,-0.07296422123908997
1761315172190282000,1.841281982421875,0.005505819339305162,0.005241899751126766,-0.0599307119846344
1761315172200329000,1.851328857421875,0.0200370904058218,-0.0019028285751119256,-0.04324787110090256
1761315172210377000,1.861376953125,0.03427727892994881,-0.009771137498319149,-0.017889518290758133
1761315172220424200,1.871424072265625,0.04115462675690651,-0.011366637423634529,0.007889614440500736
1761315172230472200,1.88147216796875,0.04348995164036751,-0.014490259811282158,0.019345467910170555
1761315172240519200,1.891519287109375,0.040292561054229736,-0.02435940131545067,0.02436179853975773
1761315172250567000,1.90156689453125,0.03506344556808472,-0.025380190461874008,0.015291071496903896
1761315172260613000,1.911613037109375,0.024169251322746277,-0.01840697042644024,0.004344148561358452
1761315172270660000,1.92166015625,0.017540378496050835,-0.013606090098619461,-0.0015646071406081319
1761315172280708400,1.931708251953125,0.01750336028635502,-0.005388373974710703,-0.0014181332662701607
1761315172290755300,1.94175537109375,0.013584517873823643,-0.0016474314033985138,-0.0004090615548193455
1761315172300803000,1.951802978515625,0.013115535490214825,-0.00857298169285059,0.004915129859000444
1761315172310850000,1.96185009765625,0.009925601072609425,-0.0037502634804695845,0.01876889355480671
1761315172320898300,1.971898193359375,0.005166266113519669,0.005588377360254526,0.02286989614367485
1761315172330945300,1.9819453125,-0.0003880225704051554,-0.008896555751562119,0.016891365870833397
1761315172340992300,1.9919921875,0.001427987008355558,-0.019768910482525826,0.012770123779773712
1761315172351040000,2.0020400390625,0.003232811111956835,-0.015172561630606651,0.014196512289345264
1761315172361087000,2.0120869140625,0.0003528688393998891,-0.012899020686745644,0.006905043963342905
1761315172371135200,2.02213525390625,-0.005751628894358873,-0.021877335384488106,-0.007211840245872736
1761315172381182200,2.03218212890625,0.003597131697461009,-0.01677977852523327,-0.02081499993801117
1761315172391230200,2.042230224609375,0.008286692202091217,-0.01506976317614317,-0.025240374729037285
1761315172401277200,2.052277099609375,0.006632070057094097,-0.011325891129672527,-0.02696423977613449
1761315172411324200,2.06232421875,0.008564460091292858,-0.006043777801096439,-0.028192488476634026
1761315172421372200,2.0723720703125,0.008384163491427898,-0.007637679576873779,-0.0356978103518486
1761315172431419100,2.082419189453125,0.008866994641721249,-0.009841179475188255,-0.02876320481300354
1761315172441467400,2.09246728515625,0.006592122372239828,0.005064000841230154,-0.0044996771030128
1761315172451514400,2.102514404296875,0.005745769944041967,0.016159528866410255,0.007929561659693718
1761315172461561000,2.11256103515625,0.0007123955874703825,0.004426972474902868,-0.0024056334514170885
1761315172471609000,2.122609130859375,0.0016490293201059103,-0.020497551187872887,-0.020797956734895706
1761315172481656300,2.13265625,0.006039782892912626,-0.04105129465460777,-0.04126781225204468
1761315172491704300,2.142704345703125,0.0007933556917123497,-0.029521407559514046,-0.04451979696750641
1761315172501751300,2.152751220703125,-0.006698116194456816,-0.009189769625663757,-0.03175526484847069
1761315172511799000,2.162799072265625,-0.00959749985486269,0.004758536349982023,-0.02148798108100891
1761315172521846300,2.17284619140625,-0.0057042245753109455,0.01212936732918024,-0.019266372546553612
1761315172531893200,2.182893310546875,0.00119629199616611,0.005376123357564211,-0.028011927381157875
1761315172541941200,2.192941162109375,0.009497897699475288,-0.011171960271894932,-0.0421099029481411
1761315172551988200,2.20298828125,0.010338923893868923,-0.018872490152716637,-0.05662386491894722
1761315172562036200,2.2130361328125,0.007364705670624971,-0.03253690525889397,-0.06970344483852386
1761315172572083200,2.223083251953125,0.0001994707708945498,-0.04300978407263756,-0.07815392315387726
1761315172582131200,2.233131103515625,-0.008960471488535404,-0.03590899705886841,-0.07840026915073395
1761315172592178200,2.24317822265625,-0.021207816898822784,-0.010992730036377907,-0.06501255184412003
1761315172602225400,2.253225341796875,-0.028294488787651062,0.012203935533761978,-0.04917367175221443
1761315172612273200,2.263273193359375,-0.029393041506409645,0.021744176745414734,-0.03273504227399826
1761315172622320000,2.273320068359375,-0.025543443858623505,0.019589945673942566,-0.01363431941717863
1761315172632368000,2.2833681640625,-0.03145299851894379,0.002498843939974904,-0.004776645917445421
1761315172642415400,2.293415283203125,-0.03789172321557999,-0.010089118964970112,-0.0025595640763640404
1761315172652463000,2.303463134765625,-0.03791302815079689,-0.009557286277413368,0.004965730011463165
1761315172662510000,2.313510009765625,-0.03792181611061096,-0.014300642535090446,0.010878480039536953
1761315172672557000,2.32355712890625,-0.03827361762523651,-0.02557540126144886,0.012720055878162384
1761315172682605300,2.333605224609375,-0.030072415247559547,-0.03604988008737564,0.005251220893114805
1761315172692652300,2.34365234375,-0.025714151561260223,-0.035770248621702194,-0.0002311623829882592
1761315172702700000,2.353699951171875,-0.015121961012482643,-0.03334064781665802,0.0003608583356253803
1761315172712747000,2.3637470703125,-0.014037256129086018,-0.026126675307750702,-0.0004873584839515388
1761315172722794200,2.373794189453125,-0.01031761895865202,-0.021685587242245674,-0.007115433923900127
1761315172732842200,2.38384228515625,-0.003379018744453788,-0.03196538984775543,-0.019406987354159355
1761315172742889200,2.39388916015625,0.000020240024241502397,-0.04591263085603714,-0.02617887407541275
1761315172752937200,2.403937255859375,-0.005459479987621307,-0.029987460002303123,-0.016767794266343117
1761315172762984200,2.413984130859375,-0.01847754418849945,-0.020414194092154503,-0.010212689638137817
1761315172773032200,2.4240322265625,-0.02883111499249935,-0.004135889001190662,-0.014276940375566483
1761315172783079200,2.4340791015625,-0.036012064665555954,-0.0023310647811740637,-0.017302557826042175
1761315172793126100,2.444126220703125,-0.04945383593440056,-0.019031748175621033,-0.017406154423952103
1761315172803174100,2.454174072265625,-0.0552922822535038,-0.023666979745030403,-0.014517157338559628
1761315172813221000,2.46422119140625,-0.055443551391363144,-0.025706162676215172,-0.011460380628705025
1761315172823269000,2.47426904296875,-0.047688692808151245,-0.033671408891677856,-0.012377840466797352
1761315172833316000,2.484316162109375,-0.050581417977809906,-0.0347348116338253,-0.0059963734820485115
1761315172843364400,2.4943642578125,-0.062123823910951614,-0.028126975521445274,-0.005388107616454363
1761315172853411000,2.5044111328125,-0.0728374570608139,-0.029317941516637802,-0.012918994762003422
1761315172863458000,2.5144580078125,-0.08146370202302933,-0.027106452733278275,-0.02129596658051014
1761315172873506300,2.52450634765625,-0.08368610590696335,-0.022593725472688675,-0.03032301738858223
1761315172883553300,2.53455322265625,-0.07853475213050842,-0.016596287488937378,-0.019051721319556236
1761315172893601300,2.544601318359375,-0.06988241523504257,-0.010597516782581806,-0.00509995361790061
1761315172903648300,2.554648193359375,-0.0514615923166275,-0.007139934692531824,0.012205533683300018
1761315172913696300,2.5646962890625,-0.03700808435678482,-0.01203961856663227,0.018249310553073883
1761315172923743200,2.5747431640625,-0.0194338858127594,-0.023965520784258842,0.017066335305571556
1761315172933790200,2.584790283203125,-0.01239195466041565,-0.030472422018647194,0.01441196259111166
1761315172943838200,2.594838134765625,-0.006997722201049328,-0.0394241064786911,0.019628562033176422
1761315172953885400,2.604885498046875,-0.012615393847227097,-0.04490382596850395,0.027486750856041908
1761315172963933200,2.61493310546875,-0.0176229365170002,-0.038186002522706985,0.03430870547890663
1761315172973980200,2.624980224609375,-0.024326378479599953,-0.017519870772957802,0.051713261753320694
1761315172984027100,2.635027099609375,-0.031429827213287354,-0.0052259210497140884,0.06274674087762833
1761315172994075400,2.645075439453125,-0.03465917706489563,-0.0080912159755826,0.06423677504062653
1761315173004122400,2.655122314453125,-0.032043952494859695,-0.023189475759863853,0.06094324588775635
1761315173014170000,2.665170166015625,-0.02527552843093872,-0.03274090215563774,0.055030763149261475
1761315173024217000,2.675217041015625,-0.02249785140156746,-0.02671550028026104,0.05390770733356476
1761315173034265300,2.685265380859375,-0.020709272474050522,-0.018797123804688454,0.042753588408231735
1761315173044312300,2.695312255859375,-0.012113122269511223,-0.024953020736575127,0.029572805389761925
1761315173054359300,2.705359375,-0.0017651431262493134,-0.030065756291151047,0.017732124775648117
1761315173064407000,2.715406982421875,0.007382815238088369,-0.03496277704834938,0.007708253338932991
1761315173074454300,2.725454345703125,0.00842704065144062,-0.03593190014362335,0.013881993480026722
1761315173084502300,2.735502197265625,0.015689214691519737,-0.015850069001317024,0.02370106801390648
1761315173094549200,2.74554931640625,0.019421368837356567,-0.010241718962788582,0.028120318427681923
1761315173104597000,2.755596923828125,0.019779562950134277,-0.015784556046128273,0.019689815118908882
1761315173114644200,2.765644287109375,0.021442973986268044,-0.019039470702409744,0.01315068919211626
1761315173124691200,2.775691162109375,0.019816581159830093,-0.012517656199634075,0.012437494471669197
1761315173134739200,2.7857392578125,0.01848233863711357,-0.004736165516078472,0.014844992198050022
1761315173144786200,2.7957861328125,0.01170139666646719,0.0017662084428593516,0.0154956029728055
1761315173154834200,2.805834228515625,0.007859520614147186,-0.000526773277670145,0.01176424790173769
1761315173164881200,2.815881103515625,0.0046762446872889996,-0.012153868563473225,0.007510380353778601
1761315173174929200,2.82592919921875,0.006967894732952118,-0.019808858633041382,-0.0057620154693722725
1761315173184976100,2.83597607421875,0.009400691837072372,-0.022241655737161636,-0.01829911209642887
1761315173195023400,2.8460234375,0.014156032353639603,-0.02526860497891903,-0.019086075946688652
1761315173205071000,2.856071044921875,0.013312077149748802,-0.01637098379433155,-0.020924722775816917
1761315173215118000,2.8661181640625,0.010281133465468884,-0.00678227236494422,-0.02028636261820793
1761315173225166300,2.876166259765625,0.01190992258489132,-0.005795304663479328,-0.019269036129117012
1761315173235213300,2.88621337890625,0.018001370131969452,-0.012003133073449135,-0.015569105744361877
1761315173245261300,2.89626123046875,0.025120267644524574,-0.01318025030195713,-0.012265721336007118
1761315173255308000,2.90630810546875,0.03223570063710213,-0.020709805190563202,-0.020730312913656235
1761315173265355800,2.916355712890625,0.0354277640581131,-0.03669702634215355,-0.032469525933265686
1761315173275404000,2.926404052734375,0.0385734923183918,-0.0432814285159111,-0.041029192507267
1761315173285451000,2.936450927734375,0.03778572753071785,-0.043232426047325134,-0.04325719177722931
1761315173295498800,2.946498779296875,0.0349060520529747,-0.03815937042236328,-0.04091574251651764
1761315173305545700,2.956545654296875,0.02317163161933422,-0.019778231158852577,-0.026019882410764694
1761315173315592700,2.9665927734375,0.012633503414690495,0.005012601613998413,-0.010482202284038067
1761315173325641000,2.976640869140625,0.0061521683819592,0.018383800983428955,0.004619519226253033
1761315173335688000,2.98668798828125,0.006292783189564943,0.014404239133000374,0.013047358952462673
1761315173345735700,2.996735595703125,0.01290354784578085,0.003537476761266589,0.021828865632414818
1761315173355783000,3.006782958984375,0.015419702976942062,-0.012531770393252373,0.025125859305262566
1761315173365831000,3.016830810546875,0.014385330490767956,-0.023603862151503563,0.02233007363975048
1761315173375878000,3.0268779296875,0.005766542628407478,-0.026991937309503555,0.011753062717616558
1761315173385924900,3.0369248046875,0.006129531655460596,-0.022886939346790314,-0.003727626521140337
1761315173395972900,3.046972900390625,0.009326389990746975,-0.019759856164455414,-0.005471464246511459
1761315173406019800,3.057019775390625,0.0043984767980873585,-0.008412659168243408,-0.00001704423084447626
1761315173416067800,3.06706787109375,0.0006559365428984165,0.001600293442606926,0.006588127929717302
1761315173426114800,3.07711474609375,0.004836566746234894,-0.0033984598703682423,0.009649964049458504
1761315173436163000,3.0871630859375,0.01853746548295021,-0.009343434125185013,0.005647233221679926
1761315173446209800,3.097209716796875,0.02515169233083725,-0.0028873991686850786,0.006313555873930454
1761315173456256800,3.1072568359375,0.021685853600502014,0.007309045642614365,0.014846057631075382
1761315173466304800,3.1173046875,0.019901270046830177,0.02250530943274498,0.02058090828359127
1761315173476352000,3.12735205078125,0.020547619089484215,0.027471039444208145,0.022938871756196022
1761315173486400000,3.13739990234375,0.01996625028550625,0.009306948632001877,0.0099636847153306
1761315173496446700,3.14744677734375,0.018931346014142036,-0.00005832322858623229,0.004907673224806786
1761315173506493700,3.15749365234375,0.020834974944591522,0.006542587652802467,-0.00048416267964057624
1761315173516542000,3.1675419921875,0.018572885543107986,0.0016503608785569668,-0.0002639192680362612
1761315173526589000,3.1775888671875,0.028495291247963905,-0.006913566030561924,-0.004597414750605822
1761315173536637000,3.187636962890625,0.02545609138906002,-0.004861867055296898,-0.0031150993891060352
1761315173546684000,3.197683837890625,0.023798007518053055,0.012057994492352009,0.007157245185226202
1761315173556732000,3.20773193359375,0.022729547694325447,0.01360209472477436,0.010408964939415455
1761315173566779000,3.21777880859375,0.025558356195688248,0.010480337776243687,0.012564794160425663
1761315173576825900,3.227825927734375,0.025041969493031502,0.006201170384883881,0.018461031839251518
1761315173586873900,3.237873779296875,0.02846812643110752,0.0007888282998465002,0.01661412976682186
1761315173596921000,3.247921142578125,0.03118082322180271,-0.004091946873813868,0.020383834838867188
1761315173606968800,3.25796875,0.03400750085711479,0.0013821806060150266,0.026394056156277657
1761315173617015800,3.268015869140625,0.030908381566405296,0.007650196552276611,0.030099311843514442
1761315173627063800,3.278063720703125,0.03223862871527672,0.005090366117656231,0.02280384860932827
1761315173637111000,3.288111083984375,0.037577737122774124,0.0003765709698200226,0.01242417935281992
1761315173647158000,3.298157958984375,0.038607314229011536,-0.0099008334800601,0.009374327026307583
1761315173657205800,3.308205810546875,0.03545546159148216,-0.011143730953335762,0.013492639176547527
1761315173667252700,3.318252685546875,0.027544010430574417,-0.010191118344664574,0.01080018375068903
1761315173677301000,3.328301025390625,0.024351678788661957,-0.011410580016672611,0.004997155629098415
1761315173687348000,3.338347900390625,0.022107167169451714,-0.005254416726529598,0.007521831896156073
1761315173697395700,3.348395751953125,0.023470439016819,0.0025425199419260025,0.005194229539483786
1761315173707442700,3.358442626953125,0.02520335651934147,0.0076030585914850235,0.004591555800288916
1761315173717490000,3.368489990234375,0.025861158967018127,0.001900964416563511,-0.0012681973166763783
1761315173727538000,3.378537841796875,0.031626634299755096,-0.00404667342081666,-0.011067830957472324
1761315173737585000,3.3885849609375,0.0378861278295517,-0.01841362752020359,-0.029167739674448967
1761315173747633000,3.3986328125,0.04964185506105423,-0.03086337447166443,-0.04706497862935066
1761315173757679900,3.408679931640625,0.05332500487565994,-0.03325489163398743,-0.058210574090480804
1761315173767726800,3.418726806640625,0.05138462781906128,-0.02816772274672985,-0.051105793565511703
1761315173777774800,3.42877490234375,0.03485332056879997,-0.009241967462003231,-0.03446982800960541
1761315173787821800,3.43882177734375,0.022003035992383957,0.009663013741374016,-0.019515644758939743
1761315173797869800,3.448869873046875,0.014260695315897465,0.015166969038546085,-0.012761068530380726
1761315173807916800,3.458916748046875,0.01336054690182209,0.014069213531911373,-0.010745588690042496
1761315173817964800,3.46896484375,0.015035408549010754,0.006583333946764469,-0.006366819143295288
1761315173828011800,3.47901171875,0.015506788156926632,-0.006140450481325388,-0.004248274490237236
1761315173838059000,3.48905908203125,0.01925412192940712,-0.016166985034942627,0.0007837683078832924
1761315173848106800,3.499106689453125,0.01417360920459032,-0.01582769863307476,0.004425374791026115
1761315173858153700,3.50915380859375,0.010691259987652302,-0.008978048339486122,0.005088235717266798
1761315173868202000,3.519201904296875,0.009771936573088169,-0.010271280072629452,-0.004944424610584974
1761315173878249000,3.5292490234375,0.009505088441073895,-0.007040865253657103,-0.007661648094654083
1761315173888296000,3.5392958984375,0.008981244638562202,0.002770220162346959,-0.014342720620334148
1761315173898343700,3.54934375,0.0046578687615692616,-0.0006138586322776973,-0.014645787887275219
1761315173908390700,3.559390625,0.004570783115923405,0.0016977651976048946,-0.009350358508527279
1761315173918439000,3.56943896484375,0.0083687175065279,-0.00032197617110796273,-0.009828396141529083
1761315173928486000,3.57948583984375,0.010260626673698425,-0.0023430490400642157,-0.007795072626322508
1761315173938534000,3.589533935546875,0.016346216201782227,-0.0062674833461642265,-0.0002561961009632796
1761315173948580900,3.599580810546875,0.021311679854989052,-0.009492571465671062,0.0017038905061781406
1761315173958627800,3.6096279296875,0.022838469594717026,-0.008359395898878574,0.006470948923379183
1761315173968675800,3.61967578125,0.014669756405055523,-0.009255549870431423,0.0029313412960618734
1761315173978722800,3.629722900390625,0.0156133146956563,-0.013233513571321964,-0.0002545981842558831
1761315173988771000,3.63977099609375,0.005838980432599783,-0.010876616463065147,-0.0001382180635118857
1761315173998818000,3.649818115234375,0.0013203952694311738,-0.0038988678716123104,0.003480751533061266
1761315174008864800,3.65986474609375,-0.010017214342951775,-0.004935103934258223,-0.001745968358591199
1761315174018912800,3.669912841796875,-0.013746704906225204,-0.008581504225730896,-0.014274276793003082
1761315174028959700,3.679959716796875,-0.013352024368941784,-0.0070853400975465775,-0.024927720427513123
1761315174039008000,3.690008056640625,-0.010966897010803223,-0.011502725072205067,-0.03476889804005623
1761315174049055000,3.700054931640625,-0.010480870492756367,-0.017893780022859573,-0.0439368300139904
1761315174059102700,3.710102783203125,-0.0054546864703297615,-0.013675598427653313,-0.04254506155848503
1761315174069150000,3.72014990234375,-0.0025331987999379635,-0.009345564991235733,-0.0536925233900547
1761315174079197000,3.730197021484375,-0.0026940538082271814,-0.00998951680958271,-0.06786373257637024
1761315174089245000,3.740244873046875,-0.007105313707143068,-0.019665846601128578,-0.08738577365875244
1761315174099292000,3.7502919921875,-0.014553642831742764,-0.028380773961544037,-0.1061599925160408
1761315174109340000,3.76033984375,-0.01654595322906971,-0.031078290194272995,-0.11308979988098145
1761315174119387000,3.770386962890625,-0.021625932306051254,-0.026667829602956772,-0.10739889740943909
1761315174129433900,3.780433837890625,-0.023149527609348297,-0.022166820243000984,-0.09098636358976364
1761315174139481900,3.79048193359375,-0.019756659865379333,-0.02165895700454712,-0.06865575909614563
1761315174149529000,3.800529052734375,-0.02058730088174343,-0.012148275971412659,-0.04604552313685417
1761315174159576800,3.810576904296875,-0.017007479444146156,-0.0049398974515497684,-0.024747157469391823
1761315174169623800,3.820623779296875,-0.00896819494664669,-0.012918462045490742,-0.01206704881042242
1761315174179671800,3.830671875,-0.00449807895347476,-0.02310079149901867,-0.008914931677281857
1761315174189719000,3.840718994140625,0.0018753979820758104,-0.02099396474659443,-0.004789961501955986
1761315174199766000,3.85076611328125,0.008050469681620598,-0.020289825275540352,0.0009169263648800552
1761315174209813800,3.860813720703125,0.00896899402141571,-0.02551867626607418,-0.0013456953456625342
1761315174219860700,3.87086083984375,0.01344763208180666,-0.028475848957896233,-0.000493750034365803
1761315174229909000,3.880908935546875,0.014466024935245514,-0.022914636880159378,-0.000529436394572258
1761315174239956000,3.8909560546875,0.014029799029231071,-0.008408132009208202,-0.0032621060963720083
1761315174250003000,3.9010029296875,0.012527243234217167,-0.011371963657438755,-0.0009941579774022102
1761315174260050400,3.911050537109375,0.014681207947432995,-0.01653982885181904,0.004664260428398848
1761315174270097700,3.92109765625,0.010387393645942211,-0.011926434002816677,0.00734340026974678
1761315174280145700,3.931145751953125,0.010524812154471874,-0.0046813045628368855,0.01624767854809761
1761315174290192600,3.941192626953125,0.012309662997722626,0.005376123357564211,0.018277008086442947
1761315174300240600,3.95124072265625,0.010492055676877499,-0.0017718010349199176,0.023061111569404602
1761315174310287600,3.96128759765625,0.012823387049138546,-0.013294500298798084,0.019059445708990097
1761315174320334600,3.97133447265625,0.014616493135690689,-0.021324995905160904,0.019881563261151314
1761315174330382600,3.981382568359375,0.01079858560115099,-0.01792893372476101,0.02022191509604454
1761315174340429600,3.9914296875,0.008745288476347923,-0.011913650669157505,0.018376611173152924
1761315174350477600,4.0014775390625,0.0030301446095108986,-0.005918342620134354,0.015789881348609924
1761315174360524500,4.011524658203125,-0.008175105787813663,-0.00003888214996550232,0.013699833303689957
1761315174370571500,4.021571533203125,-0.012162123806774616,0.00016165387933142483,0.00115394766908139
1761315174380619500,4.03161962890625,-0.009532518684864044,-0.0020823257509618998,-0.006452040281146765
1761315174390666800,4.041666748046875,-0.009107211604714394,0.0002926813904196024,-0.010124539025127888
1761315174400714800,4.05171484375,-0.008095210418105125,0.005792108830064535,-0.008582036942243576
1761315174410761500,4.061761474609375,-0.014342187903821468,0.013716877438127995,-0.009819607250392437
1761315174420809500,4.0718095703125,-0.022309033200144768,0.01278530340641737,-0.014150439761579037
1761315174430856700,4.081856689453125,-0.026033198460936546,-0.0004370247188489884,-0.023840351030230522
1761315174440903700,4.091903564453125,-0.019244268536567688,-0.013523265719413757,-0.026398051530122757
1761315174450951700,4.10195166015625,-0.004259193316102028,-0.03021436184644699,-0.025112010538578033
1761315174460998700,4.11199853515625,0.004013383761048317,-0.050282079726457596,-0.016629310324788094
1761315174471046700,4.122046630859375,0.024324247613549232,-0.03701580688357353,-0.010275807231664658
1761315174481093600,4.13209375,0.039321038872003555,-0.015303322114050388,0.00021917815320193768
1761315174491140600,4.142140625,0.04472459480166435,-0.00743075180798769,0.008493353612720966
1761315174501188600,4.152188720703125,0.048584312200546265,0.0016767261549830437,0.021931663155555725
1761315174511235800,4.16223583984375,0.048173122107982635,0.013251356780529022,0.033004555851221085
1761315174521283600,4.17228369140625,0.051601409912109375,0.006127933505922556,0.02827637828886509
1761315174531330600,4.18233056640625,0.047630101442337036,-0.013154151849448681,0.023813188076019287
1761315174541377500,4.19237744140625,0.05127304047346115,-0.01882535219192505,0.017556356266140938
1761315174551425800,4.20242578125,0.053700514137744904,-0.018692994490265846,0.010782606899738312
1761315174561472800,4.21247265625,0.05099101364612579,-0.01877528615295887,0.004756139125674963
1761315174571520500,4.2225205078125,0.05067702382802963,-0.02846200205385685,-0.004647482186555862
1761315174581567500,4.2325673828125,0.046478819102048874,-0.03249562531709671,-0.014309430494904518
1761315174591615700,4.24261572265625,0.03250015154480934,-0.02377856709063053,-0.02020939812064171
1761315174601662700,4.252662841796875,0.02328215353190899,-0.007679224945604801,-0.027877969667315483
1761315174611709700,4.262709716796875,0.008951683528721333,-0.0003933488915208727,-0.0333813913166523
1761315174621757400,4.27275732421875,-0.003177950158715248,-0.004253867082297802,-0.031551800668239594
1761315174631804700,4.2828046875,-0.011873703449964523,-0.004566255956888199,-0.02640417590737343
1761315174641852700,4.292852783203125,-0.013538178987801075,-0.0024429175537079573,-0.026512833312153816
1761315174651899600,4.302899658203125,-0.007769505959004164,-0.005167864263057709,-0.02472132444381714
1761315174661946600,4.312946533203125,-0.007255516014993191,-0.00882038939744234,-0.024991635233163834
1761315174671994600,4.32299462890625,-0.005230714567005634,-0.007084008306264877,-0.025232652202248573
1761315174682041600,4.33304150390625,-0.003984621725976467,-0.003608849598094821,-0.029799174517393112
1761315174692089600,4.343089599609375,-0.003206445835530758,-0.0039880839176476,-0.03371455520391464
1761315174702136600,4.353136474609375,-0.005530053749680519,0.0041004689410328865,-0.03803020715713501
1761315174712183800,4.363183837890625,-0.0025595640763640404,0.004173705819994211,-0.042280346155166626
1761315174722231600,4.3732314453125,-0.004572647623717785,0.003743072971701622,-0.047021571546792984
1761315174732278500,4.383278564453125,-0.0059745353646576405,0.008831574581563473,-0.04634113237261772
1761315174742326800,4.393326904296875,-0.00449807895347476,0.01938621513545513,-0.042446792125701904
1761315174752373800,4.403373779296875,-0.0051835766062140465,0.035539086908102036,-0.03439871966838837
1761315174762421500,4.41342138671875,-0.006191316992044449,0.03128548339009285,-0.026326145976781845
1761315174772468500,4.423468505859375,0.00029774141148664057,0.010297911241650581,-0.029333921149373055
1761315174782515500,4.433515380859375,0.004494350403547287,-0.01284735556691885,-0.021261611953377724
1761315174792563700,4.443563720703125,0.013002084568142891,-0.020303141325712204,-0.01823759265244007
1761315174802610700,4.453610595703125,0.02148478478193283,-0.00700730923563242,-0.008018511347472668
1761315174812658400,4.463658447265625,0.031267374753952026,0.00484402384608984,0.004237355664372444
1761315174822705400,4.473705322265625,0.033672742545604706,0.01666632853448391,0.01774703897535801
1761315174832752600,4.483752685546875,0.04554324969649315,0.013167999684810638,0.028424184769392014
1761315174842800600,4.493800537109375,0.05390291288495064,0.004677842371165752,0.03494706377387047
1761315174852847600,4.50384765625,0.06401760131120682,-0.003600061172619462,0.04614858701825142
1761315174862895600,4.5138955078125,0.07408434897661209,-0.00755112711340189,0.04734354838728905
1761315174872942600,4.523942626953125,0.07745218276977539,-0.014582937583327293,0.04778829589486122
1761315174882989600,4.533989501953125,0.07517837733030319,-0.01607590541243553,0.04224732145667076
1761315174893037600,4.54403759765625,0.07083635777235031,-0.01762533187866211,0.029323533177375793
1761315174903084500,4.55408447265625,0.0643472969532013,-0.015737151727080345,0.012229502201080322
1761315174913132500,4.564132568359375,0.06204792484641075,-0.012849219143390656,0.0015592807903885841
1761315174923179500,4.574179443359375,0.05553117021918297,-0.006809703074395657,-0.005755091086030006
1761315174933227500,4.5842275390625,0.04826207086443901,0.012516590766608715,-0.0021169467363506556
1761315174943274800,4.594274658203125,0.02760952338576317,0.012717659585177898,0.0007337008719332516
1761315174953321700,4.60432177734375,0.013857758603990078,0.0015121428295969963,-0.005249356850981712
1761315174963369700,4.61436962890625,0.0008737831376492977,-0.009572732262313366,-0.012004198506474495
1761315174973416400,4.62441650390625,-0.003067428944632411,-0.014049239456653595,-0.015616243705153465
1761315174983464700,4.634464599609375,-0.0016961672808974981,-0.012803412973880768,-0.024897359311580658
1761315174993511700,4.64451171875,0.001321194227784872,-0.014421815983951092,-0.02382623590528965
1761315175003558700,4.65455859375,0.003870371961966157,-0.00839747954159975,-0.018367821350693703
1761315175013606700,4.664606689453125,0.006229133810847998,-0.0035870117135345936,-0.009534383192658424
1761315175023653600,4.674653564453125,0.010152769275009632,-0.0003067961661145091,-0.0013108078856021166
1761315175033701600,4.68470166015625,0.007447530049830675,0.002578738844022155,0.008642756380140781
1761315175043748600,4.69474853515625,0.0011259844759479165,-0.01037647482007742,0.030107568949460983
1761315175053795600,4.704795654296875,0.0006303702248260379,0.00390312890522182,0.05944867804646492
1761315175063843800,4.71484375,0.005274390336126089,0.0025779400020837784,0.07381350547075272
1761315175073890600,4.724890625,0.013102752156555653,-0.007526359520852566,0.07572431862354279
1761315175083938600,4.7349384765625,0.02273513935506344,-0.01080018375068903,0.07791024446487427
1761315175093985500,4.744985595703125,0.027883829548954964,-0.014505439437925816,0.07207418978214264
1761315175104032500,4.755032470703125,0.03213077038526535,-0.0171427670866251,0.0649142861366272
1761315175114080800,4.765080810546875,0.03458567336201668,-0.01757499948143959,0.049607232213020325
1761315175124127700,4.775127685546875,0.029083849862217903,-0.02027171663939953,0.031611986458301544
1761315175134175500,4.785175537109375,0.028602084144949913,-0.019950805231928825,0.02051885798573494
1761315175144222700,4.79522265625,0.025855831801891327,-0.015370167791843414,0.010908041149377823
1761315175154270700,4.805270751953125,0.020130302757024765,-0.018439726904034615,0.0099034970626235
1761315175164317700,4.815317626953125,0.016461264342069626,-0.01984827220439911,0.00632021389901638
1761315175174364700,4.82536474609375,0.015574165619909763,-0.013026852160692215,0.009329319931566715
1761315175184412700,4.83541259765625,0.016396816819906235,-0.006473612040281296,0.012849751859903336
1761315175194459600,4.845459716796875,0.012653211131691933,0.003680222202092409,0.011750399135053158
1761315175204507600,4.855507568359375,0.011392736807465553,-0.0021289309952408075,0.005092762876302004
1761315175214551800,4.8655517578125,0.014578942209482193,-0.006454703398048878,-0.0011952266795560718
1761315175224599600,4.875599609375,0.023119168356060982,-0.006973753683269024,-0.0012333098566159606
1761315175234646500,4.885646484375,0.026944266632199287,-0.006272276863455772,-0.002930542454123497
1761315175244693500,4.895693603515625,0.023511983454227448,-0.00797297153621912,-0.008423578925430775
1761315175254741800,4.90574169921875,0.019901802763342857,-0.0005201153689995408,-0.0036674391012638807
1761315175264789200,4.915789306640625,0.013936055824160576,0.006968427449464798,0.00395665830001235
1761315175274837200,4.925837158203125,0.008548480458557606,0.005730856209993362,0.006969758775085211
1761315175284884500,4.935884521484375,0.012778911739587784,0.0076091839000582695,0.011785552836954594
1761315175294931500,4.945931396484375,0.01931191235780716,0.005852562841027975,0.008668589405715466
1761315175304979200,4.955979248046875,0.025021463632583618,0.0022687469609081745,0.009731722995638847
1761315175315026200,4.966026123046875,0.03044072911143303,-0.0031140341889113188,0.01104466151446104
1761315175325074400,4.976074462890625,0.03220001235604286,-0.00666456064209342,0.01278743427246809
1761315175335121400,4.986121337890625,0.03498168662190437,-0.001558748190291226,0.016230102628469467
1761315175345168400,4.99616845703125,0.035533759742975235,0.0015638081822544336,0.01864718832075596
1761315175355216400,5.00621630859375,0.03144793584942818,-0.0002540655550546944,0.01744903065264225
1761315175365263400,5.016263427734375,0.025945313274860382,0.001933987601660192,0.019808325916528702
1761315175375311400,5.026311279296875,0.0223844014108181,0.004495682194828987,0.015052186325192451
1761315175385358300,5.0363583984375,0.013137905858457088,-0.0005033374181948602,0.012897955253720284
1761315175395405300,5.0464052734375,0.002419215627014637,-0.007286142557859421,0.006429137196391821
1761315175405453600,5.05645361328125,-0.007620369084179401,-0.014901718124747276,0.0016074840677902102
1761315175415500300,5.066500244140625,-0.01113121397793293,-0.013503025285899639,-0.0072962623089551926
1761315175425548300,5.07654833984375,-0.006503173150122166,-0.0072837453335523605,-0.01116263959556818
1761315175435595300,5.08659521484375,0.0018903117161244154,0.0008892294717952609,-0.009387376718223095
1761315175445643500,5.0966435546875,0.002740392694249749,0.002793922321870923,-0.007135940250009298
1761315175455690500,5.1066904296875,0.002228533150628209,0.006463491823524237,-0.0032687638886272907
1761315175465737200,5.1167373046875,0.0007835020078346133,0.00017204020696226507,0.0027363980188965797
1761315175475785200,5.12678515625,0.002127333078533411,-0.01082628220319748,0.008039018139243126
1761315175485832400,5.13683251953125,0.01107289083302021,-0.009708020836114883,0.00493217445909977
1761315175495880400,5.14688037109375,0.02262621559202671,-0.007837416604161263,0.008175372146070004
1761315175505927400,5.156927490234375,0.026383403688669205,-0.006040315609425306,0.005060538649559021
1761315175515974400,5.166974365234375,0.03362294286489487,-0.007523430045694113,0.00833835732191801
1761315175526022400,5.1770224609375,0.038070421665906906,-0.00037710359902121127,0.017282849177718163
1761315175536069400,5.1870693359375,0.03856656700372696,0.005868807900696993,0.023902935907244682
1761315175546117400,5.197117431640625,0.0410933755338192,0.003145193215459585,0.023691214621067047
1761315175556164400,5.207164306640625,0.032225579023361206,0.001660480978898704,0.028080370277166367
1761315175566211600,5.217211669921875,0.02425074391067028,-0.00101173494476825,0.026763437315821648
1761315175576259300,5.22725927734375,0.019776634871959686,-0.0002287655370309949,0.02684439718723297
1761315175586306300,5.237306396484375,0.014690794982016087,0.008329036645591259,0.020380904898047447
1761315175596354600,5.2473544921875,0.011740279383957386,0.008129831403493881,0.01618935540318489
1761315175606401500,5.257401611328125,0.015360314399003983,0.00466532539576292,0.0040765004232525826
1761315175616448500,5.267448486328125,0.019163042306900024,0.002968625631183386,-0.011183146387338638
1761315175626496300,5.277496337890625,0.017778996378183365,-0.004376372788101435,-0.02678474225103855
1761315175636543200,5.287543212890625,0.012294483371078968,-0.010945858433842659,-0.02942500077188015
1761315175646591500,5.297591552734375,0.007335943635553122,-0.007183078210800886,-0.025466211140155792
1761315175656638500,5.307638427734375,0.007027016952633858,-0.007179882377386093,-0.018455440178513527
1761315175666685400,5.317685546875,0.009354619309306145,-0.007671501953154802,-0.0029113676864653826
1761315175676733200,5.327733154296875,0.009828129783272743,-0.006397712044417858,0.01071123406291008
1761315175686780400,5.337780517578125,0.009317335672676563,-0.0015773903578519821,0.019112974405288696
1761315175696828400,5.347828369140625,0.012032161466777325,-0.0006143912323750556,0.02394527941942215
1761315175706875400,5.35787548828125,0.010010289959609509,0.0035028557758778334,0.024149011820554733
1761315175716922400,5.36792236328125,0.00842464342713356,0.005336708389222622,0.021021928638219833
1761315175726970400,5.377970458984375,0.014003966003656387,-0.0003081277245655656,0.017550764605402946
1761315175737017300,5.388017333984375,0.01549240667372942,-0.000570981705095619,0.010374610312283039
1761315175747065300,5.3980654296875,0.0232912078499794,0.0005313006113283336,-0.0015297196805477142
1761315175757112300,5.4081123046875,0.038051243871450424,0.004364122170954943,-0.013064403086900711
1761315175767159600,5.41815966796875,0.05200541019439697,0.01359463855624199,-0.022826485335826874
1761315175777207300,5.428207275390625,0.06827093660831451,0.019038405269384384,-0.03273264691233635
1761315175787254300,5.438254150390625,0.0700983926653862,0.024504544213414192,-0.04346119239926338
1761315175797302500,5.448302490234375,0.06297416985034943,0.024335432797670364,-0.05211087316274643
1761315175807349500,5.458349609375,0.04821573197841644,0.021503161638975143,-0.05229169875383377
1761315175817398300,5.468398193359375,0.026759708300232887,0.014825285412371159,-0.041063547134399414
1761315175827446500,5.478446533203125,0.016331568360328674,0.016291355714201927,-0.03344717249274254
1761315175837493500,5.488493408203125,0.01866289973258972,0.0300764087587595,-0.03254356235265732
1761315175847540500,5.49854052734375,0.02883164770901203,0.0315275676548481,-0.030833013355731964
1761315175857588200,5.508588134765625,0.0380384624004364,-0.0046208505518734455,-0.028736039996147156
1761315175867635500,5.518635498046875,0.05595327913761139,-0.014456703327596188,-0.016467124223709106
1761315175877683500,5.528683349609375,0.06725253909826279,-0.015843944624066353,-0.001987783471122384
1761315175887730400,5.53873046875,0.06484290957450867,-0.018752116709947586,0.010851049795746803
1761315175897778200,5.548778076171875,0.05596499890089035,-0.015924904495477676,0.013105682097375393
1761315175907825400,5.558825439453125,0.04413150995969772,0.0009411611245013773,0.009449427947402
1761315175917872400,5.568872314453125,0.03766268864274025,0.010637197643518448,0.005097290500998497
1761315175927920400,5.57892041015625,0.03675961121916771,0.013102752156555653,0.00010626012954162434
1761315175937967400,5.58896728515625,0.0334482379257679,0.012508068233728409,0.002380866091698408
1761315175948015400,5.599015380859375,0.038057371973991394,0.014052435755729675,0.001998702296987176
1761315175958062300,5.609062255859375,0.03696760535240173,0.009825732558965683,0.0046576024033129215
1761315175968109300,5.619109375,0.028134165331721306,-0.004743622615933418,-0.002240251051262021
1761315175978157300,5.6291572265625,0.021074125543236732,-0.016875119879841805,-0.007512244861572981
1761315175988204500,5.63920458984375,0.016752881929278374,-0.022665631026029587,-0.008609999902546406
1761315175998252300,5.649252197265625,0.014607172459363937,-0.02582280896604061,-0.00609437795355916
1761315176008299300,5.65929931640625,0.015352058224380016,-0.02070181630551815,0.006943659856915474
1761315176018346200,5.66934619140625,0.020688233897089958,-0.00487092137336731,0.020125241950154305
1761315176028394500,5.67939453125,0.02322755753993988,0.002410160843282938,0.02901300974190235
1761315176038441500,5.68944140625,0.03219042718410492,0.0023284016642719507,0.0338921882212162
1761315176048489200,5.6994892578125,0.03449166566133499,0.0010303769959136844,0.04015354439616203
1761315176058536200,5.7095361328125,0.04639333114027977,-0.0005390237784013152,0.03678278252482414
1761315176068583400,5.71958349609375,0.052140697836875916,-0.00003222424857085571,0.03470764681696892
1761315176078631400,5.72963134765625,0.053341783583164215,-0.0030059099663048983,0.030515031889081
1761315176088678400,5.739678466796875,0.057252638041973114,-0.012440158054232597,0.01648976095020771
1761315176098726400,5.749726318359375,0.05716288834810257,-0.019393404945731163,0.00177899154368788
1761315176108773400,5.7597734375,0.058344267308712006,-0.02822151780128479,-0.004415520932525396
1761315176118820400,5.7698203125,0.05417482182383537,-0.035288747400045395,-0.004226969089359045
1761315176128868400,5.779868408203125,0.05757887288928032,-0.03417634591460228,-0.001621332485228777
1761315176138915300,5.789915283203125,0.05805930867791176,-0.025591380894184113,0.00875061471015215
1761315176148963300,5.79996337890625,0.053767092525959015,-0.009610549546778202,0.01906903274357319
1761315176159010300,5.81001025390625,0.04724287986755371,-0.00902491994202137,0.020473849028348923
1761315176169057300,5.820057373046875,0.03995700180530548,-0.010989533737301826,0.01966744475066662
1761315176179105300,5.830105224609375,0.03206951916217804,-0.00865980051457882,0.022342324256896973
1761315176189152500,5.840152587890625,0.025486450642347336,-0.015311311930418015,0.025080053135752678
1761315176199200500,5.850200439453125,0.020897025242447853,-0.02208852395415306,0.027356257662177086
1761315176209247200,5.860247314453125,0.018732141703367233,-0.021733257919549942,0.03291986510157585
1761315176219294200,5.870294189453125,0.012005796656012535,-0.018060758709907532,0.03544694185256958
1761315176229342500,5.880342529296875,0.005562810692936182,-0.011200723238289356,0.038607314229011536
1761315176239389400,5.890389404296875,0.002316950121894479,-0.020213657990098,0.037747111171483994
1761315176249437400,5.9004375,0.001627457677386701,-0.02833896316587925,0.03292546048760414
1761315176259484400,5.910484375,0.0008018778171390295,-0.03015151061117649,0.039332225918769836
1761315176269531000,5.92053076171875,-0.012799152173101902,-0.018035460263490677,0.04352111369371414
1761315176279578600,5.93057861328125,-0.018735604360699654,-0.004065847955644131,0.054603058844804764
1761315176289625600,5.94062548828125,-0.026764236390590668,0.010066482238471508,0.050280746072530746
1761315176299673900,5.950673828125,-0.030422354117035866,0.026166090741753578,0.041000962257385254
1761315176309720800,5.960720947265625,-0.03436516597867012,0.023322632536292076,0.02738421969115734
1761315176319767800,5.970767822265625,-0.032404277473688126,0.008448878303170204,0.011376491747796535
1761315176329815600,5.980815673828125,-0.03190679848194122,-0.002139050979167223,0.0022056300658732653
1761315176339862500,5.990862548828125,-0.025231054052710533,-0.005091165192425251,-0.003919906914234161
1761315176349910800,6.000910888671875,-0.018872490152716637,-0.0038362834602594376,-0.011596734635531902
1761315176359957800,6.010957763671875,-0.013577328063547611,-0.0027001791168004274,-0.01733025349676609
1761315176370004700,6.021004638671875,-0.009351956658065319,-0.0059867859818041325,-0.01726367510855198
1761315176380052700,6.031052734375,-0.01272564847022295,-0.008127701468765736,-0.020596887916326523
1761315176390099700,6.041099609375,-0.007840612903237343,-0.019284214824438095,-0.02437351644039154
1761315176400147700,6.051147705078125,-0.003531351685523987,-0.022898657247424126,-0.015146462246775627
1761315176410194700,6.061194580078125,-0.0013667342718690634,-0.024055268615484238,-0.006269081030040979
1761315176420241700,6.07124169921875,0.0004916195175610483,-0.015904132276773453,-0.0016929714474827051
1761315176430289700,6.08128955078125,-0.0009166600648313761,-0.009896572679281235,0.002344913315027952
1761315176440336600,6.091336669921875,0.0018932411912828684,-0.007349259220063686,0.0021608888637274504
1761315176450384600,6.101384521484375,0.007184409536421299,-0.005899967160075903,0.004773716442286968
1761315176460432000,6.111431884765625,0.010104565881192684,-0.0051718587055802345,-0.0012293151812627912
1761315176470478800,6.121478759765625,0.01025370229035616,-0.007522364612668753,-0.009779127314686775
1761315176480526600,6.131526611328125,0.0003379551344551146,-0.015666045248508453,-0.0135067543014884
1761315176490573600,6.141573486328125,-0.006648048758506775,-0.026575684547424316,-0.014595987275242805
1761315176500621800,6.151621826171875,-0.008671518415212631,-0.04169072210788727,-0.009729326702654362
1761315176510668800,6.161668701171875,-0.0129938293248415,-0.04713715240359306,0.0016468988033011556
1761315176520715800,6.1717158203125,-0.011027084663510323,-0.04605138301849365,0.011826565489172935
1761315176530763500,6.181763427734375,-0.010002566501498222,-0.03946138918399811,0.018438395112752914
1761315176540810500,6.191810546875,-0.009503490291535854,-0.03484027087688446,0.02834295853972435
1761315176550857700,6.201857666015625,-0.0064863949082791805,-0.03238962963223457,0.03736761212348938
1761315176560905700,6.21190576171875,-0.01088886708021164,-0.034570761024951935,0.04586416110396385
1761315176570952700,6.22195263671875,-0.012853747233748436,-0.03251213580369949,0.053651776164770126
1761315176581000700,6.232000732421875,-0.01727432757616043,-0.028440695255994797,0.05886251851916313
1761315176591047700,6.242047607421875,-0.030000776052474976,-0.026862507686018944,0.05896637961268425
1761315176601094700,6.2520947265625,-0.040648359805345535,-0.02864203043282032,0.048531051725149155
1761315176611142700,6.262142578125,-0.038654718548059464,-0.01865491084754467,0.04145503044128418
1761315176621189600,6.272189697265625,-0.041239313781261444,-0.014163755811750889,0.030239662155508995
1761315176631237600,6.282237548828125,-0.03999508544802666,-0.0189603753387928,0.018870627507567406
1761315176641284600,6.29228466796875,-0.03611272946000099,-0.023269902914762497,0.012872123159468174
1761315176651331600,6.30233154296875,-0.034819234162569046,-0.021250160411000252,0.008918659761548042
1761315176661379800,6.3123798828125,-0.03320029750466347,-0.019270367920398712,0.0024615598376840353
1761315176671426800,6.3224267578125,-0.02635597437620163,-0.012761601246893406,0.0016341155860573053
1761315176681474600,6.332474609375,-0.018447451293468475,-0.010804444551467896,-0.003751861397176981
1761315176691521500,6.342521484375,-0.008960737846791744,-0.011213771998882294,-0.009072057902812958
1761315176701568500,6.352568603515625,0.0028756812680512667,-0.021212078630924225,-0.010747186839580536
1761315176711616800,6.36261669921875,0.011635617353022099,-0.028116589412093163,-0.0030027141328901052
1761315176721663700,6.372663818359375,0.015596004202961922,-0.027826838195323944,-0.0033726270776242018
1761315176731711700,6.382711669921875,0.01666659489274025,-0.018097510561347008,0.006420615129172802
1761315176741758500,6.392758544921875,0.016269784420728683,-0.0010450243717059493,0.011011372320353985
1761315176751805700,6.4028056640625,0.019950006157159805,0.0010817759903147817,0.005931658670306206
1761315176761853700,6.412853759765625,0.02635517530143261,-0.00361737166531384,0.008437693119049072
1761315176771900700,6.422900634765625,0.03268178179860115,-0.0070800138637423515,0.01179194450378418
1761315176781949000,6.432948974609375,0.03262771666049957,-0.0004290352517273277,0.013742444105446339
1761315176791995600,6.44299560546875,0.032528914511203766,-0.00253426400013268,0.01606525294482708
1761315176802042600,6.453042724609375,0.02695305459201336,-0.008129831403493881,0.008793491870164871
1761315176812090600,6.463090576171875,0.021978270262479782,-0.012870525009930134,0.004486094694584608
1761315176822137600,6.4731376953125,0.019760388880968094,-0.015322230756282806,-0.005155613645911217
1761315176832185900,6.483185791015625,0.01601012609899044,-0.01636805385351181,-0.013532586395740509
1761315176842232800,6.49323291015625,0.015935290604829788,-0.007662979885935783,-0.01221565343439579
1761315176852279600,6.503279541015625,0.018326809629797935,0.00088976213010028,-0.00626029260456562
1761315176862327800,6.513327880859375,0.022476280108094215,0.006815827917307615,0.0016876452136784792
1761315176872374800,6.523374755859375,0.026982614770531654,0.010308830067515373,0.00959616806358099
1761315176882422800,6.5334228515625,0.024409469217061996,0.006025401875376701,0.01062308344990015
1761315176892469800,6.5434697265625,0.029637521132826805,0.004039482679218054,0.009296296164393425
1761315176902516500,6.5535166015625,0.03786296024918556,0.002843723399564624,0.00361817074008286
1761315176912564700,6.563564697265625,0.04244066774845123,0.0012937636347487569,-0.0002700445184018463
1761315176922611700,6.57361181640625,0.04578719660639763,0.002737196860834956,-0.00418462511152029
1761315176932659700,6.58365966796875,0.04079803079366684,0.02197454124689102,-0.01315282005816698
1761315176942706700,6.593706787109375,0.030101442709565163,0.03430258110165596,-0.02467711642384529
1761315176952753700,6.603753662109375,0.02623400092124939,0.022644858807325363,-0.03837775066494942
1761315176962801700,6.6138017578125,0.025945845991373062,0.009309612214565277,-0.04361299052834511
1761315176972848600,6.6238486328125,0.027117371559143066,0.00942199770361185,-0.046012233942747116
1761315176982897000,6.63389697265625,0.022717030718922615,0.018311895430088043,-0.04297329857945442
1761315176992943900,6.64394384765625,0.015634886920452118,0.03437129035592079,-0.045098766684532166
1761315177002990800,6.653990966796875,0.006555104628205299,0.041496310383081436,-0.04994412511587143
1761315177013038600,6.66403857421875,0.006192914675921202,0.03887096792459488,-0.06890317052602768
1761315177023085600,6.67408544921875,0.004034689161926508,0.03482269495725632,-0.07652566581964493
1761315177033132800,6.6841328125,0.014820224605500698,0.02358495444059372,-0.07935793697834015
1761315177043180800,6.694180908203125,0.02526407688856125,0.01751241460442543,-0.07272480428218842
1761315177053227800,6.704227783203125,0.03274649381637573,0.009602826088666916,-0.05980367958545685
1761315177063275800,6.71427587890625,0.036739904433488846,0.004618986509740353,-0.04687163606286049
1761315177073322800,6.72432275390625,0.036263465881347656,0.011774101294577122,-0.03550766035914421
1761315177083369700,6.73436962890625,0.03507010266184807,0.022127673029899597,-0.0342935249209404
1761315177093417700,6.744417724609375,0.02815334126353264,0.026743996888399124,-0.03392654284834862
1761315177103464700,6.754464599609375,0.023152457550168037,0.02540202997624874,-0.036544427275657654
1761315177113512700,6.7645126953125,0.014637532643973827,0.0243719182908535,-0.02682974934577942
1761315177123559700,6.7745595703125,0.01014185044914484,0.03043966554105282,-0.00945129245519638
1761315177133606700,6.784606689453125,0.0030399984680116177,0.03362027928233147,-0.0018338527297601104
1761315177143654700,6.794654541015625,0.0032477248460054398,0.03123515099287033,0.008028898388147354
1761315177153702000,6.804701904296875,0.0051801144145429134,0.03292838856577873,0.009310944005846977
1761315177163749600,6.81474951171875,0.012513660825788975,0.031501732766628265,0.012118981219828129
1761315177173796600,6.824796630859375,0.020562533289194107,0.02081127278506756,0.00996022205799818
1761315177183843600,6.834843505859375,0.022518891841173172,0.021108213812112808,0.003852528752759099
1761315177193891800,6.844891845703125,0.02370772697031498,0.021157482638955116,-0.003436010330915451
1761315177203938800,6.854938720703125,0.0177619531750679,0.014797854237258434,-0.008679241873323917
1761315177213986600,6.864986572265625,0.021266672760248184,0.00689066294580698,-0.011719239875674248
1761315177224033500,6.875033447265625,0.02479136548936367,0.00609277980402112,-0.01956065185368061
1761315177234080800,6.885080810546875,0.02786199189722538,0.0033361418172717094,-0.02520602010190487
1761315177244128800,6.895128662109375,0.027357321232557297,-0.0020274645648896694,-0.03003006987273693
1761315177254175700,6.90517578125,0.027788754552602768,-0.0008783105295151472,-0.029042836278676987
1761315177264223000,6.915222900390625,0.025044899433851242,0.0037859496660530567,-0.027664916589856148
1761315177274270700,6.925270751953125,0.02407657355070114,0.015307051129639149,-0.01685781031847
1761315177284317700,6.935317626953125,0.021820077672600746,0.012988236732780933,-0.00592526700347662
1761315177294365700,6.94536572265625,0.020207799971103668,0.00782756321132183,-0.0028099012561142445
1761315177304413000,6.955412841796875,0.013806892558932304,0.0010807107901200652,0.0020652813836932182
1761315177314460000,6.9654599609375,0.010358631610870361,-0.011980762705206871,0.002435460686683655
1761315177324507600,6.975507568359375,0.008919192478060722,-0.011925102211534977,0.009523198008537292
1761315177334554600,6.9855546875,0.003037867834791541,-0.015670305117964745,0.009118396788835526
1761315177344603000,6.995602783203125,-0.002092179376631975,-0.01926051266491413,0.0075785573571920395
1761315177354649900,7.00564990234375,-0.0033923345617949963,-0.01600959338247776,0.013177587650716305
1761315177364696800,7.01569677734375,-0.0041156490333378315,-0.009297361597418785,0.019699402153491974
1761315177374744600,7.02574462890625,-0.00455666845664382,-0.0024676851462572813,0.026911508291959763
1761315177384791800,7.035791748046875,0.003318032482638955,-0.0057614827528595924,0.037272270768880844
1761315177394839800,7.04583984375,0.006941529456526041,-0.009131180122494698,0.03720569238066673
1761315177404886800,7.05588671875,0.006730606779456139,-0.011064369231462479,0.03744164854288101
1761315177414933800,7.065933837890625,0.012780509889125824,-0.010038519278168678,0.033189110457897186
1761315177424981800,7.075981689453125,0.013131514191627502,-0.01127955224364996,0.02050873637199402
1761315177435028700,7.08602880859375,0.005085572600364685,-0.017589645460247993,0.013950170017778873
1761315177445076700,7.09607666015625,-0.0022479742765426636,-0.014913436025381088,0.01139966119080782
1761315177455123700,7.106123779296875,-0.013050287961959839,-0.005281847435981035,0.013623134233057499
1761315177465171000,7.1161708984375,-0.02268374152481556,0.0003296993381809443,0.004307130351662636
1761315177475218700,7.12621875,-0.022302109748125076,-0.00013555490295402706,-0.00009081379539566115
1761315177485265700,7.136265625,-0.021683458238840103,0.007419832982122898,-0.010432667098939419
1761315177495312600,7.146312744140625,-0.01984933763742447,-0.0010274475207552314,-0.03296620398759842
1761315177505361000,7.15636083984375,-0.019158514216542244,-0.0067971860989928246,-0.04999738559126854
1761315177515408000,7.166407958984375,-0.023780429735779762,-0.012656140141189098,-0.06516648828983307
1761315177525455600,7.17645556640625,-0.030596790835261345,-0.01853613369166851,-0.08152522146701813
1761315177535502600,7.186502685546875,-0.0393652506172657,-0.023333018645644188,-0.08414390683174133
1761315177545549600,7.196549560546875,-0.044013798236846924,-0.015341405756771564,-0.07383241504430771
1761315177555597800,7.206597900390625,-0.04054609313607216,-0.013864949345588684,-0.06209106743335724
1761315177565644800,7.216644775390625,-0.03594042360782623,-0.0005787048721686006,-0.044668134301900864
1761315177575692500,7.226692626953125,-0.024140490218997,0.012658803723752499,-0.020736703649163246
1761315177585739800,7.23673974609375,-0.012883041985332966,0.02310159057378769,-0.00350445369258523
1761315177595786800,7.246786865234375,-0.0015286544803529978,0.025587119162082672,0.006087453570216894
1761315177605834800,7.256834716796875,0.0029816750902682543,0.010371946729719639,0.007787615526467562
1761315177615881700,7.2668818359375,0.007672833278775215,-0.0015132081462070346,0.010517888702452183
1761315177625929700,7.2769296875,0.00008681904728291556,-0.00649598240852356,0.014599449001252651
1761315177635976700,7.286976806640625,-0.006367884576320648,-0.007999869994819164,0.020545754581689835
1761315177646023700,7.297023681640625,-0.0073170349933207035,-0.006767358630895615,0.020506341010332108
1761315177656071700,7.30707177734375,-0.00512924836948514,-0.007010238710790873,0.021618476137518883
1761315177666119000,7.317118896484375,-0.009369533509016037,-0.019213374704122543,0.01894892379641533
1761315177676166000,7.327165771484375,-0.012599947862327099,-0.032457541674375534,0.010509632527828217
1761315177686213600,7.337213623046875,-0.012147743254899979,-0.034323085099458694,0.014034592546522617
1761315177696260600,7.347260498046875,-0.017361413687467575,-0.02305605076253414,0.024335699155926704
1761315177706308900,7.357308837890625,-0.0191409382969141,-0.01914386637508869,0.034813374280929565
1761315177716355800,7.36735595703125,-0.019871443510055542,-0.012089153751730919,0.04609319195151329
1761315177726402800,7.37740283203125,-0.01846902258694172,-0.012266519479453564,0.04473205283284187
1761315177736450600,7.387450439453125,-0.012198076583445072,-0.017723070457577705,0.042775958776474
1761315177746497500,7.39749755859375,-0.0065018413588404655,-0.027607126161456108,0.036289032548666
1761315177756545800,7.4075458984375,-0.0007187871960923076,-0.030784543603658676,0.031692150980234146
1761315177766592800,7.4175927734375,0.0019915117882192135,-0.025004418566823006,0.02737223543226719
1761315177776639700,7.4276396484375,0.004342550411820412,-0.017673801630735397,0.026913106441497803
1761315177786687700,7.437687744140625,0.010974886827170849,-0.004707936197519302,0.027968252077698708
1761315177796734700,7.447734619140625,0.018687400966882706,-0.003037335118278861,0.023512249812483788
1761315177806782700,7.45778271484375,0.026920031756162643,-0.010926683433353901,0.01611904799938202
1761315177816829700,7.46782958984375,0.03891650587320328,-0.019165970385074615,0.009865679778158665
1761315177826876700,7.477876708984375,0.050096724182367325,-0.024711737409234047,0.01389823853969574
1761315177836924700,7.487924560546875,0.053530070930719376,-0.014593323692679405,0.018063688650727272
1761315177846971600,7.4979716796875,0.0503515861928463,-0.009792976081371307,0.027705930173397064
1761315177857018600,7.5080185546875,0.04319620504975319,-0.004200870171189308,0.031917452812194824
1761315177867067000,7.51806689453125,0.0354304276406765,-0.0022423816844820976,0.028850823640823364
1761315177877113900,7.52811376953125,0.030221818014979362,-0.006442186422646046,0.025737054646015167
1761315177887161900,7.538161865234375,0.031914256513118744,-0.009040633216500282,0.021581724286079407
1761315177897208600,7.54820849609375,0.03851490095257759,-0.013063604012131691,0.019414709880948067
1761315177907255600,7.558255615234375,0.03804751858115196,-0.010595385916531086,0.017114272341132164
1761315177917303800,7.5683037109375,0.030797060579061508,-0.004545483272522688,0.018005365505814552
1761315177927350800,7.578350830078125,0.03087242878973484,-0.00743341539055109,0.018062356859445572
1761315177937398800,7.588398681640625,0.029153624549508095,-0.018082598224282265,0.013923006132245064
1761315177947445500,7.598445556640625,0.028599420562386513,-0.022426478564739227,0.010243049822747707
1761315177957492700,7.60849267578125,0.025961292907595634,-0.02658766880631447,-0.0017808558186516166
1761315177967540700,7.618540771484375,0.028595425188541412,-0.03315795212984085,-0.013352557085454464
1761315177977587700,7.628587646484375,0.03067695163190365,-0.03316408023238182,-0.013830861076712608
1761315177987634700,7.638634765625,0.03181252256035805,-0.01829564943909645,-0.008566057309508324
1761315177997682700,7.6486826171875,0.02088610641658306,0.006989732384681702,0.006114085204899311
1761315178007729700,7.658729736328125,0.009504822082817554,0.02076812833547592,0.014424479566514492
1761315178017777700,7.668777587890625,-0.0009137305896729231,0.01661546155810356,0.013073723763227463
1761315178027824600,7.67882470703125,-0.004352137912064791,-0.0028727517928928137,0.0034826158080250025
1761315178037871900,7.688871826171875,-0.000565389113035053,-0.02497033029794693,-0.006196643225848675
1761315178047919900,7.698919921875,0.0068448567762970924,-0.033004555851221085,-0.007756190374493599
1761315178057966600,7.708966552734375,0.012687565758824348,-0.03347913175821304,-0.0025688852183520794
1761315178068014800,7.719014892578125,0.01726873591542244,-0.030965106561779976,0.001838912721723318
1761315178078061800,7.729061767578125,0.018438395112752914,-0.022169750183820724,0.0013323795283213258
1761315178088108800,7.73910888671875,0.015127553604543209,-0.02052205242216587,0.0012191950809210539
1761315178098156800,7.74915673828125,0.01014105137437582,-0.020504476502537727,0.0007326356135308743
1761315178108203800,7.759203857421875,0.006868292577564716,-0.02406592108309269,0.0022426480427384377
1761315178118250800,7.769250732421875,0.0068901302292943,-0.011113637126982212,0.0020820593927055597
1761315178128298800,7.779298828125,0.007865912280976772,-0.0022943131625652313,0.003282346064224839
1761315178138345700,7.789345703125,0.011264372617006302,-0.0076147764921188354,0.005119394510984421
1761315178148393700,7.799393798828125,0.021513281390070915,-0.02533118985593319,0.009769007563591003
1761315178158440700,7.809440673828125,0.03218536823987961,-0.03845791146159172,0.017363544553518295
1761315178168487700,7.81948779296875,0.04110056534409523,-0.0495382584631443,0.029144037514925003
1761315178178535700,7.82953564453125,0.047324638813734055,-0.05309624224901199,0.04216183349490166
1761315178188582700,7.839582763671875,0.044563207775354385,-0.057251039892435074,0.05281687527894974
1761315178198631000,7.849630859375,0.03199068829417229,-0.050638943910598755,0.05216600000858307
1761315178208678000,7.859677978515625,0.02460361272096634,-0.02863883599638939,0.04718136042356491
1761315178218724600,7.869724609375,0.014610367827117443,-0.013666544109582901,0.03566452115774155
1761315178228772600,7.879772705078125,0.00336197461001575,-0.013214338570833206,0.029409021139144897
1761315178238819800,7.88981982421875,0.0002996056282427162,-0.011534417048096657,0.0265399981290102
1761315178248866800,7.89986669921875,-0.005746036302298307,-0.02009967528283596,0.01824238710105419
1761315178258914800,7.909914794921875,-0.0085439532995224,-0.026988474652171135,0.006964166183024645
1761315178268961500,7.91996142578125,-0.005203284323215485,-0.03285035863518715,-0.00515801040455699
1761315178279009300,7.93000927734375,-0.002832538215443492,-0.038605980575084686,-0.018442923203110695
1761315178289056500,7.940056396484375,-0.0005406216951087117,-0.046546462923288345,-0.027425499632954597
1761315178299103500,7.950103515625,0.0026495789643377066,-0.04608014225959778,-0.02804548293352127
1761315178309151500,7.9601513671875,0.0001853560097515583,-0.03211692348122597,-0.02039502002298832
1761315178319198500,7.970198486328125,-0.003593403147533536,-0.019832294434309006,-0.01619148626923561
1761315178329246500,7.98024658203125,-0.010654508136212826,-0.014645521529018879,-0.011053450405597687
1761315178339293400,7.99029345703125,-0.014338458888232708,-0.016945693641901016,-0.010348510928452015
1761315178349340400,8.00034033203125,-0.01876782812178135,-0.017892980948090553,-0.004355600103735924
1761315178359388400,8.010388427734375,-0.021453892812132835,-0.013309679925441742,-0.002432531211525202
1761315178369435600,8.020435546875,-0.021375862881541252,-0.014425278641283512,0.0054735951125621796
1761315178379482600,8.030482666015626,-0.01888687163591385,-0.021290374919772148,0.017244767397642136
1761315178389530400,8.0405302734375,-0.016330769285559654,-0.026383936405181885,0.030012760311365128
1761315178399577300,8.050577392578125,-0.012495552189648151,-0.02768861874938011,0.048660214990377426
1761315178409625600,8.06062548828125,-0.005424859002232552,-0.031035147607326508,0.057618554681539536
1761315178419672600,8.070672607421875,-0.0014713965356349945,-0.0315757691860199,0.05982551723718643
1761315178429719600,8.080719482421875,0.008136223070323467,-0.03233477100729942,0.06276138871908188
1761315178439767300,8.090767333984376,0.012619388289749622,-0.023205453529953957,0.0632716491818428
1761315178449814500,8.100814453125,0.012456403113901615,-0.022848857566714287,0.06586237251758575
1761315178459862500,8.110862548828125,0.011753329075872898,-0.02052524872124195,0.06344262510538101
1761315178469909500,8.120909423828126,0.006651777308434248,-0.021034445613622665,0.06907520443201065
1761315178479956500,8.13095654296875,0.002347576431930065,-0.024895496666431427,0.06438644975423813
1761315178490004500,8.14100439453125,-0.0009584716754034162,-0.027631627395749092,0.059964798390865326
1761315178500051500,8.151051513671876,-0.0039113848470151424,-0.018792862072587013,0.051306065171957016
1761315178510098400,8.161098388671874,-0.0057127466425299644,-0.007368167862296104,0.04296664148569107
1761315178520146400,8.171146484375,-0.012007128447294235,0.002888730727136135,0.039980970323085785
1761315178530193700,8.181193603515625,-0.02515941485762596,-0.0013763216556981206,0.025109080597758293
1761315178540241400,8.191241455078124,-0.03255527839064598,-0.013978932052850723,0.009100819937884808
1761315178550288400,8.201288330078125,-0.03539447486400604,-0.020726051181554794,-0.007454453967511654
1761315178560335400,8.21133544921875,-0.031324632465839386,-0.02605130709707737,-0.018369153141975403
1761315178570383600,8.221383544921874,-0.026681678369641304,-0.02466326765716076,-0.021625135093927383
1761315178580430600,8.2314306640625,-0.025497104972600937,-0.0209518875926733,-0.02111300826072693
1761315178590477600,8.2414775390625,-0.025916285812854767,-0.014898788183927536,-0.022816365584731102
1761315178600525300,8.251525390625,-0.020783042535185814,-0.014087589457631111,-0.023034745827317238
1761315178610572300,8.261572265625,-0.012425776571035385,-0.013452159240841866,-0.02201741747558117
1761315178620620500,8.27162060546875,-0.006287456955760717,-0.006245112512260675,-0.023568708449602127
1761315178630667500,8.28166748046875,-0.007158044259995222,-0.007211041171103716,-0.0281530749052763
1761315178640714500,8.291714599609374,-0.008138886652886868,-0.015360847115516663,-0.015778429806232452
1761315178650762500,8.301762451171875,-0.004335892386734486,-0.015467372722923756,-0.02172287181019783
1761315178660809500,8.3118095703125,0.006127667147666216,0.009125321172177792,-0.027057716622948647
1761315178670857500,8.321857421875,0.014555772766470909,-0.00836818479001522,-0.04602980986237526
1761315178680904400,8.331904541015625,0.02587021328508854,-0.018820293247699738,-0.05655062571167946
1761315178690951400,8.341951416015625,0.03933542221784592,-0.0073625752702355385,-0.06661418080329895
1761315178700999400,8.35199951171875,0.04752624034881592,-0.020610203966498375,-0.06294833868741989
1761315178711046400,8.36204638671875,0.03951385244727135,-0.03057681769132614,-0.04138632118701935
1761315178721093400,8.37209326171875,0.03635720908641815,-0.01751800812780857,-0.012192483991384506
1761315178731141600,8.3821416015625,0.03458647429943085,-0.0025073662400245667,0.0168564785271883
1761315178741188600,8.392188720703125,0.039735693484544754,-0.004050934221595526,0.034870367497205734
1761315178751236400,8.402236328125,0.053526073694229126,-0.0012482235906645656,0.0478985495865345
1761315178761283300,8.412283447265626,0.06837879121303558,-0.009183644317090511,0.04982747882604599
1761315178771330300,8.422330322265625,0.07737468183040619,-0.009308546781539917,0.0427224300801754
1761315178781378600,8.432378662109375,0.07206647098064423,-0.0016487629618495703,0.026879018172621727
1761315178791425500,8.442425537109376,0.06488312780857086,0.007195861078798771,0.013110209256410599
1761315178801472500,8.452472412109374,0.06210411712527275,0.01281646266579628,0.002115615177899599
1761315178811520300,8.462520263671875,0.058755990117788315,0.005142031237483025,-0.0054509579204022884
1761315178821567500,8.4725673828125,0.06559126079082489,0.006837133318185806,-0.002151301596313715
1761315178831615500,8.482615478515624,0.0765986368060112,0.008252870291471481,0.007937018759548664
1761315178841662500,8.492662353515625,0.0865039974451065,-0.0021552962716668844,0.02004534751176834
1761315178851709400,8.50270947265625,0.09741336852312088,-0.0070552462711930275,0.033302564173936844
1761315178861757400,8.51275732421875,0.11069907993078232,-0.006989732384681702,0.0459243468940258
1761315178871804400,8.522804443359375,0.11466985940933228,-0.008229699917137623,0.050640009343624115
1761315178881851400,8.532851318359375,0.11217580735683441,-0.006303968373686075,0.04982614517211914
1761315178891899400,8.5428994140625,0.1061171144247055,0.004520982038229704,0.04253228008747101
1761315178901946600,8.552946533203125,0.09745385497808456,0.012316321022808552,0.031094003468751907
1761315178911994400,8.562994384765625,0.08505044877529144,0.015297995880246162,0.015994945541024208
1761315178922041300,8.573041259765626,0.0658077746629715,0.0131522873416543,-0.0005376922199502587
1761315178932088300,8.58308837890625,0.05462915822863579,0.00911786500364542,-0.01726287603378296
1761315178942136600,8.593136474609375,0.04358822479844093,0.008832373656332493,-0.032095618546009064
1761315178952183600,8.60318359375,0.037632863968610764,0.008272310718894005,-0.03879719600081444
1761315178962231300,8.613231201171875,0.030549919232726097,0.0026498453225940466,-0.044431645423173904
1761315178972278300,8.6232783203125,0.0264249499887228,0.0002812298189383,-0.04110775515437126
1761315178982325500,8.633325439453126,0.02455141581594944,-0.0017976337112486362,-0.040292561054229736
1761315178992373500,8.64337353515625,0.012779178097844124,-0.000892691605258733,-0.03863714262843132
1761315179002420500,8.65342041015625,0.006739661563187838,0.008160191588103771,-0.03900971636176109
1761315179012467500,8.663467529296875,0.0013409015955403447,0.012521117925643921,-0.029755232855677605
1761315179022515500,8.673515380859374,-0.0003531351685523987,0.013144031167030334,-0.017235711216926575
1761315179032562400,8.6835625,-0.001996305538341403,0.018136659637093544,-0.00621075788512826
1761315179042610400,8.6936103515625,-0.0017568873008713126,0.019941750913858414,0.009400958195328712
1761315179052657400,8.703657470703124,-0.0010865697404369712,0.016092684119939804,0.015152853913605213
1761315179062704600,8.71370458984375,-0.0007283745799213648,0.0036916739773005247,0.011975436471402645
1761315179072752400,8.72375244140625,0.0036972665693610907,-0.008267250843346119,0.00000958738019107841
1761315179082799400,8.73379931640625,0.0036368127912282944,-0.021525798365473747,-0.016412261873483658
1761315179092846300,8.743846435546875,0.003637877991423011,-0.03756974637508392,-0.028391961008310318
1761315179102894600,8.75389453125,0.00330285239033401,-0.03803659975528717,-0.02678767219185829
1761315179112941600,8.763941650390626,0.0015486282063648105,-0.029016470536589622,-0.01786048896610737
1761315179122989300,8.7739892578125,-0.0007379619055427611,-0.007439274340867996,-0.004125769250094891
1761315179133036300,8.784036376953125,-0.004018976353108883,0.00785499345511198,0.008140218444168568
1761315179143083300,8.794083251953126,-0.004536162130534649,0.014218084514141083,0.010747186839580536
1761315179153131500,8.804131591796875,-0.0038333539851009846,0.012190353125333786,0.01764051243662834
1761315179163178500,8.814178466796875,0.0006905576447024941,-0.0019030949333682656,0.024146880954504013
1761315179173225500,8.8242255859375,0.0024647556710988283,-0.006202502176165581,0.02202833630144596
1761315179183273500,8.8342734375,0.00574843306094408,-0.01455976814031601,0.020909275859594345
1761315179193320400,8.844320556640625,0.006394516211003065,-0.018930813297629356,0.020085826516151428
1761315179203368400,8.854368408203126,0.010218016803264618,-0.023727700114250183,0.016933709383010864
1761315179213413400,8.864413330078126,0.012426042929291725,-0.026487799361348152,0.003709783311933279
1761315179223460400,8.87446044921875,0.002294047037139535,-0.02311890199780464,-0.0021015002857893705
1761315179233508400,8.88450830078125,-0.005330050364136696,-0.003084739437326789,-0.004746285732835531
1761315179243555600,8.8945556640625,-0.00836632028222084,0.014394652098417282,-0.006585198454558849
1761315179253603600,8.904603515625,-0.015239672735333443,0.02112872153520584,-0.008615059778094292
1761315179263650300,8.914650390625,-0.019180884584784508,0.020312195643782616,-0.014721954241394997
1761315179273698300,8.9246982421875,-0.019090604037046432,0.00361817074008286,-0.01985120214521885
1761315179283746300,8.934746337890624,-0.017845310270786285,-0.005702626891434193,-0.022541262209415436
1761315179293793300,8.944793212890625,-0.02141820639371872,-0.015960058197379112,-0.026919232681393623
1761315179303840300,8.95484033203125,-0.024403609335422516,-0.019111642614006996,-0.03213077038526535
1761315179313888300,8.96488818359375,-0.022353509441018105,-0.009221727959811687,-0.03442508354783058
1761315179323935200,8.974935302734375,-0.0230531208217144,-0.0005363606614992023,-0.03653297573328018
1761315179333983200,8.984983154296875,-0.027532292529940605,-0.010043046437203884,-0.04207608103752136
1761315179344030200,8.9950302734375,-0.02821885421872139,-0.010897655040025711,-0.03952956572175026
1761315179354077400,9.005077392578125,-0.03133795037865639,-0.006666691042482853,-0.027961326763033867
1761315179364125200,9.015125244140625,-0.02869769185781479,-0.004114051349461079,-0.01860217936336994
1761315179374172200,9.025172119140626,-0.03045111708343029,-0.002406165935099125,-0.002299905987456441
1761315179384219100,9.03521923828125,-0.027996214106678963,0.010911503806710243,0.012042547576129436
1761315179394267400,9.045267333984375,-0.020542027428746223,0.016279904171824455,0.020541761070489883
1761315179404314400,9.055314453125,-0.013235910795629025,0.006499710958451033,0.0253937728703022
1761315179414362000,9.065362060546875,-0.007266967557370663,-0.007369765546172857,0.021739117801189423
1761315179424409000,9.0754091796875,-0.0013845774810761213,-0.012255600653588772,0.018219750374555588
1761315179434456300,9.085456298828126,0.0018378474051132798,-0.01495071966201067,0.010066482238471508
1761315179444504300,9.09550439453125,0.0033787523861974478,-0.013126987032592297,0.010802313685417175
1761315179454551300,9.10555126953125,0.004826446995139122,-0.01074159424751997,0.0035214978270232677
1761315179464598300,9.115598388671875,0.0057130130007863045,-0.009161007590591908,-0.0010724549647420645
1761315179474646300,9.125646240234374,0.00589517317712307,-0.0075631109066307545,0.0021632856223732233
1761315179484693200,9.135693359375,0.013252954930067062,-0.0067907944321632385,0.005126585252583027
1761315179494741200,9.1457412109375,0.01648230478167534,-0.004685831721872091,0.009920274838805199
1761315179504788200,9.155788330078124,0.017308149486780167,-0.006595318205654621,0.009378321468830109
1761315179514835500,9.16583544921875,0.017303090542554855,-0.012163455598056316,-0.002484995638951659
1761315179524883200,9.17588330078125,0.00891067087650299,-0.015175756998360157,-0.017363544553518295
1761315179534930200,9.18593017578125,-0.004219778813421726,-0.016868196427822113,-0.022529011592268944
1761315179544977200,9.19597705078125,-0.012463061138987541,-0.008643289096653461,-0.025715216994285583
1761315179555025400,9.206025390625,-0.010239854454994202,-0.0013193299528211355,-0.03068041428923607
1761315179565072400,9.216072265625,-0.008846222423017025,0.004257329273968935,-0.03605254366993904
1761315179575119400,9.226119384765624,-0.008707471191883087,0.007652326952666044,-0.035887960344552994
1761315179585167000,9.2361669921875,-0.015021559782326221,0.006099970545619726,-0.038831550627946854
1761315179595214000,9.246214111328126,-0.01565379463136196,-0.0010958907660096884,-0.04922879859805107
1761315179605262300,9.256262451171875,-0.015327556990087032,-0.013191701844334602,-0.058391671627759933
1761315179615309300,9.266309326171875,-0.014902516268193722,-0.012473180890083313,-0.057253703474998474
1761315179625356300,9.276356201171875,-0.01565219648182392,-0.00971494521945715,-0.05787261947989464
1761315179635404300,9.286404296875,-0.014548050239682198,-0.008117581717669964,-0.04964371770620346
1761315179645451300,9.296451171875,-0.00839428324252367,0.005569202359765768,-0.034629616886377335
1761315179655498200,9.306498291015625,-0.006415022537112236,0.015627961605787277,-0.021688783541321754
1761315179665546200,9.316546142578124,-0.0007502124644815922,0.010047308169305325,-0.011505122296512127
1761315179675593200,9.32659326171875,0.0040884846821427345,-0.00552259711548686,-0.0028783443849533796
1761315179685641200,9.33664111328125,0.008345281705260277,-0.013601030223071575,0.00900015328079462
1761315179695688200,9.346688232421876,0.011804994195699692,-0.015909191220998764,0.022642994299530983
1761315179705735200,9.356735107421875,0.0076091839000582695,-0.016586434096097946,0.024766067042946815
1761315179715783400,9.366783447265625,0.007311975117772818,-0.016705743968486786,0.02116999961435795
1761315179725830400,9.376830322265626,0.007406783755868673,-0.015981363132596016,0.02112659066915512
1761315179735877400,9.38687744140625,0.008669654838740826,-0.018066884949803352,0.012834838591516018
1761315179745925000,9.396925048828125,0.0070491209626197815,-0.010410030372440815,0.013323262333869934
1761315179755972000,9.40697216796875,0.00980309583246708,0.0004854942671954632,0.013080648146569729
1761315179766020400,9.417020263671875,0.006502640433609486,0.0051873051561415195,0.01270034909248352
1761315179776067300,9.4270673828125,0.00708720413967967,0.004628574009984732,0.010279002599418163
1761315179786114300,9.4371142578125,0.010146111249923706,-0.0017148094484582543,0.0038456046022474766
1761315179796162000,9.447162109375,0.013438843190670013,-0.015964584425091743,-0.0062365904450416565
1761315179806209300,9.457209228515625,0.018275942653417587,-0.03063993528485298,-0.007988950237631798
1761315179816259000,9.467259033203124,0.01733744516968727,-0.024411600083112717,-0.0025965820532292128
1761315179826307300,9.477307373046875,0.014026869088411331,-0.01161804050207138,0.0038717035204172134
1761315179836354300,9.487354248046875,0.0018050905782729387,0.0007275756215676665,0.0013422331539914012
1761315179846401300,9.4974013671875,-0.0020703414920717478,0.0070736221969127655,-0.005555354058742523
1761315179856449000,9.507448974609375,-0.006068279035389423,0.013194099068641663,-0.009358081966638565
1761315179866496300,9.517496337890625,-0.005160673521459103,0.010455037467181683,-0.011381018906831741
1761315179876543200,9.527543212890626,-0.00016165387933142483,0.003862382611259818,-0.0156553927809
1761315179886591200,9.53759130859375,0.004993693437427282,0.00032437301706522703,-0.016694290563464165
1761315179896638200,9.54763818359375,0.007880826480686665,0.0006410228670574725,-0.007664843928068876
1761315179906685400,9.557685546875,0.012863866984844208,0.0014602112350985408,-0.0001483380765421316
1761315179916733200,9.567733154296874,0.01480584405362606,-0.003704723436385393,0.0023036343045532703
1761315179926780200,9.5777802734375,0.019470104947686195,-0.006041381042450666,-0.004089283756911755
1761315179936828200,9.587828125,0.025350630283355713,-0.015476960688829422,0.0031079088803380728
1761315179946875400,9.59787548828125,0.03555905818939209,-0.017359815537929535,0.013437511399388313
1761315179956922400,9.60792236328125,0.040416132658720016,-0.007319165393710136,0.024899490177631378
1761315179966970000,9.61797021484375,0.0378645583987236,0.007181213703006506,0.0354437455534935
1761315179977017000,9.62801708984375,0.03512949123978615,0.012675315141677856,0.04168565943837166
1761315179987064300,9.638064208984375,0.02773868665099144,0.013964817859232426,0.04596029967069626
1761315179997112300,9.6481123046875,0.019880231469869614,0.00953837763518095,0.04032478481531143
1761315180007159300,9.6581591796875,0.01607191003859043,-0.006761766038835049,0.03526557981967926
1761315180017207000,9.66820703125,0.014787734486162663,-0.014582138508558273,0.027341876178979874
1761315180027254300,9.678254150390625,0.01071096770465374,-0.014284131117165089,0.025959162041544914
1761315180037301200,9.68830126953125,0.0028514466248452663,-0.006741526070982218,0.022899456322193146
1761315180047349200,9.698349365234375,-0.008718390017747879,-0.0021105550695210695,0.013429256156086922
1761315180057396200,9.708396240234375,-0.014849253930151463,0.0006934871198609471,0.005928462836891413
1761315180067443200,9.718443115234376,-0.015810655429959297,0.003326288191601634,-0.003625627374276519
1761315180077491200,9.7284912109375,-0.01649455353617668,-0.005404352676123381,-0.010187390260398388
1761315180087538200,9.7385380859375,-0.013083045370876789,-0.018315358087420464,-0.011908058077096939
1761315180097585200,9.748585205078125,-0.006893858779221773,-0.015242602676153183,-0.010202303528785706
1761315180107633400,9.75863330078125,-0.009259810671210289,-0.0023675502743571997,-0.003687146585434675
1761315180117680400,9.768680419921875,-0.01913907378911972,0.010083792731165886,0.009843575768172741
1761315180127728000,9.77872802734375,-0.025116005912423134,0.00574896577745676,0.012371981516480446
1761315180137775000,9.788775146484374,-0.02406991645693779,0.0006165218073874712,0.016331035643815994
1761315180147822000,9.798822021484375,-0.022247249260544777,0.003276220755651593,0.017481522634625435
1761315180157870300,9.808870361328125,-0.035538818687200546,0.021410483866930008,0.021320734173059464
1761315180167917300,9.818917236328126,-0.053407564759254456,0.03851516917347908,0.024803083389997482
1761315180177964300,9.82896435546875,-0.06052699312567711,0.05361715704202652,0.031062578782439232
1761315180188012300,9.83901220703125,-0.060077451169490814,0.062320366501808167,0.03899373859167099
1761315180198059300,9.849059326171876,-0.044377051293849945,0.04920216649770737,0.04680106043815613
1761315180208107300,9.859107177734375,-0.027454260736703873,0.03476064279675484,0.048950232565402985
1761315180218154200,9.869154296875,-0.010353039018809795,0.02671203762292862,0.04597841203212738
1761315180228201200,9.879201171875,0.00863530021160841,0.01637125015258789,0.035903673619031906
1761315180238249200,9.889249267578125,0.01944560371339321,-0.006299707572907209,0.02394634485244751
1761315180248296200,9.899296142578125,0.021379856392741203,-0.02263127639889717,0.019642144441604614
1761315180258343200,9.90934326171875,0.01938115432858467,-0.00891093723475933,0.029161080718040466
1761315180268391200,9.91939111328125,0.014268417842686176,0.015444469638168812,0.04392697662115097
1761315180278438100,9.929438232421875,0.010325607843697071,0.025537051260471344,0.04922160878777504
1761315180288485400,9.9394853515625,0.01110405009239912,0.034989673644304276,0.03995194286108017
1761315180298533000,9.949533203125,0.014726215042173862,0.026141589507460594,0.019393138587474823
1761315180308580000,9.959580078125,0.024334633722901344,-0.013914483599364758,-0.006082393694669008
1761315180318628400,9.96962841796875,0.030704915523529053,-0.02443663403391838,-0.01654302328824997
1761315180328675300,9.97967529296875,0.018982745707035065,-0.043777041137218475,-0.017961690202355385
1761315180338722300,9.989722412109375,-0.0028599686920642853,-0.05808380991220474,-0.0010013486025854945
1761315180348770000,9.99977001953125,-0.013244166038930416,-0.05011270195245743,0.019120696932077408
1761315180358817000,10.009817138671876,-0.025749571621418,-0.0377175509929657,0.04596802592277527
1761315180368864300,10.0198642578125,-0.03544028103351593,-0.03166311979293823,0.06373476982116699
1761315180378912300,10.029912353515625,-0.03532949462532997,-0.011112306267023087,0.07019267231225967
1761315180388959200,10.039959228515626,-0.025306954979896545,0.0041132522746920586,0.058211106806993484
1761315180399006200,10.050006103515624,-0.010031328536570072,0.00720678037032485,0.030296919867396355
1761315180409054200,10.06005419921875,0.007675230037420988,-0.002794188680127263,0.0073591130785644054
1761315180419101200,10.07010107421875,0.021387314423918724,-0.015901468694210052,-0.010953315533697605
1761315180429149200,10.080149169921874,0.022669093683362007,-0.027466244995594025,-0.02269119769334793
1761315180439196200,10.090196044921875,0.02057638205587864,-0.03746534883975983,-0.02671896293759346
1761315180449243400,10.100243408203125,0.012734703719615936,-0.028689434751868248,-0.02923937886953354
1761315180459291100,10.110291015625,0.008872853592038155,-0.011679292656481266,-0.026741066947579384
1761315180469338000,10.120338134765625,0.0007672567153349519,-0.005221926141530275,-0.02768276073038578
1761315180479385000,10.130385009765625,-0.008713596500456333,-0.011510448530316353,-0.027176493778824806
1761315180489433300,10.140433349609374,-0.014286527410149574,-0.018436796963214874,-0.023188943043351173
1761315180499480300,10.150480224609375,-0.01866263337433338,-0.01733451522886753,-0.019246399402618408
1761315180509528000,10.160528076171875,-0.018078070133924484,-0.01369051169604063,-0.022976156324148178
1761315180519575000,10.170574951171876,-0.019095130264759064,-0.017737185582518578,-0.021393172442913055
1761315180529622300,10.180622314453124,-0.019586751237511635,-0.014883075840771198,-0.006448311731219292
1761315180539670300,10.190670166015625,-0.02382996492087841,-0.02906414121389389,0.004235491156578064
1761315180549717200,10.20071728515625,-0.022105302661657333,-0.03828853368759155,0.010811368934810162
1761315180559764200,10.21076416015625,-0.013982128351926804,-0.03846936300396919,0.013970144093036652
1761315180569812200,10.220812255859375,-0.0067971860989928246,-0.03009851463139057,0.014185327105224133
1761315180579859200,10.230859130859375,-0.00541340745985508,-0.022070148959755898,0.019225092604756355
1761315180589906200,10.24090625,-0.006499710958451033,-0.018147312104701996,0.024233167991042137
1761315180599954200,10.2509541015625,-0.002688460983335972,-0.012542955577373505,0.02070368081331253
1761315180610001200,10.261001220703125,-0.0012434299569576979,-0.007737548090517521,0.017493240535259247
1761315180620049200,10.271049072265624,0.009505354799330235,-0.00875274557620287,0.011147459968924522
1761315180630096100,10.28109619140625,0.015452193096280098,-0.025786057114601135,0.005307413637638092
1761315180640143000,10.29114306640625,0.021813951432704926,-0.03592870756983757,0.004507932811975479
1761315180650191400,10.30119140625,0.02502758800983429,-0.03849572688341141,-0.002329200739040971
1761315180660238300,10.31123828125,0.03183170035481453,-0.04055514931678772,-0.012431369163095951
1761315180670285300,10.321285400390625,0.0320572704076767,-0.039023034274578094,-0.0211846474558115
1761315180680333000,10.3313330078125,0.03720569238066673,-0.03593163564801216,-0.02809634990990162
1761315180690380000,10.341380126953124,0.030705714598298073,-0.027958396822214127,-0.03760410100221634
1761315180700427300,10.35142724609375,0.027721643447875977,-0.03477928414940834,-0.05981646105647087
1761315180710475300,10.361475341796876,0.026647057384252548,-0.04098338633775711,-0.0646226704120636
1761315180720522200,10.371522216796874,0.018738534301519394,-0.03732313588261604,-0.05505473166704178
1761315180730570200,10.3815703125,-0.001535312389023602,-0.008232097141444683,-0.03465331718325615
1761315180740617200,10.3916171875,-0.015385347418487072,0.02226908691227436,-0.009825998917222023
1761315180750664200,10.401664306640624,-0.018510567024350166,0.03880545124411583,0.020807543769478798
1761315180760712200,10.411712158203125,-0.025412948802113533,0.03299203887581825,0.051234956830739975
1761315180770759200,10.42175927734375,-0.030353378504514694,0.02377776801586151,0.05768566578626633
1761315180780806400,10.431806396484374,-0.029621008783578873,0.019646672531962395,0.048161402344703674
1761315180790854100,10.441854248046875,-0.02106267400085926,0.006667756475508213,0.03199228644371033
1761315180800901000,10.451901123046875,-0.011479555629193783,-0.018856246024370193,0.0177619531750679
1761315180810948000,10.461947998046876,-0.0007896272582001984,-0.035060249269008636,0.00833968911319971
1761315180820996400,10.471996337890625,0.010683536529541016,-0.025541579350829124,0.006952714640647173
1761315180831043300,10.482043212890625,0.018194450065493584,-0.01161431148648262,0.008070443756878376
1761315180841091000,10.492091064453126,0.018333733081817627,-0.005022189114242792,0.004174771253019571
1761315180851138000,10.502137939453124,0.02040727064013481,-0.0020234698895365,-0.005348959006369114
1761315180861185300,10.512185302734375,0.020071713253855705,-0.006708769127726555,-0.012446549721062183
1761315180871233300,10.5222333984375,0.024168718606233597,-0.011215103790163994,-0.013518472202122211
1761315180881280300,10.5322802734375,0.02943405508995056,-0.026008697226643562,-0.0027744811959564686
1761315180891327200,10.5423271484375,0.03051077201962471,-0.025973277166485786,0.016862869262695312
1761315180901375200,10.552375244140626,0.028198614716529846,-0.01010935939848423,0.035224299877882004
1761315180911422200,10.562422119140624,0.02756824530661106,-0.0005901564727537334,0.04009628668427467
1761315180921469200,10.57246923828125,0.0309898741543293,0.010152502916753292,0.04964425042271614
1761315180931517200,10.58251708984375,0.03015017881989479,0.00466532539576292,0.05968490242958069
1761315180941564400,10.592564453125,0.027352528646588326,-0.0044195158407092094,0.053342316299676895
1761315180951612200,10.602612060546875,0.028190892189741135,-0.007999070920050144,0.03382880240678787
1761315180961659100,10.6126591796875,0.03275075554847717,-0.02347150444984436,0.006881075445562601
1761315180971706000,10.6227060546875,0.03490632027387619,-0.039915457367897034,-0.008419583551585674
1761315180981754400,10.63275439453125,0.032229840755462646,-0.04067046567797661,-0.008813997730612755
1761315180991801300,10.64280126953125,0.030468160286545753,-0.028593027964234352,-0.010549846105277538
1761315181001848300,10.652848388671876,0.0253415759652853,-0.018931878730654716,-0.016574716195464134
1761315181011896000,10.66289599609375,0.023154854774475098,-0.0142918536439538,-0.02425394020974636
1761315181021943000,10.672943115234375,0.021046696230769157,-0.005894108209758997,-0.022250177338719368
1761315181031991300,10.6829912109375,0.017289241775870323,0.00024714134633541107,-0.017483118921518326
1761315181042038300,10.693038330078124,0.013501428067684174,0.0028908613603562117,-0.0017451694002375007
1761315181052085200,10.703085205078125,0.01025450136512518,0.006216084118932486,-0.002067944500595331
1761315181062133200,10.71313330078125,0.013991182669997215,0.0065045044757425785,-0.014825551770627499
1761315181072180200,10.72318017578125,0.015334481373429298,0.0032921996898949146,-0.036189962178468704
1761315181082227200,10.733227294921875,0.012842295691370964,-0.006159625016152859,-0.04944451525807381
1761315181092275200,10.743275146484375,0.003597131697461009,-0.012317120097577572,-0.06222955137491226
1761315181102322200,10.753322265625,-0.004537227563560009,0.007653126027435064,-0.071869395673275
1761315181112369400,10.763369384765625,-0.01278636883944273,0.053167346864938736,-0.06383916735649109
1761315181122417200,10.773417236328125,-0.023816116154193878,0.07974303513765335,-0.05811044201254845
1761315181132464000,10.783464111328126,-0.022776952013373375,0.09416165202856064,-0.054604656994342804
1761315181142511000,10.793510986328124,-0.014660968445241451,0.11515162140130997,-0.03458860516548157
1761315181152559400,10.803559326171875,-0.002046905690804124,0.08706539124250412,-0.002800047630444169
1761315181162606300,10.8136064453125,0.018852783367037773,-0.027541879564523697,-0.007229683455079794
1761315181172654000,10.823654052734375,0.0495062991976738,-0.07288272678852081,-0.00021118867152836174
1761315181182701000,10.833701171875,0.06911062449216843,-0.055276304483413696,-0.0005539375124499202
1761315181192748300,10.843748291015626,0.058272093534469604,-0.01804691180586815,-0.006284527480602264
1761315181202796300,10.85379638671875,0.02889236807823181,0.02064562402665615,-0.012589029036462307
1761315181212843300,10.86384326171875,0.002929743379354477,0.03633057698607445,-0.019299395382404327
1761315181222890200,10.87389013671875,-0.030349383130669594,0.014331269077956676,-0.029812224209308624
1761315181232938200,10.883938232421874,-0.046100914478302,-0.029872678220272064,-0.02460787445306778
1761315181242985200,10.893985107421875,-0.02359347604215145,-0.04352883622050285,-0.01392779964953661
