time,seconds_elapsed,z,y,x
1761315794787714600,0.107714599609375,0.008071241900324821,-0.007483482826501131,0.0032674323301762342
1761315794797761500,0.117761474609375,0.009641974233090878,-0.008117315359413624,0.0025835325941443443
1761315794807809500,0.1278095703125,0.006644853390753269,-0.007891478948295116,0.0028964539524167776
1761315794817856500,0.1378564453125,0.008223309181630611,-0.01005210168659687,0.0008966863388195634
1761315794827903500,0.147903564453125,0.007529821712523699,-0.007874701172113419,0.0008026767172850668
1761315794837951500,0.157951416015625,0.006704507861286402,-0.007383880205452442,-0.0005816344055347145
1761315794847998700,0.167998779296875,0.008353004232048988,-0.007122357841581106,-0.0008697884040884674
1761315794858045700,0.178045654296875,0.006390787661075592,-0.00791518110781908,0.005252286326140165
1761315794868089000,0.188089111328125,0.00999004952609539,-0.006389988586306572,0.002043177140876651
1761315794878136000,0.198135986328125,0.006503705866634846,-0.008354336023330688,0.0007941546500660479
1761315794888183000,0.20818310546875,0.007124222349375486,-0.0073354109190404415,0.002085521351546049
1761315794898231000,0.21823095703125,0.006865895353257656,-0.009549030102789402,-0.00007829693640815094
1761315794908278000,0.228278076171875,0.007537011988461018,-0.008579107001423836,-0.0009036105475388467
1761315794918325000,0.238324951171875,0.006370281334966421,-0.01010882668197155,0.0007475492893718183
1761315794928372200,0.248372314453125,0.007863782346248627,-0.006677077617496252,0.001184307737275958
1761315794938420000,0.258419921875,0.006076801102608442,-0.009434781037271023,-0.0012093414552509785
1761315794948467000,0.268467041015625,0.007940747775137424,-0.008262723684310913,0.0014831144362688065
1761315794958514000,0.278513916015625,0.006020075641572475,-0.008100270293653011,0.0034000577870756388
1761315794968562200,0.288562255859375,0.005260009318590164,-0.005586779210716486,-0.00022530343267135322
1761315794978609200,0.298609130859375,0.0065071675926446915,-0.006726878695189953,0.0016695356462150812
1761315794988656000,0.30865625,0.0089953588321805,-0.006894125137478113,0.0018953717080876231
1761315794998703900,0.318703857421875,0.009673932567238808,-0.006698116194456816,0.0031707596499472857
1761315795008751000,0.328751220703125,0.007100253831595182,-0.008564991876482964,0.0002540655550546944
1761315795018798000,0.338798095703125,0.006457100156694651,-0.006426740437746048,0.0021169467363506556
1761315795028846000,0.34884619140625,0.008202536031603813,-0.009214537218213081,0.002026399364694953
1761315795038893000,0.35889306640625,0.00720438314601779,-0.008843825198709965,0.0003246393462177366
1761315795048940000,0.36893994140625,0.005674929823726416,-0.008140484802424908,-0.00022423815971706063
1761315795058988000,0.378988037109375,0.0075902752578258514,-0.009365271776914597,0.0006258428329601884
1761315795069035000,0.389034912109375,0.009226787835359573,-0.005145759787410498,0.004543885588645935
1761315795079082000,0.39908203125,0.007167898118495941,-0.007393467705696821,0.0026168220210820436
1761315795089129000,0.40912890625,0.008302670903503895,-0.0059721386060118675,0.001731853699311614
1761315795099177200,0.41917724609375,0.00854555144906044,-0.007587079424411058,0.000480434246128425
1761315795109224200,0.42922412109375,0.008080829866230488,-0.00797510240226984,-0.0002287655370309949
1761315795119271000,0.43927099609375,0.006229932885617018,-0.006724747829139233,0.0002868224401026964
1761315795129319000,0.44931884765625,0.0070768180303275585,-0.007489075418561697,-0.0006380933918990195
1761315795139366100,0.4593662109375,0.0064776064828038216,-0.008136223070323467,0.00250496924854815
1761315795149413000,0.4694130859375,0.007272293791174889,-0.010568488389253616,-0.0004442152567207813
1761315795159461000,0.479461181640625,0.007154582068324089,-0.009844641201198101,0.0017979000695049763
1761315795169508000,0.489508056640625,0.0067971860989928246,-0.008704542182385921,-0.00005832322858623229
1761315795179554800,0.499554931640625,0.008074171841144562,-0.007960188202559948,-0.00023675501870457083
1761315795189603000,0.50960302734375,0.005106344819068909,-0.008800681680440903,0.0026346652302891016
1761315795199650000,0.519650146484375,0.008329834789037704,-0.007149255834519863,-0.0024021712597459555
1761315795209697000,0.529697021484375,0.008082427084445953,-0.006069344002753496,0.0028900622855871916
1761315795219745300,0.539745361328125,0.007351922336965799,-0.007792143151164055,0.0006301039247773588
1761315795229792000,0.5497919921875,0.007580954115837812,-0.007077616639435291,0.000987500068731606
1761315795239839000,0.5598388671875,0.00812157616019249,-0.006368683185428381,0.002588326344266534
1761315795249887000,0.569886962890625,0.010035856626927853,-0.006066414527595043,0.003439738880842924
1761315795259934000,0.579933837890625,0.007333546411246061,-0.00615243474021554,0.002660231664776802
1761315795269981200,0.589981201171875,0.00899455975741148,-0.006374808494001627,-0.000054861116950633004
1761315795280028200,0.600028076171875,0.009838249534368515,-0.008979380130767822,0.0016053534345701337
1761315795290076000,0.610075927734375,0.007291468791663647,-0.00890827365219593,-0.0005091963685117662
1761315795300123000,0.620122802734375,0.010163954459130764,-0.00842411071062088,0.0012301141396164894
1761315795310169900,0.630169921875,0.006794789340347052,-0.006961503066122532,0.0031641016248613596
1761315795320218000,0.640218017578125,0.00878949649631977,-0.00884728692471981,0.00027537086862139404
1761315795330265000,0.65026513671875,0.009837184101343155,-0.008159925229847431,0.0035382758360356092
1761315795340312000,0.66031201171875,0.008246478624641895,-0.008388158865272999,-0.0001930791768245399
1761315795350360000,0.670360107421875,0.008773784153163433,-0.006829143967479467,0.0015124091878533363
1761315795360407000,0.680406982421875,0.006527673918753862,-0.008980179205536842,0.0017417073249816895
1761315795370454000,0.6904541015625,0.005937517620623112,-0.009411611594259739,0.0016013587592169642
1761315795380502000,0.700501953125,0.006118346471339464,-0.008587096817791462,0.002260491019114852
1761315795390549000,0.710549072265625,0.009132245555520058,-0.0076217008754611015,-0.0011379687348380685
1761315795400596200,0.72059619140625,0.007860586047172546,-0.007396663539111614,0.000502804818097502
1761315795410644000,0.73064404296875,0.008705341257154942,-0.00926487147808075,0.0033872744534164667
1761315795420691000,0.74069091796875,0.007212639320641756,-0.006245112512260675,0.0023558323737233877
1761315795430738000,0.750738037109375,0.008472314104437828,-0.0076057217083871365,0.0034549187403172255
1761315795440786200,0.7607861328125,0.007151918951421976,-0.007631554268300533,0.0016860472969710827
1761315795450833200,0.770833251953125,0.008645952679216862,-0.0070555126294493675,0.0015313175972551107
1761315795460880100,0.780880126953125,0.0075455340556800365,-0.0059684100560843945,0.0031161648221313953
1761315795470928000,0.790927978515625,0.0070645674131810665,-0.00797057431191206,0.00041518680518493056
1761315795480975000,0.80097509765625,0.009631055407226086,-0.005253617651760578,0.002457032445818186
1761315795491022000,0.81102197265625,0.007992412894964218,-0.008438225835561752,0.0002665824140422046
1761315795501070000,0.821070068359375,0.007565508130937815,-0.008095476776361465,0.0014900385867804289
1761315795511117000,0.831116943359375,0.007389472797513008,-0.009068596176803112,0.0026008430868387222
1761315795521164000,0.8411640625,0.00863290298730135,-0.008069911040365696,0.0036669063847512007
1761315795531211300,0.851211181640625,0.007650995627045631,-0.008498147130012512,0.0022325278259813786
1761315795541259000,0.861259033203125,0.008945824578404427,-0.00580648984760046,0.0036394759081304073
1761315795551306000,0.871305908203125,0.006072007119655609,-0.008827047422528267,0.0018194715958088636
1761315795561353000,0.88135302734375,0.007811317685991526,-0.008864331990480423,0.003440005239099264
1761315795571401200,0.891401123046875,0.008642223663628101,-0.00817883387207985,0.0029313412960618734
1761315795581448200,0.9014482421875,0.007645668927580118,-0.00881799217313528,0.0025571673177182674
1761315795591495000,0.911494873046875,0.009707488119602203,-0.00980442762374878,-0.00019627496658358723
1761315795601543000,0.92154296875,0.002912166528403759,-0.008475776761770248,0.0016724651213735342
1761315795611590100,0.931590087890625,0.002597380895167589,-0.007869374938309193,0.001005609636195004
1761315795621637000,0.94163720703125,0.006354834884405136,-0.00802996288985014,0.0023209447972476482
1761315795631685000,0.95168505859375,0.004503405187278986,-0.006194779183715582,0.001023452845402062
1761315795641732000,0.961732177734375,0.006618488114327192,-0.007752994541078806,0.0018703379901126027
1761315795651778800,0.97177880859375,0.008041947148740292,-0.005622731987386942,0.00039414784987457097
1761315795661827000,0.9818271484375,0.007656321860849857,-0.008007858879864216,-0.000009321063771494664
1761315795671874000,0.9918740234375,0.009823602624237537,-0.00697987899184227,0.0017896442441269755
1761315795681921000,1.001921142578125,0.007822236977517605,-0.006586263421922922,-0.0012996225850656629
1761315795691969300,1.01196923828125,0.008736765943467617,-0.008324774913489819,0.0024370586033910513
1761315795702016000,1.02201611328125,0.007180680986493826,-0.008582036942243576,0.0021523667965084314
1761315795712063000,1.03206298828125,0.008203068748116493,-0.004999019671231508,0.0015385081060230732
1761315795722111000,1.042111083984375,0.006583600305020809,-0.007140733767300844,0.0016623451374471188
1761315795732158000,1.052157958984375,0.003975566942244768,-0.007759119849652052,0.0031353395897895098
1761315795742205200,1.062205078125,0.006669087801128626,-0.008558068424463272,-0.0015904398169368505
1761315795752253000,1.0722529296875,0.008419583551585674,-0.008417187258601189,0.001008805469609797
1761315795762300000,1.0822998046875,0.008107727393507957,-0.006994792725890875,-0.00040666470886208117
1761315795772347000,1.092346923828125,0.007224357221275568,-0.0038043255917727947,0.001954760169610381
1761315795782395100,1.10239501953125,0.009938650764524937,-0.00999191403388977,0.003591272747144103
1761315795792442000,1.112442138671875,0.006030195392668247,-0.00818123109638691,0.0020783308427780867
1761315795802489000,1.122489013671875,0.0075908079743385315,-0.010528807528316975,0.00196381495334208
1761315795812536800,1.132536865234375,0.006647250149399042,-0.007133277133107185,0.001119060325436294
1761315795822584000,1.142583984375,0.007705856580287218,-0.007529288996011019,0.0019718045368790627
1761315795832631000,1.152631103515625,0.008156463503837585,-0.007187339011579752,0.0008543420699425042
1761315795842679000,1.162678955078125,0.0070312777534127235,-0.007448062766343355,0.0015094797126948833
1761315795852726000,1.17272607421875,0.008874185383319855,-0.008563661016523838,-0.001383778522722423
1761315795862773500,1.1827734375,0.009101352654397488,-0.010783139616250992,0.00012863067968282849
1761315795872820700,1.19282080078125,0.006681072060018778,-0.007420099340379238,0.0021164140198379755
1761315795882868500,1.202868408203125,0.006493052933365107,-0.0062616243958473206,-0.0008711199625395238
1761315795892915500,1.21291552734375,0.006813164800405502,-0.00968858040869236,0.0015363775892183185
1761315795902962400,1.22296240234375,0.00743261631578207,-0.007681888062506914,0.0015752597246319056
1761315795913010700,1.2330107421875,0.005915413144975901,-0.006257096771150827,0.0020642161834985018
1761315795923057700,1.2430576171875,0.008194279856979847,-0.008129831403493881,0.001931058126501739
1761315795933104600,1.253104736328125,0.007453389000147581,-0.007782822009176016,0.0035840822383761406
1761315795943152400,1.26315234375,0.006509564816951752,-0.006840861868113279,0.004748948849737644
1761315795953199400,1.273199462890625,0.007321562618017197,-0.008525311015546322,0.002688993699848652
1761315795963246600,1.28324658203125,0.005883455276489258,-0.0065047708339989185,0.002186188939958811
1761315795973294600,1.293294677734375,0.007701595313847065,-0.00765845226123929,0.001606152392923832
1761315795983341600,1.303341552734375,0.007078149355947971,-0.007435812149196863,0.001386441639624536
1761315795993388300,1.31338818359375,0.006616889964789152,-0.006305033806711435,-0.0001054611784638837
1761315796003436500,1.3234365234375,0.007707986980676651,-0.009483782574534416,0.0026471822056919336
1761315796013483500,1.3334833984375,0.0062341936863958836,-0.010045443661510944,0.0018080200534313917
1761315796023530500,1.343530517578125,0.007114634849131107,-0.01085610967129469,0.0027987160719931126
1761315796033578500,1.35357861328125,0.004085821565240622,-0.008959938772022724,0.0024117587599903345
1761315796043625500,1.36362548828125,0.008129299618303776,-0.007321562618017197,0.002569950418546796
1761315796053672400,1.37367236328125,0.006036587059497833,-0.007590008899569511,0.0033816818613559008
1761315796063720400,1.383720458984375,0.008972722105681896,-0.006149238906800747,0.001466602785512805
1761315796073767400,1.393767333984375,0.005622199270874262,-0.007503989152610302,0.0023150858469307423
1761315796083814400,1.403814453125,0.004503937903791666,-0.00523737259209156,0.0008942894637584686
1761315796093862700,1.413862548828125,0.0041193775832653046,-0.006500243674963713,0.002660231664776802
1761315796103909400,1.423909423828125,0.007063768338412046,-0.008134892210364342,0.0032538501545786858
1761315796113956400,1.433956298828125,0.007869374938309193,-0.007397196255624294,0.00044022052315995097
1761315796124004600,1.444004638671875,0.007225954905152321,-0.009630522690713406,0.00028282770654186606
1761315796134051600,1.454051513671875,0.009034241549670696,-0.007652859669178724,0.003049585735425353
1761315796144098600,1.4640986328125,0.005064799915999174,-0.004828311037272215,-0.00042264367220923305
1761315796154146600,1.474146484375,0.006310360040515661,-0.007677094545215368,0.0005587312043644488
1761315796164193300,1.484193359375,0.005579588934779167,-0.0076363482512533665,0.0002825613773893565
1761315796174240500,1.494240478515625,0.007499461527913809,-0.009545035660266876,-0.0002865561400540173
1761315796184288500,1.50428857421875,0.007449926808476448,-0.006593187805265188,0.0010668623726814985
1761315796194335500,1.51433544921875,0.007478955201804638,-0.006892260629683733,-0.0005075985100120306
1761315796204382500,1.524382568359375,0.008231564424932003,-0.008176437579095364,-0.00022157499915920198
1761315796214430500,1.534430419921875,0.007141266483813524,-0.009518403559923172,0.001913481275551021
1761315796224477400,1.5444775390625,0.00897032581269741,-0.009688845835626125,0.002469282830134034
1761315796234524400,1.5545244140625,0.008075503632426262,-0.007051517721265554,0.0017710020765662193
1761315796244572400,1.564572509765625,0.006680273450911045,-0.006028331350535154,0.002171008847653866
1761315796254619600,1.57461962890625,0.008345281705260277,-0.00983398873358965,0.0012029499048367143
1761315796264666600,1.58466650390625,0.006161755882203579,-0.007018228527158499,0.002284725895151496
1761315796274714400,1.59471435546875,0.00851306039839983,-0.008666724897921085,0.0022767363116145134
1761315796284761300,1.60476123046875,0.00800466351211071,-0.007348194252699614,0.0010362359462305903
1761315796294808300,1.614808349609375,0.0056741307489573956,-0.008617190644145012,0.002630137838423252
1761315796304856600,1.624856689453125,0.004999552387744188,-0.007896538823843002,0.0032711606472730637
1761315796314903600,1.634903564453125,0.0070525831542909145,-0.007940747775137424,-0.0005331648280844092
1761315796324950500,1.644950439453125,0.00675297761335969,-0.00848722830414772,0.0011227887589484453
1761315796334998500,1.65499853515625,0.0076089175418019295,-0.010144779458642006,-0.0011598066193982959
1761315796345045500,1.66504541015625,0.006883206311613321,-0.00711809704080224,0.0014106763992458582
1761315796355092500,1.675092529296875,0.00881160143762827,-0.008357265964150429,0.0005246427026577294
1761315796365140500,1.685140380859375,0.00498011102899909,-0.00782383419573307,0.0017816547770053148
1761315796375187500,1.6951875,0.007129814941436052,-0.008097607642412186,0.0035577169619500637
1761315796385234700,1.705234619140625,0.007529288996011019,-0.008817194029688835,0.0009004147723317146
1761315796395282400,1.715282470703125,0.006641657557338476,-0.0075881448574364185,0.0010897654574364424
1761315796405329400,1.725329345703125,0.007983091287314892,-0.007897604256868362,0.001014398061670363
1761315796415376400,1.73537646484375,0.007538077421486378,-0.009210809133946896,-0.00035420042695477605
1761315796425423400,1.74542333984375,0.00794660672545433,-0.009957026690244675,0.002675145398825407
1761315796435471600,1.7554716796875,0.006301305256783962,-0.0081474082544446,0.002561161993071437
1761315796445518600,1.7655185546875,0.007161506451666355,-0.007895207032561302,0.003507649526000023
1761315796455566300,1.77556640625,0.008855010382831097,-0.006969492416828871,0.002730805426836014
1761315796465613600,1.785613525390625,0.00765738682821393,-0.007044327445328236,0.00018109494703821838
1761315796475660500,1.79566064453125,0.007237672805786133,-0.00860467366874218,0.004465055651962757
1761315796485707500,1.80570751953125,0.008288023993372917,-0.00842863880097866,0.0029489181470125914
1761315796495755500,1.815755615234375,0.007229949813336134,-0.0065742796286940575,0.0015012238873168826
1761315796505802500,1.825802490234375,0.007434213999658823,-0.0075545888394117355,0.0018274611793458462
1761315796515849500,1.835849365234375,0.007582552265375853,-0.005345496814697981,-0.00013875069271307439
1761315796525897500,1.8458974609375,0.010232397355139256,-0.007515972945839167,0.0006676545017398894
1761315796535944400,1.8559443359375,0.0075905416160821915,-0.008843026123940945,0.0009973538108170033
1761315796545991400,1.865991455078125,0.006375607568770647,-0.008320780470967293,0.000050333743274677545
1761315796556039700,1.876039794921875,0.006206230726093054,-0.008442486636340618,0.0030336068011820316
1761315796566086700,1.886086669921875,0.006108758971095085,-0.008130630478262901,0.001440237509086728
1761315796576133400,1.89613330078125,0.006573746912181377,-0.00794420950114727,0.0007217166712507606
1761315796586181400,1.906181396484375,0.006375607568770647,-0.008979380130767822,0.000773381965700537
1761315796596228600,1.916228515625,0.005013134330511093,-0.008891495876014233,0.0008143946761265397
1761315796606275600,1.926275634765625,0.005483182147145271,-0.007696002721786499,0.0006301039247773588
1761315796616323600,1.936323486328125,0.006717291194945574,-0.006842459551990032,0.0019867182709276676
1761315796626370300,1.946370361328125,0.007524761371314526,-0.0070611052215099335,0.002898051869124174
1761315796636417300,1.956417236328125,0.007763114292174578,-0.005917810369282961,-0.00015925703337416053
1761315796646465500,1.966465576171875,0.00777669670060277,-0.007014766335487366,0.0009797769598662853
1761315796656512500,1.976512451171875,0.009047291241586208,-0.007421164773404598,0.0012258529895916581
1761315796666559500,1.9865595703125,0.00529542937874794,-0.0073407371528446674,-0.0004972121678292751
1761315796676607500,1.996607421875,0.0056954361498355865,-0.0073199644684791565,0.0020578245166689157
1761315796686654500,2.006654541015625,0.00860600546002388,-0.008688297122716904,0.0030245520174503326
1761315796696701400,2.016701416015625,0.007546599488705397,-0.00878124125301838,0.0012713931500911713
1761315796706749400,2.02674951171875,0.0073415362276136875,-0.008763664402067661,0.000833036785479635
1761315796716796400,2.03679638671875,0.008161523379385471,-0.005852030124515295,0.001549959764815867
1761315796726843600,2.04684375,0.007794806268066168,-0.006637129932641983,0.002186455298215151
1761315796736891400,2.056891357421875,0.012056929059326649,-0.008703743107616901,0.0016439693281427026
1761315796746938400,2.0669384765625,0.009592972695827484,-0.009400425478816032,-0.00016458335448987782
1761315796756985300,2.0769853515625,0.005830724723637104,-0.010035856626927853,-0.0004950816510245204
1761315796767033600,2.08703369140625,0.009005213156342506,-0.006168946158140898,0.0015715312911197543
1761315796777080600,2.09708056640625,0.005770537536591291,-0.007444600574672222,0.002734001260250807
1761315796787127600,2.10712744140625,0.006334594916552305,-0.007342068944126368,0.000037017940485384315
1761315796797175300,2.11717529296875,0.007107177749276161,-0.008295746520161629,0.0025015072897076607
1761315796807222500,2.127222412109375,0.004627508576959372,-0.008224640041589737,0.0025063008069992065
1761315796817269500,2.13726953125,0.004972920753061771,-0.006622216198593378,0.0033955303952097893
1761315796827317500,2.1473173828125,0.007256315089762211,-0.008558601140975952,0.0011606055777519941
1761315796837364500,2.157364501953125,0.009159675799310207,-0.0059785302728414536,0.0018021611031144857
1761315796847411500,2.167411376953125,0.007723966147750616,-0.01215786300599575,-0.00015686018741689622
1761315796857459500,2.17745947265625,0.006246710661798716,-0.006771087180823088,0.0022122878581285477
1761315796867507000,2.1875068359375,0.005548429675400257,-0.007488542702049017,0.0035899411886930466
1761315796877554000,2.197553955078125,0.006427539046853781,-0.008155131712555885,0.0009558085002936423
1761315796887602000,2.207601806640625,0.006866694428026676,-0.009691509418189526,0.0036724992096424103
1761315796897649000,2.21764892578125,0.010264888405799866,-0.008375109173357487,0.002645051572471857
1761315796907696000,2.227696044921875,0.006489857099950314,-0.007829426787793636,-0.0015401060227304697
1761315796917743900,2.237743896484375,0.008494684472680092,-0.008287224918603897,0.0029055087361484766
1761315796927790800,2.247790771484375,0.010144779458642006,-0.00872238539159298,0.0006844323943369091
1761315796937837800,2.257837890625,0.005839513149112463,-0.005997172556817532,0.0009116000146605074
1761315796947886000,2.267885986328125,0.007623032201081514,-0.007795072626322508,0.0027867318131029606
1761315796957933000,2.27793310546875,0.007014766335487366,-0.007873635739088058,0.002798982197418809
1761315796967980000,2.28797998046875,0.007818241603672504,-0.008757272735238075,0.0044200485572218895
1761315796978027800,2.29802783203125,0.006326871924102306,-0.008498147130012512,0.001047687605023384
1761315796988075000,2.308074951171875,0.011267035268247128,-0.008051002398133278,0.002433063928037882
1761315796998122000,2.3181220703125,0.006086920853704214,-0.00771837355569005,-0.00013688647595699877
1761315797008170000,2.328169921875,0.008963667787611485,-0.008198807947337627,0.00592686515301466
1761315797018217000,2.338217041015625,0.007797735743224621,-0.006717291194945574,0.0018343853298574686
1761315797028263700,2.348263671875,0.007651527877897024,-0.00812344066798687,0.000595216522924602
1761315797038312000,2.35831201171875,0.008934639394283295,-0.006476008798927069,-0.0014386395923793316
1761315797048359000,2.36835888671875,0.006453904323279858,-0.011130149476230145,0.0006849650526419282
1761315797058406000,2.378406005859375,0.005212072748690844,-0.0086001455783844,0.001677525113336742
1761315797068454100,2.3884541015625,0.0070821442641317844,-0.010790862143039703,0.004129497334361076
1761315797078500900,2.3985009765625,0.005681321490556002,-0.008352472446858883,0.0013193299528211355
1761315797088547800,2.4085478515625,0.0070366039872169495,-0.008039284497499466,0.0007480819476768374
1761315797098594800,2.4185947265625,0.0052112736739218235,-0.006095176562666893,0.0034932682756334543
1761315797108642800,2.428642822265625,0.006518885493278503,-0.008649680763483047,-0.0003981425834354013
1761315797118690000,2.43868994140625,0.007442469708621502,-0.007220362313091755,0.0002306297537870705
1761315797128737000,2.448737060546875,0.005312739871442318,-0.008517853915691376,0.0023062974214553833
1761315797138784800,2.45878466796875,0.007334345486015081,-0.009069395251572132,0.002103098202496767
1761315797148831700,2.468831787109375,0.0054363105446100235,-0.007730357814580202,0.0006205165409483016
1761315797158878700,2.478878662109375,0.009217467159032822,-0.008547947742044926,0.0005579322460107505
1761315797168927000,2.488927001953125,0.006963633466511965,-0.004868258256465197,0.001068193931132555
1761315797178974000,2.498973876953125,0.00920308567583561,-0.00794127956032753,0.0006889597862027586
1761315797189021000,2.50902099609375,0.008785235695540905,-0.008047273382544518,-0.0013880395563319325
1761315797199069000,2.51906884765625,0.009034507907927036,-0.0076097166165709496,0.0030770162120461464
1761315797209116000,2.529115966796875,0.008237956091761589,-0.00700864102691412,0.002579271560534835
1761315797219163000,2.539162841796875,0.006216084118932486,-0.005632852204144001,0.001955026527866721
1761315797229211000,2.5492109375,0.007192398887127638,-0.007508782669901848,0.0024019049014896154
1761315797239257900,2.5592578125,0.008767925202846527,-0.007328220177441835,0.002347576431930065
1761315797249305000,2.56930517578125,0.006655239500105381,-0.008594286628067493,0.001347825862467289
1761315797259352800,2.579352783203125,0.009152752347290516,-0.008408398367464542,-0.0015393070643767715
1761315797269399800,2.58939990234375,0.006055762059986591,-0.0062395199202001095,-0.00018375810759607702
1761315797279446800,2.59944677734375,0.005025651305913925,-0.0065343319438397884,0.001475657569244504
1761315797289495000,2.6094951171875,0.005036303773522377,-0.008533567190170288,0.0012117383303120732
1761315797299542000,2.6195419921875,0.004659466445446014,-0.009370865300297737,0.0006346312584355474
1761315797309589000,2.629589111328125,0.006327670533210039,-0.008598814718425274,0.0034759577829390764
1761315797319636700,2.63963671875,0.0049127331003546715,-0.008914398960769176,0.0017536915838718414
1761315797329684000,2.64968408203125,0.006129531655460596,-0.006904777605086565,0.0013171994360163808
1761315797339731000,2.65973095703125,0.0073356772772967815,-0.007697867229580879,0.0024679512716829777
1761315797349779000,2.669779052734375,0.007240335922688246,-0.005042695440351963,-0.00041332258842885494
1761315797359826000,2.679825927734375,0.007419300265610218,-0.00768748065456748,0.0004442152567207813
1761315797369873000,2.689872802734375,0.007436344865709543,-0.010367952287197113,0.0032344090286642313
1761315797379921000,2.6999208984375,0.007308512926101685,-0.007017695810645819,0.0021760689560323954
1761315797389968000,2.7099677734375,0.008185491897165775,-0.007939948700368404,0.0022927154786884785
1761315797400014800,2.720014892578125,0.00788535363972187,-0.0073657711036503315,-0.0015536881983280182
1761315797410063000,2.73006298828125,0.008195078931748867,-0.007444866932928562,0.004187820944935083
1761315797420110000,2.740110107421875,0.010468619875609875,-0.0070701600052416325,0.0021971079986542463
1761315797430157000,2.750156982421875,0.008276039734482765,-0.00700837466865778,0.0004974784678779542
1761315797440204800,2.760204833984375,0.008594021201133728,-0.008645419962704182,0.0031963258516043425
1761315797450251800,2.770251708984375,0.006345780100673437,-0.008894691243767738,0.0017473000334575772
1761315797460299000,2.780299072265625,0.0094507597386837,-0.006336192600429058,-0.0001507349224993959
1761315797470347000,2.790346923828125,0.008705341257154942,-0.007929561659693718,-0.0004516721237450838
1761315797480394000,2.80039404296875,0.005179049447178841,-0.00740225613117218,0.0012069445801898837
1761315797490441000,2.81044091796875,0.007726629264652729,-0.0059905145317316055,0.0022506373934447765
1761315797500489000,2.820489013671875,0.007781756576150656,-0.009350358508527279,0.00364719913341105
1761315797510536000,2.830535888671875,0.008130097761750221,-0.008381234481930733,0.0018008295446634293
1761315797520583000,2.8405830078125,0.006086920853704214,-0.0071007865481078625,0.0007534082396887243
1761315797530631000,2.850630859375,0.00860573910176754,-0.007080546114593744,0.003477555699646473
1761315797540678100,2.86067822265625,0.006159359123557806,-0.007250988855957985,0.002609631512314081
1761315797550724900,2.870724853515625,0.009247826412320137,-0.0070677632465958595,-0.0013883059145882726
1761315797560772900,2.88077294921875,0.005594236310571432,-0.007004379760473967,0.003316700691357255
1761315797570819800,2.89081982421875,0.007005445193499327,-0.005803560372442007,0.002685531508177519
1761315797580866800,2.90086669921875,0.005750563926994801,-0.007317834068089724,0.002153165638446808
1761315797590915000,2.9109150390625,0.008249940350651741,-0.006572681479156017,0.00037523938226513565
1761315797600962000,2.920962158203125,0.009003348648548126,-0.00956900417804718,0.0015712650492787361
1761315797611008800,2.9310087890625,0.006569219287484884,-0.007932225242257118,0.0006804376607760787
1761315797621055700,2.9410556640625,0.007120760157704353,-0.00740252248942852,0.0017265273490920663
1761315797631104000,2.95110400390625,0.008100803010165691,-0.006083458662033081,0.0011523497523739934
1761315797641151000,2.96115087890625,0.008894691243767738,-0.007829959504306316,0.0014125406742095947
1761315797651198000,2.971197998046875,0.008408398367464542,-0.0103770075365901,0.001407480682246387
1761315797661245700,2.98124560546875,0.010190851986408234,-0.008049670606851578,0.002302569104358554
1761315797671293000,2.99129296875,0.00890614278614521,-0.009239038452506065,0.00196381495334208
1761315797681340000,3.00133984375,0.01025503408163786,-0.005028314422816038,0.0025273398496210575
1761315797691388000,3.011387939453125,0.009563145227730274,-0.007784153334796429,0.0010729875648394227
1761315797701435000,3.021434814453125,0.007479221560060978,-0.008330900222063065,0.0043840957805514336
1761315797711481900,3.03148193359375,0.008975918404757977,-0.008267250843346119,0.0012865731259807944
1761315797721529900,3.04152978515625,0.008683769032359123,-0.007324757985770702,-0.0005161206354387105
1761315797731576800,3.051576904296875,0.007867776788771152,-0.007867776788771152,0.000278300343779847
1761315797741623800,3.061623779296875,0.007407582364976406,-0.009435047395527363,0.0003400856803636998
1761315797751672000,3.071672119140625,0.0070587084628641605,-0.00606534956023097,0.0014689996605738997
1761315797761719000,3.081718994140625,0.005045624915510416,-0.006848318502306938,0.0017156084068119526
1761315797771766000,3.09176611328125,0.006570551078766584,-0.006762032397091389,-0.0012756541837006807
1761315797781813800,3.101813720703125,0.00683100800961256,-0.009979130700230598,0.0011848403373733163
1761315797791860700,3.11186083984375,0.006989466026425362,-0.006462160497903824,0.0013962953817099333
1761315797801908000,3.121907958984375,0.004070641472935677,-0.008825449272990227,0.0029997846577316523
1761315797811956000,3.1319560546875,0.006683202926069498,-0.008168714120984077,0.0017875137273222208
1761315797822003000,3.1420029296875,0.005317800212651491,-0.006888532545417547,0.0015638081822544336
1761315797832050000,3.1520498046875,0.006491987966001034,-0.008681106381118298,0.00058323226403445
1761315797842098000,3.162097900390625,0.00708720413967967,-0.007748999632894993,0.001725462032482028
1761315797852145000,3.172144775390625,0.00509888818487525,-0.007071225438266993,0.00007270430069183931
1761315797862191900,3.18219189453125,0.0073167686350643635,-0.008813731372356415,0.0010514160385355353
1761315797872238800,3.19223876953125,0.00621022516861558,-0.007893609814345837,0.002758768619969487
1761315797882286800,3.202286865234375,0.006658968050032854,-0.007157777901738882,-0.0005020058597438037
1761315797892334000,3.212333984375,0.007595335599035025,-0.004326038993895054,0.0009185242815874517
1761315797902381000,3.222381103515625,0.005976666230708361,-0.007096525281667709,0.0016674051294103265
1761315797912428800,3.2324287109375,0.00983558688312769,-0.008646751753985882,-0.00036485306918621063
1761315797922475800,3.242475830078125,0.007333812769502401,-0.007987619377672672,-0.0006064017652533948
1761315797932522800,3.252522705078125,0.0049343048594892025,-0.007288272958248854,0.0041761030443012714
1761315797942571000,3.262571044921875,0.005391569808125496,-0.008333563804626465,0.0025624935515224934
1761315797952618000,3.272617919921875,0.00990269798785448,-0.007648598402738571,0.0007797735743224621
1761315797962665000,3.2826650390625,0.006083458662033081,-0.00974530540406704,0.000857005245052278
1761315797972712700,3.292712646484375,0.005851497408002615,-0.007131678983569145,0.0017246630741283298
1761315797982760000,3.302760009765625,0.007774566300213337,-0.007000118959695101,0.0006862966110929847
1761315797992807000,3.312806884765625,0.008051801472902298,-0.006339921150356531,0.001508680754341185
1761315798002855000,3.32285498046875,0.006061088293790817,-0.004826446995139122,-0.00048629322554916143
1761315798012902000,3.33290185546875,0.00890694186091423,-0.007478422485291958,0.004765726625919342
1761315798022948900,3.342948974609375,0.005619802512228489,-0.00899722333997488,0.0023371900897473097
1761315798032996900,3.352996826171875,0.006677609868347645,-0.009061139076948166,0.000499875342939049
1761315798043043800,3.3630439453125,0.007446464616805315,-0.0095069520175457,0.002216548891738057
1761315798053090800,3.3730908203125,0.007871771231293678,-0.009965016506612301,0.00016112125013023615
1761315798063139000,3.38313916015625,0.010267284698784351,-0.008072573691606522,0.0014466290595009923
1761315798073186000,3.39318603515625,0.007734884973615408,-0.006083458662033081,0.003724430687725544
1761315798083232800,3.403232666015625,0.007217965554445982,-0.0062246061861515045,0.0026370619889348745
1761315798093280800,3.41328076171875,0.007753527257591486,-0.008049404248595238,0.0025502429343760014
1761315798103328000,3.423327880859375,0.007689877413213253,-0.007671235594898462,0.0027715517207980156
1761315798113375000,3.433375,0.008654740639030933,-0.0068387314677238464,0.0016391756944358349
1761315798123423000,3.443423095703125,0.008360461331903934,-0.005291967187076807,0.0015472965314984322
1761315798133469700,3.4534697265625,0.00872291810810566,-0.006655505858361721,0.0013622068800032139
1761315798143516700,3.4635166015625,0.009863283485174179,-0.0071037160232663155,0.0031190942972898483
1761315798153565000,3.47356494140625,0.008500809781253338,-0.007608118467032909,0.0013736584223806858
1761315798163612000,3.48361181640625,0.009064069017767906,-0.00669278996065259,0.0016407734947279096
1761315798173659000,3.493658935546875,0.008166849613189697,-0.004960936494171619,0.002111886627972126
1761315798183705900,3.503705810546875,0.00836951658129692,-0.006066680885851383,0.0012120045721530914
1761315798193753900,3.51375390625,0.006016613449901342,-0.008903213776648045,-0.0005278385360725224
1761315798203800800,3.52380078125,0.006223541218787432,-0.006197974551469088,0.002067412016913295
1761315798213847800,3.533847900390625,0.008944492787122726,-0.0037987329997122288,0.0010801780736073852
1761315798223895800,3.543895751953125,0.006460029631853104,-0.008591890335083008,0.0006673881434835494
1761315798233943000,3.553943115234375,0.007985754869878292,-0.008341819047927856,0.0012602078495547175
1761315798243990000,3.563989990234375,0.008048605173826218,-0.008917062543332577,-0.0012002866715192795
1761315798254037800,3.574037841796875,0.007389206904917955,-0.007028614636510611,-0.00006711165769957006
1761315798264084700,3.584084716796875,0.006935137789696455,-0.008017712272703648,-0.0008594020619057119
1761315798274131700,3.594131591796875,0.006703176535665989,-0.008578574284911156,0.0024407871533185244
1761315798284180000,3.604179931640625,0.004727909807115793,-0.008035289123654366,-0.00015339808305725455
1761315798294227000,3.61422705078125,0.00788455456495285,-0.008363657630980015,0.003694869577884674
1761315798304274000,3.62427392578125,0.007253119256347418,-0.006443784572184086,0.001704955706372857
1761315798314321700,3.63432177734375,0.006602242588996887,-0.006835535634309053,0.0007291734800674021
1761315798324369000,3.644368896484375,0.007815046235918999,-0.00800492987036705,-0.0007126618875190616
1761315798334416000,3.654415771484375,0.00923131499439478,-0.008510664105415344,0.0008005462004803121
1761315798344464000,3.6644638671875,0.007635815534740686,-0.007089600898325443,0.003736414946615696
1761315798354510800,3.6745107421875,0.007868043147027493,-0.00606268597766757,0.0031353395897895098
1761315798364558000,3.68455810546875,0.0070730894804000854,-0.008079231716692448,0.002528671408072114
1761315798374605000,3.69460498046875,0.00794554129242897,-0.008674981072545052,0.0032567796297371387
1761315798384652800,3.70465283203125,0.010004697367548943,-0.006611830089241266,0.001654089312069118
1761315798394699800,3.71469970703125,0.007047523278743029,-0.007050452753901482,0.0013693973887711763
1761315798404746800,3.724746826171875,0.008710401132702827,-0.004991030320525169,0.0020330571569502354
1761315798414795000,3.734794921875,0.006776679772883654,-0.006027265917509794,0.0011611381778493524
1761315798424842000,3.744842041015625,0.007318633142858744,-0.006681072060018778,0.001933454885147512
1761315798434889000,3.754888916015625,0.010219880379736423,-0.0073410035111010075,0.0016373114194720984
1761315798444937000,3.76493701171875,0.009127185679972172,-0.0062427157536149025,0.004854143597185612
1761315798454984000,3.77498388671875,0.006966030225157738,-0.006882407236844301,0.0024778051301836967
1761315798465031000,3.785031005859375,0.0038863508962094784,-0.007684284821152687,0.0029915287159383297
1761315798475079000,3.795078857421875,0.0075908079743385315,-0.006871754303574562,0.0007890945998951793
1761315798485126000,3.8051259765625,0.007815845310688019,-0.008504272438585758,0.0028546424582600594
1761315798495172900,3.8151728515625,0.00743075180798769,-0.008264321833848953,0.0033393376506865025
1761315798505220900,3.825220947265625,0.007899735122919083,-0.007721303030848503,0.002162220422178507
1761315798515267800,3.835267822265625,0.00836898386478424,-0.006735134404152632,0.0018764632986858487
1761315798525314800,3.845314697265625,0.008582303300499916,-0.005225654691457748,0.0021992383990436792
1761315798535361800,3.85536181640625,0.006846188101917505,-0.005849633365869522,0.0022325278259813786
1761315798545409800,3.865409912109375,0.0068144965916872025,-0.00854235514998436,0.0017366473330184817
1761315798555456800,3.875456787109375,0.008709335699677467,-0.007486678194254637,0.002445580903440714
1761315798565503700,3.885503662109375,0.007527957204729319,-0.0051652006804943085,0.0000780306218075566
1761315798575552000,3.895552001953125,0.009904562495648861,-0.007483216468244791,0.0008620652370154858
1761315798585599000,3.905598876953125,0.00791358295828104,-0.007487477269023657,0.0029976540245115757
1761315798595646000,3.91564599609375,0.009485380724072456,-0.0062610916793346405,0.0027691549621522427
1761315798605693700,3.925693603515625,0.007634217385202646,-0.00771730812266469,0.0022125542163848877
1761315798615740700,3.93574072265625,0.008385761640965939,-0.007171093951910734,0.004223773255944252
1761315798625788000,3.945787841796875,0.007672566920518875,-0.007967112585902214,0.004252269398421049
1761315798635836000,3.9558359375,0.008085889741778374,-0.0070981234312057495,0.001862082164734602
1761315798645883000,3.9658828125,0.007093329448252916,-0.007554056588560343,0.0009262474486604333
1761315798655929900,3.975929931640625,0.009387643076479435,-0.007404652889817953,-0.00004420847471919842
1761315798665977900,3.985977783203125,0.006238987669348717,-0.0070517840795218945,0.0033065807074308395
1761315798676024800,3.99602490234375,0.005813946947455406,-0.006363889668136835,0.000032490566809428856
1761315798686071800,4.00607177734375,0.010092847980558872,-0.009439840912818909,-0.0009720537927933037
1761315798696119800,4.016119873046875,0.007735950406640768,-0.008616391569375992,0.0009454221581108868
1761315798706167000,4.0261669921875,0.00688933115452528,-0.007836084812879562,-0.00022770027862861753
1761315798716214000,4.036214111328125,0.0060293967835605145,-0.007802529260516167,0.001639441936276853
1761315798726261800,4.04626171875,0.0045572011731565,-0.007392934989184141,0.0018897791160270572
1761315798736308700,4.056308837890625,0.006762032397091389,-0.007397462613880634,-0.0011342403013259172
1761315798746355700,4.066355712890625,0.00487225316464901,-0.008016381412744522,0.0006064017652533948
1761315798756403000,4.07640283203125,0.0067931911908090115,-0.007071757689118385,0.0012809804175049067
1761315798766451000,4.086450927734375,0.005374525208026171,-0.007139401976019144,0.0007510114228352904
1761315798776498000,4.096497802734375,0.007218231912702322,-0.006157760974019766,0.0002772350562736392
1761315798786545000,4.106544921875,0.004592887591570616,-0.00902678444981575,-0.000464188982732594
1761315798796593000,4.116593017578125,0.007113036699593067,-0.007918376475572586,0.0026399914640933275
1761315798806639900,4.126639892578125,0.00660384027287364,-0.010277937166392803,0.00253532943315804
1761315798816686800,4.136686767578125,0.007256048731505871,-0.00624111806973815,0.0024868599139153957
1761315798826734800,4.14673486328125,0.008980445563793182,-0.00760998297482729,0.00029081720276735723
1761315798836782000,4.156781982421875,0.006704507861286402,-0.008761533536016941,0.00003009372085216455
1761315798846829000,4.1668291015625,0.009395099245011806,-0.007129282224923372,0.002671949565410614
1761315798856876800,4.176876708984375,0.009257414378225803,-0.010043845511972904,0.0005542038124985993
1761315798866924300,4.18692431640625,0.011875834316015244,-0.006901049055159092,-0.00022264027211349458
1761315798876971300,4.19697119140625,0.007398793939501047,-0.006097573786973953,0.0002745719102676958
1761315798887018200,4.207018310546875,0.008932242169976234,-0.007405984681099653,0.0005161206354387105
1761315798897066200,4.217066162109375,0.008474178612232208,-0.005155613645911217,0.0022061625495553017
1761315798907113200,4.22711328125,0.006284527480602264,-0.009403621777892113,-0.0009190568816848099
1761315798917160200,4.23716015625,0.006133526097983122,-0.007186806295067072,0.002663427498191595
1761315798927208200,4.247208251953125,0.008945025503635406,-0.00902518630027771,0.0025715483352541924
1761315798937255200,4.257255126953125,0.006899984087795019,-0.008868592791259289,-0.001291100517846644
1761315798947302400,4.267302490234375,0.006552175153046846,-0.008619853295385838,0.000675377668812871
1761315798957350100,4.27735009765625,0.008280833251774311,-0.008019310422241688,-0.0004500742070376873
1761315798967397000,4.287397216796875,0.007671235594898462,-0.007680822629481554,0.002129996195435524
1761315798977444000,4.297444091796875,0.006366819143295288,-0.006385994143784046,0.0032751555554568768
1761315798987492400,4.307492431640625,0.008477107621729374,-0.009350092150270939,0.00017417073831893504
1761315798997539300,4.317539306640625,0.007501858286559582,-0.007795072626322508,0.001487109111621976
1761315799007586300,4.32758642578125,0.006393983494490385,-0.005845372099429369,0.0020003002136945724
1761315799017633300,4.33763330078125,0.004053597338497639,-0.005635781679302454,0.0010040117194876075
1761315799027681300,4.347681396484375,0.006195045076310635,-0.007930893450975418,0.003994475118815899
1761315799037728300,4.357728271484375,0.00703766942024231,-0.004944158717989922,0.0028128307312726974
1761315799047775200,4.367775146484375,0.006141515914350748,-0.006881608162075281,0.0037854171823710203
1761315799057823200,4.3778232421875,0.008980711922049522,-0.007324757985770702,0.001784850494004786
1761315799067870200,4.3878701171875,0.00845713447779417,-0.005394765175879002,0.0005605954211205244
1761315799077917400,4.39791748046875,0.007835020311176777,-0.007711981888860464,0.001350222621113062
1761315799087965200,4.407965087890625,0.006958573590964079,-0.008132228627800941,0.0032032502349466085
1761315799098012200,4.41801220703125,0.008757006376981735,-0.007170561235398054,0.0027385284192860126
1761315799108059100,4.42805908203125,0.0073500582948327065,-0.006021673325449228,0.003073021536692977
1761315799118107400,4.438107421875,0.010162622667849064,-0.007080546114593744,0.002490321872755885
1761315799128154400,4.448154296875,0.008401740342378616,-0.007538343779742718,0.0023899206425994635
1761315799138201300,4.458201416015625,0.009038502350449562,-0.008622516877949238,0.002055960241705179
1761315799148248300,4.468248291015625,0.010207896120846272,-0.008430236019194126,0.0008668589289300144
1761315799158296300,4.47829638671875,0.007763380650430918,-0.007632086984813213,0.0029350698459893465
1761315799168343300,4.48834326171875,0.005978796631097794,-0.00797243881970644,0.00199390877969563
1761315799178390300,4.498390380859375,0.006586263421922922,-0.007788680959492922,0.0021286646369844675
1761315799188438300,4.508438232421875,0.006986536551266909,-0.006100236903876066,0.0024855281226336956
1761315799198485200,4.5184853515625,0.006857639644294977,-0.007901332341134548,0.004734834190458059
1761315799208532200,4.5285322265625,0.006281065288931131,-0.009059540927410126,0.0025683525018393993
1761315799218580200,4.538580322265625,0.006675745826214552,-0.008155930787324905,0.001275920425541699
1761315799228627200,4.548627197265625,0.005038434639573097,-0.006066148169338703,-0.00009614011651137844
1761315799238674200,4.558674072265625,0.007727161981165409,-0.00771650904789567,0.002211222657933831
1761315799248722400,4.568722412109375,0.005218197591602802,-0.007044860161840916,0.0013195963110774755
1761315799258769200,4.57876904296875,0.009352223016321659,-0.007305849809199572,0.0022623552940785885
1761315799268816100,4.588816162109375,0.007638212293386459,-0.005905559752136469,0.0008900284301489592
1761315799278863000,4.598863037109375,0.010211358778178692,-0.007495999336242676,0.0031108383554965258
1761315799288911400,4.608911376953125,0.006284527480602264,-0.008260060101747513,-0.0004814995336346328
1761315799298958300,4.618958251953125,0.008616657927632332,-0.009433449245989323,0.001701759872958064
1761315799309005300,4.62900537109375,0.007237406447529793,-0.00737349409610033,0.0008439557277597487
1761315799319053000,4.639052978515625,0.006217149551957846,-0.0076302229426801205,0.0016698020044714212
1761315799329100000,4.64910009765625,0.007561246864497662,-0.007517837453633547,0.0013933659065514803
1761315799339147300,4.659147216796875,0.008668589405715466,-0.007481085602194071,-0.002511360915377736
1761315799349195300,4.6691953125,0.006619020365178585,-0.009052351117134094,0.0010303769959136844
1761315799359242200,4.6792421875,0.007749265991151333,-0.006654174067080021,0.0006743124104104936
1761315799369289200,4.689289306640625,0.006500510033220053,-0.008787632919847965,0.0029622339643538
1761315799379337200,4.699337158203125,0.010159692727029324,-0.006258961278945208,0.0022530341520905495
1761315799389384200,4.70938427734375,0.006666691042482853,-0.007690676487982273,-0.0005022721597924829
1761315799399431200,4.71943115234375,0.005642172880470753,-0.009043295867741108,0.0025446503423154354
1761315799409478100,4.72947802734375,0.008043012581765652,-0.007928497157990932,-0.0004751079250127077
1761315799419526400,4.7395263671875,0.005373992491513491,-0.008913333527743816,0.000559530162718147
1761315799429573400,4.749573486328125,0.006066947244107723,-0.009957559406757355,0.001418932224623859
1761315799439620400,4.759620361328125,0.005166798830032349,-0.006235259119421244,0.0019518306944519281
1761315799449668000,4.769668212890625,0.007752728182822466,-0.008479238487780094,0.0029228192288428545
1761315799459715300,4.77971533203125,0.005322593729943037,-0.007790278643369675,-0.0004921521758660674
1761315799469762300,4.78976220703125,0.005106344819068909,-0.006652842741459608,-0.0021204089280217886
1761315799479810300,4.799810302734375,0.005626726895570755,-0.007412376347929239,0.00016218650853261352
1761315799489857300,4.809857177734375,0.006337790749967098,-0.007744472473859787,0.002436792477965355
1761315799499904300,4.819904296875,0.008932774886488914,-0.006522081326693296,0.0034852789249271154
1761315799509951200,4.829951171875,0.007481085602194071,-0.008342351764440536,0.001312139444053173
1761315799519999200,4.839999267578125,0.008266185410320759,-0.008042746223509312,-0.0007235808880068362
1761315799530046200,4.850046142578125,0.00811891257762909,-0.006103432737290859,0.0013989584986120462
1761315799540093200,4.86009326171875,0.006680805701762438,-0.007860586047172546,0.0025481125339865685
1761315799550141400,4.870141357421875,0.006727677304297686,-0.006914365105330944,0.0014977618120610714
1761315799560188400,4.8801884765625,0.007199323270469904,-0.009486446157097816,0.0032751555554568768
1761315799570235100,4.890235107421875,0.00777722941711545,-0.007466171868145466,-0.00013076121103949845
1761315799580283100,4.900283203125,0.006953513715416193,-0.007641674485057592,0.0008170577930286527
1761315799590330400,4.910330322265625,0.009163138456642628,-0.007734618615359068,0.0008543420699425042
1761315799600377300,4.92037744140625,0.009037170559167862,-0.009209743700921535,0.0005123922019265592
1761315799610425300,4.93042529296875,0.0068123661912977695,-0.006040315609425306,0.003034672001376748
1761315799620472300,4.940472412109375,0.0051779840141534805,-0.008359662257134914,0.003497795667499304
1761315799630519000,4.95051904296875,0.007439274340867996,-0.00948165263980627,0.0005984122981317341
1761315799640566300,4.960566162109375,0.006384928710758686,-0.008407599292695522,0.0029177593532949686
1761315799650614300,4.9706142578125,0.00818043202161789,-0.007278951816260815,0.0038922098465263844
1761315799660661200,4.9806611328125,0.004021106753498316,-0.010043845511972904,0.0031071100383996964
1761315799670708200,4.990708251953125,0.006420082412660122,-0.009367669001221657,0.005022455472499132
1761315799680756200,5.000756103515625,0.006374276243150234,-0.006666691042482853,0.0013976269401609898
1761315799690803200,5.01080322265625,0.006691724993288517,-0.008418784476816654,0.0022066952660679817
1761315799700850200,5.02085009765625,0.00695005152374506,-0.009395631961524487,0.0022391858510673046
1761315799710898200,5.030898193359375,0.004985969979315996,-0.007873103022575378,0.002290584845468402
1761315799720945400,5.0409453125,0.008566590026021004,-0.009348760358989239,0.0030858046375215054
1761315799730992400,5.050992431640625,0.006340453866869211,-0.008008657954633236,0.0025619608350098133
1761315799741039400,5.061039306640625,0.006167881190776825,-0.00866086594760418,0.0009534116834402084
1761315799751087000,5.071087158203125,0.0064957160502672195,-0.006410228554159403,0.0025987126864492893
1761315799761134000,5.081134033203125,0.007729292381554842,-0.00694925244897604,0.00014034859486855567
1761315799771181300,5.091181396484375,0.006339921150356531,-0.006625145673751831,-0.00036192359402775764
1761315799781229300,5.101229248046875,0.008834504522383213,-0.008614793419837952,0.003413107246160507
1761315799791276300,5.1112763671875,0.007375358138233423,-0.01005050353705883,0.0024668860714882612
1761315799801323300,5.1213232421875,0.006893059704452753,-0.007726629264652729,0.000015978966985130683
1761315799811371300,5.131371337890625,0.008203601464629173,-0.007191600278019905,0.001668736687861383
1761315799821418200,5.141418212890625,0.00782676413655281,-0.00777722941711545,0.0013254552613943815
1761315799831465200,5.15146533203125,0.0073407371528446674,-0.007207312621176243,0.0021766014397144318
1761315799841513200,5.16151318359375,0.010190585628151894,-0.006609965581446886,0.0023379891645163298
1761315799851560400,5.171560546875,0.006342850625514984,-0.009242766536772251,0.004475442226976156
1761315799861607400,5.181607421875,0.006488792132586241,-0.0075790900737047195,0.002561428351327777
1761315799871654100,5.191654052734375,0.00951014831662178,-0.008309861645102501,0.0012397015234455466
1761315799881702000,5.201701904296875,0.006953513715416193,-0.00794314406812191,0.0016056197928264737
1761315799891748900,5.211748779296875,0.009253685362637043,-0.010039851069450378,0.0001073253879440017
1761315799901796000,5.221796142578125,0.0044054011814296246,-0.00708773685619235,0.0013286510948091745
1761315799911844000,5.231843994140625,0.005055478774011135,-0.007737015374004841,0.002293247962370515
1761315799921891000,5.24189111328125,0.007994809187948704,-0.007268032990396023,0.0015433018561452627
1761315799931938000,5.25193798828125,0.008866994641721249,-0.008289887569844723,0.0006458165589720011
1761315799941986000,5.261986083984375,0.008096808567643166,-0.008685633540153503,0.0012831110507249832
1761315799952033000,5.272032958984375,0.006511695217341185,-0.007083475589752197,0.0024887239560484886
1761315799962080000,5.282080078125,0.0051963599398732185,-0.007997739128768444,0.0006287723081186414
1761315799972127000,5.292126953125,0.00572925852611661,-0.007996407337486744,0.0021499700378626585
1761315799982175200,5.30217529296875,0.006940464023500681,-0.006982542108744383,0.0009723200928419828
1761315799992222000,5.312221923828125,0.006656837183982134,-0.0079708406701684,0.0026501116808503866
1761315800002269000,5.32226904296875,0.00672235107049346,-0.007752195466309786,0.0026959178503602743
1761315800012317000,5.33231689453125,0.008490423671901226,-0.008158061653375626,0.0016753945965319872
1761315800022364000,5.342364013671875,0.008146876469254494,-0.009125853888690472,-0.00021678130724467337
1761315800032411100,5.3524111328125,0.009071791544556618,-0.007964715361595154,0.001133174984715879
1761315800042459100,5.362459228515625,0.007228884380310774,-0.006554571911692619,0.000731836655177176
1761315800052505900,5.372505859375,0.006817159708589315,-0.004750014282763004,0.00440939562395215
1761315800062552800,5.382552734375,0.009382583200931549,-0.006674946751445532,0.001748897833749652
1761315800072599800,5.392599853515625,0.008375641889870167,-0.007388674188405275,0.001770469476468861
1761315800082648000,5.40264794921875,0.007262440398335457,-0.01070830412209034,0.0019257317762821913
1761315800092695000,5.412695068359375,0.006940197665244341,-0.008793491870164871,0.0016852483386173844
1761315800102742000,5.422741943359375,0.008445416577160358,-0.007391070947051048,0.0028748824261128902
1761315800112790000,5.4327900390625,0.008637962862849236,-0.0073511237278580666,0.003911118488758802
1761315800122837000,5.4428369140625,0.00920281931757927,-0.007318633142858744,0.0006109291571192443
1761315800132884000,5.452884033203125,0.008095210418105125,-0.005161206237971783,-0.00022903185163158923
1761315800142931000,5.462930908203125,0.008531702682375908,-0.008233695290982723,0.0022596921771764755
1761315800152980000,5.47297998046875,0.003323625074699521,-0.008196677081286907,0.0016080166678875685
1761315800163027000,5.48302685546875,0.00660650385543704,-0.008941829204559326,0.0011403656098991632
1761315800173074000,5.493073974609375,0.006299441214650869,-0.005420065484941006,0.0003235740587115288
1761315800183122000,5.503121826171875,0.006389722228050232,-0.010096043348312378,0.0017747305100783706
1761315800193169200,5.513169189453125,0.003870904678478837,-0.0070802802219986916,0.0032405343372374773
1761315800203216100,5.523216064453125,0.005498894955962896,-0.008971923030912876,0.00199337606318295
1761315800213263000,5.53326318359375,0.006332730874419212,-0.007876032963395119,0.003406981937587261
1761315800223310800,5.543310791015625,0.005805957596749067,-0.0075817531906068325,0.0008660599705763161
1761315800233357800,5.55335791015625,0.00637880340218544,-0.009372995235025883,0.0017539578257128596
1761315800243405000,5.563405029296875,0.00785392802208662,-0.00746244378387928,0.0033185649663209915
1761315800253453000,5.573453125,0.0063154203817248344,-0.007892011664807796,0.003819771809503436
1761315800263500000,5.5835,0.007163636852055788,-0.007685616612434387,0.0017022925894707441
1761315800273547000,5.593547119140625,0.007582552265375853,-0.006555104628205299,0.005832589231431484
1761315800283595000,5.603594970703125,0.009403888136148453,-0.007675230037420988,0.0007869640830904245
1761315800293642000,5.61364208984375,0.008832107298076153,-0.00589650496840477,0.003525492735207081
1761315800303689000,5.62368896484375,0.009089368395507336,-0.009899502620100975,0.0017294568242505193
1761315800313736000,5.63373583984375,0.006923952605575323,-0.008874451741576195,0.0005803027888759971
1761315800323784200,5.6437841796875,0.007467770017683506,-0.005919141694903374,-0.001228516222909093
1761315800333831200,5.6538310546875,0.008144745603203773,-0.008748217485845089,0.0013552826130762696
1761315800343878100,5.663878173828125,0.0073713636957108974,-0.00788801722228527,0.0018096179701387882
1761315800353926000,5.67392578125,0.008133560419082642,-0.005181712564080954,0.002596848411485553
1761315800363972900,5.683972900390625,0.008787100203335285,-0.007645402569323778,-0.00045140579459257424
1761315800374020000,5.69402001953125,0.007420365698635578,-0.008944226428866386,0.0006181196658872068
1761315800384068000,5.704068115234375,0.00663393409922719,-0.00734340026974678,0.002360359765589237
1761315800394115000,5.714114990234375,0.006154831498861313,-0.009706157259643078,0.0008942894637584686
1761315800404162000,5.724162109375,0.007759119849652052,-0.008037952706217766,0.0004593952908180654
1761315800414208800,5.734208740234375,0.004024302586913109,-0.007833954878151417,0.003944407682865858
1761315800424257000,5.744257080078125,0.006994260009378195,-0.0091759217903018,0.0011209244839847088
1761315800434304000,5.754303955078125,0.0062768044881522655,-0.008116516284644604,0.0032085764687508345
1761315800444351000,5.76435107421875,0.009338906966149807,-0.006612895056605339,0.0015182681381702423
1761315800454399200,5.774399169921875,0.00751970149576664,-0.008554605767130852,0.0006788397440686822
1761315800464446000,5.784446044921875,0.006475742440670729,-0.008733304217457771,0.0023941819090396166
1761315800474493000,5.794492919921875,0.008282963186502457,-0.0057343184016644955,0.003482881933450699
1761315800484541000,5.804541015625,0.0073468624614179134,-0.009403888136148453,0.0008974852971732616
1761315800494588000,5.814587890625,0.0070467242039740086,-0.005935387220233679,0.0010599381057545543
1761315800504635100,5.82463525390625,0.006056028418242931,-0.008505870588123798,0.0006929545197635889
1761315800514682000,5.83468212890625,0.007640609052032232,-0.007524495478719473,-0.0007321029552258551
1761315800524729900,5.844729736328125,0.00842597521841526,-0.009065932594239712,0.0008378304773941636
1761315800534776800,5.85477685546875,0.008530370891094208,-0.007207578979432583,0.001967010786756873
1761315800544823800,5.86482373046875,0.007778294384479523,-0.007364439312368631,0.0010439591715112329
1761315800554872000,5.8748720703125,0.008625445887446404,-0.007222759071737528,0.002686596941202879
1761315800564919000,5.8849189453125,0.007465639617294073,-0.007282147649675608,0.001056209672242403
1761315800574966000,5.894966064453125,0.007285077124834061,-0.007480020634829998,0.0011257182341068983
1761315800585013000,5.905012939453125,0.007480819243937731,-0.00860121101140976,-0.001139300293289125
1761315800595061000,5.91506103515625,0.007090666331350803,-0.008227836340665817,0.003058374160900712
1761315800605108000,5.92510791015625,0.007496265694499016,-0.008881908841431141,-0.00047590688336640596
1761315800615155000,5.935155029296875,0.0054368432611227036,-0.009711749851703644,0.002210689941421151
1761315800625203000,5.945202880859375,0.004968925844877958,-0.0062552327290177345,0.0029619678389281034
1761315800635250200,5.955250244140625,0.0073503246530890465,-0.006340453866869211,0.0026101642288267612
1761315800645297200,5.965297119140625,0.0073103769682347775,-0.0060147494077682495,0.0020178770646452904
1761315800655345000,5.975344970703125,0.003981159534305334,-0.008841960690915585,0.003221093211323023
1761315800665391900,5.985391845703125,0.004258394706994295,-0.008154066279530525,0.0043739755637943745
1761315800675438800,5.99543896484375,0.00495161535218358,-0.005944442003965378,0.001091629732400179
1761315800685486000,6.005486083984375,0.00703793577849865,-0.008319182321429253,0.0021281319204717875
1761315800695534000,6.0155341796875,0.007582552265375853,-0.0073194317519664764,0.00020532972121145576
1761315800705581000,6.0255810546875,0.005792641546577215,-0.006785734556615353,0.0014676681021228433
1761315800715628000,6.0356279296875,0.007978297770023346,-0.005498095881193876,0.0005970807396806777
1761315800725676000,6.045676025390625,0.007244597189128399,-0.00780572509393096,0.0009813748765736818
1761315800735723000,6.055722900390625,0.0070680296048521996,-0.008255532942712307,0.0015552861150354147
1761315800745770000,6.06577001953125,0.008055529557168484,-0.00878097489476204,0.002773682354018092
1761315800755817000,6.07581689453125,0.007527690846472979,-0.006509564816951752,0.0024716798216104507
1761315800765865000,6.085864990234375,0.007172158919274807,-0.007328486535698175,-0.00088976213010028
1761315800775912000,6.095911865234375,0.009274458512663841,-0.00797297153621912,0.0009784454014152288
1761315800785959000,6.105958984375,0.006810501683503389,-0.008654740639030933,0.0033220271579921246
1761315800796007000,6.1160068359375,0.008450210094451904,-0.005031243897974491,0.0023752732668071985
1761315800806054100,6.12605419921875,0.009905361570417881,-0.006786533165723085,0.00020426444825716317
1761315800816101000,6.13610107421875,0.009463276714086533,-0.007238471880555153,-0.00038775624125264585
1761315800826148900,6.14614892578125,0.008502407930791378,-0.007002782076597214,0.002900448627769947
1761315800836195800,6.15619580078125,0.007925034500658512,-0.007779359817504883,0.0009832390351220965
1761315800846242800,6.166242919921875,0.007979895919561386,-0.006603574380278587,-0.0014381069922819734
1761315800856290000,6.1762900390625,0.005717007908970118,-0.009226787835359573,0.003231213428080082
1761315800866341600,6.186341552734375,0.007700263988226652,-0.005951632279902697,0.0036093820817768574
1761315800876388600,6.196388671875,0.01104332972317934,-0.00833782460540533,0.0020359866321086884
1761315800886435600,6.206435546875,0.006748982705175877,-0.00680197961628437,0.002472212305292487
1761315800896483300,6.2164833984375,0.0062823970802128315,-0.006715160794556141,0.002049835165962577
1761315800906530600,6.226530517578125,0.0062219430692493916,-0.004289819858968258,-0.0003680488734971732
1761315800916577500,6.23657763671875,0.006332198157906532,-0.005857356358319521,0.00039521310827694833
1761315800926624500,6.24662451171875,0.006414223462343216,-0.008046208880841732,0.0027305390685796738
1761315800936672500,6.256672607421875,0.005228584166616201,-0.007616640534251928,0.0034474621061235666
1761315800946719700,6.2667197265625,0.006327936891466379,-0.007138869725167751,0.0029531794134527445
1761315800956766700,6.2767666015625,0.008212389424443245,-0.005018993280827999,0.0004625910660251975
1761315800966814500,6.286814453125,0.009365006349980831,-0.008208128623664379,-0.00010519486386328936
1761315800976861400,6.296861328125,0.00875088106840849,-0.006333263125270605,0.0015544871566817164
1761315800986908400,6.306908447265625,0.0062304651364684105,-0.00932292826473713,-0.00033422670094296336
1761315800996956700,6.316956787109375,0.009455553255975246,-0.006993993651121855,0.0015584818320348859
1761315801007003600,6.327003662109375,0.006990265101194382,-0.008300273679196835,-0.0015720640076324344
1761315801017050600,6.337050537109375,0.008747418411076069,-0.007735684048384428,-0.00018455706594977528
1761315801027097300,6.347097412109375,0.007654457353055477,-0.00708773685619235,0.0012402341235429049
1761315801037145600,6.3571455078125,0.011215636506676674,-0.00640942994505167,0.0015283881220966578
1761315801047192600,6.367192626953125,0.007987086661159992,-0.007217166479676962,0.0018578211311250925
1761315801057239600,6.377239501953125,0.005767341703176498,-0.010542389005422592,0.0025952504947781563
1761315801067287600,6.38728759765625,0.006728742737323046,-0.006935670506209135,0.0041302964091300964
1761315801077334500,6.39733447265625,0.00443869037553668,-0.009866745211184025,0.002983539365231991
1761315801087381500,6.407381591796875,0.006671218667179346,-0.0073143718764185905,0.0024916534312069416
1761315801097428500,6.417428466796875,0.009653426706790924,-0.008145544677972794,0.000075101139373146
1761315801107476500,6.4274765625,0.0064981128089129925,-0.008986837230622768,0.000031158982892520726
1761315801117523500,6.4375234375,0.008550611324608326,-0.007062969263643026,0.0018972359830513597
1761315801127570700,6.44757080078125,0.00785632524639368,-0.007955927401781082,0.0011773834703490138
1761315801137618400,6.457618408203125,0.004935103934258223,-0.007139934692531824,0.0028455876745283604
1761315801147665400,6.46766552734375,0.008620386011898518,-0.008290153928101063,0.0006668555433861911
1761315801157712400,6.47771240234375,0.004466121084988117,-0.00914715975522995,0.0035081820096820593
1761315801167759600,6.487759521484375,0.005113801918923855,-0.007816111668944359,0.0024703482631593943
1761315801177807600,6.4978076171875,0.006416353862732649,-0.007957791909575462,0.0024642229545861483
1761315801187854600,6.5078544921875,0.00743288267403841,-0.009165002964437008,0.00041864890954457223
1761315801197901600,6.517901611328125,0.008251272141933441,-0.00947712454944849,0.0018639464396983385
1761315801207949600,6.527949462890625,0.007798800710588694,-0.007597732357680798,0.0008514125947840512
1761315801217996500,6.53799658203125,0.007940215058624744,-0.008619586937129498,0.0012261193478479981
1761315801228043500,6.54804345703125,0.008105331100523472,-0.007511978503316641,0.0006841660942882299
1761315801238091500,6.558091552734375,0.005685849115252495,-0.005835252348333597,0.003209908027201891
1761315801248138500,6.568138427734375,0.009822537191212177,-0.008434231393039227,0.0046970173716545105
1761315801258185700,6.578185791015625,0.006401706486940384,-0.006111688446253538,0.0031366711482405663
1761315801268232700,6.588232666015625,0.00785419438034296,-0.009855293668806553,0.004801679402589798
1761315801278280400,6.598280517578125,0.006191050633788109,-0.008114119060337543,0.002228533150628209
1761315801288327400,6.608327392578125,0.007327421568334103,-0.00657614367082715,0.0036043222062289715
1761315801298374700,6.618374755859375,0.007574296556413174,-0.009029979817569256,0.0017638115677982569
1761315801308422700,6.628422607421875,0.0064922538585960865,-0.00868909526616335,0.0030360035598278046
1761315801318469600,6.6384697265625,0.007132211700081825,-0.0062578958459198475,0.0035478631034493446
1761315801328516600,6.6485166015625,0.009783920831978321,-0.007157245185226202,0.0018245317041873932
1761315801338563300,6.658563232421875,0.007085073739290237,-0.009761284105479717,0.0009555422002449632
1761315801348611600,6.668611572265625,0.006484264507889748,-0.007921040058135986,0.000565389113035053
1761315801358658600,6.678658447265625,0.007849400863051414,-0.008106661960482597,0.0010253170039504766
1761315801368705500,6.68870556640625,0.00808961782604456,-0.00749120581895113,0.001978728687390685
1761315801378753500,6.69875341796875,0.004325506277382374,-0.008473379537463188,0.00006418218254111707
1761315801388800500,6.708800537109375,0.006777212489396334,-0.010039584711194038,0.0014357101172208786
