time,seconds_elapsed,z,y,x
1761315428692324600,0.06332470703125,-0.9294891357421875,-0.2941741943359375,0.053009033203125
1761315428702372600,0.07337255859375,-0.9178009033203125,-0.2901763916015625,0.06280517578125
1761315428712420400,0.08342041015625,-0.8886871337890625,-0.2922515869140625,0.0662994384765625
1761315428722468600,0.093468505859375,-0.8649139404296875,-0.2952880859375,0.0612640380859375
1761315428732516600,0.1035166015625,-0.84552001953125,-0.31500244140625,0.02789306640625
1761315428742564400,0.113564453125,-0.8129425048828125,-0.3358001708984375,0.0009765625
1761315428752612600,0.123612548828125,-0.7888946533203125,-0.3513946533203125,-0.013702392578125
1761315428762660600,0.13366064453125,-0.77984619140625,-0.364288330078125,-0.0121307373046875
1761315428772708600,0.14370849609375,-0.7921142578125,-0.3787841796875,-0.0007171630859375
1761315428782755600,0.153755615234375,-0.8125457763671875,-0.397674560546875,0.021697998046875
1761315428792803600,0.163803466796875,-0.82861328125,-0.426605224609375,0.049224853515625
1761315428802851300,0.173851318359375,-0.830596923828125,-0.45703125,0.06646728515625
1761315428812899600,0.183899658203125,-0.8355712890625,-0.4858551025390625,0.07708740234375
1761315428822947600,0.193947509765625,-0.8691864013671875,-0.513275146484375,0.0777740478515625
1761315428832995600,0.20399560546875,-0.90423583984375,-0.5246124267578125,0.06182861328125
1761315428843043600,0.214043701171875,-0.941925048828125,-0.5198211669921875,0.0394744873046875
1761315428853091600,0.224091552734375,-0.9936065673828125,-0.5096588134765625,0.019775390625
1761315428863139600,0.2341396484375,-1.04876708984375,-0.4968414306640625,0.0057373046875
1761315428873187600,0.2441875,-1.0741119384765625,-0.480377197265625,-0.0063323974609375
1761315428883235300,0.2542353515625,-1.091796875,-0.4627685546875,-0.0081939697265625
1761315428893283600,0.26428369140625,-1.097381591796875,-0.446136474609375,-0.00341796875
1761315428903331600,0.27433154296875,-1.0723419189453125,-0.417144775390625,-0.0013580322265625
1761315428913379600,0.284379638671875,-1.0361785888671875,-0.3934783935546875,0.0023193359375
1761315428923427600,0.294427490234375,-0.99810791015625,-0.381378173828125,0.01141357421875
1761315428933475600,0.3044755859375,-0.96502685546875,-0.3785247802734375,0.028076171875
1761315428943523600,0.314523681640625,-0.9403839111328125,-0.385284423828125,0.0469818115234375
1761315428953571600,0.324571533203125,-0.918548583984375,-0.396026611328125,0.0565338134765625
1761315428963618600,0.33461865234375,-0.889923095703125,-0.412200927734375,0.0581817626953125
1761315428973666600,0.34466650390625,-0.863616943359375,-0.424957275390625,0.0595855712890625
1761315428983714600,0.354714599609375,-0.844818115234375,-0.4279632568359375,0.0608062744140625
1761315428993762600,0.364762451171875,-0.8374481201171875,-0.4330596923828125,0.0662841796875
1761315429003810600,0.374810546875,-0.837982177734375,-0.449127197265625,0.07537841796875
1761315429013858600,0.384858642578125,-0.838287353515625,-0.4596710205078125,0.0798797607421875
1761315429023906600,0.394906494140625,-0.833892822265625,-0.4567108154296875,0.0810699462890625
1761315429033954600,0.40495458984375,-0.8289642333984375,-0.4543609619140625,0.0876007080078125
1761315429044002600,0.41500244140625,-0.8305816650390625,-0.4663848876953125,0.0959014892578125
1761315429054050600,0.425050537109375,-0.8358001708984375,-0.479461669921875,0.0975799560546875
1761315429064098600,0.4350986328125,-0.8423919677734375,-0.4847412109375,0.0961761474609375
1761315429074146600,0.445146484375,-0.8484649658203125,-0.4866485595703125,0.0910797119140625
1761315429084194600,0.455194580078125,-0.8515777587890625,-0.485870361328125,0.08026123046875
1761315429094242600,0.46524267578125,-0.8584747314453125,-0.490631103515625,0.07122802734375
1761315429104290600,0.47529052734375,-0.859527587890625,-0.4954986572265625,0.0637664794921875
1761315429114338600,0.485338623046875,-0.8649139404296875,-0.490936279296875,0.0595703125
1761315429124386600,0.495386474609375,-0.8740386962890625,-0.486846923828125,0.0596923828125
1761315429134434600,0.5054345703125,-0.883148193359375,-0.485107421875,0.0563507080078125
1761315429144481500,0.5154814453125,-0.8868408203125,-0.4810638427734375,0.04840087890625
1761315429154529500,0.525529541015625,-0.88018798828125,-0.4742584228515625,0.036407470703125
1761315429164577500,0.53557763671875,-0.877471923828125,-0.4652252197265625,0.031829833984375
1761315429174625500,0.54562548828125,-0.8990020751953125,-0.4525604248046875,0.0324554443359375
1761315429184673500,0.555673583984375,-0.9044342041015625,-0.4329681396484375,0.037506103515625
1761315429194721500,0.565721435546875,-0.900421142578125,-0.4148406982421875,0.047088623046875
1761315429204769500,0.57576953125,-0.8951263427734375,-0.4226531982421875,0.0557403564453125
1761315429214817500,0.585817626953125,-0.894744873046875,-0.4229583740234375,0.0706024169921875
1761315429224865500,0.595865478515625,-0.8999176025390625,-0.409820556640625,0.1027374267578125
1761315429234913500,0.60591357421875,-0.9260101318359375,-0.414459228515625,0.1249542236328125
1761315429244961500,0.61596142578125,-0.94708251953125,-0.42437744140625,0.129302978515625
1761315429255009500,0.626009521484375,-0.9298248291015625,-0.4176177978515625,0.1162872314453125
1761315429265057500,0.6360576171875,-0.90399169921875,-0.400604248046875,0.09576416015625
1761315429275105500,0.64610546875,-0.8932952880859375,-0.3897705078125,0.0733489990234375
1761315429285153500,0.656153564453125,-0.8846282958984375,-0.4011077880859375,0.06298828125
1761315429295201500,0.666201416015625,-0.8793792724609375,-0.4278411865234375,0.0673828125
1761315429305249500,0.67624951171875,-0.8793792724609375,-0.4629974365234375,0.084808349609375
1761315429315297500,0.686297607421875,-0.86962890625,-0.5039520263671875,0.1173095703125
1761315429325344500,0.696344482421875,-0.873870849609375,-0.530609130859375,0.152862548828125
1761315429335392500,0.706392578125,-0.8852386474609375,-0.5427093505859375,0.1756591796875
1761315429345440500,0.7164404296875,-0.8777923583984375,-0.551361083984375,0.183074951171875
1761315429355488500,0.726488525390625,-0.8792724609375,-0.5559539794921875,0.176025390625
1761315429365536500,0.73653662109375,-0.899871826171875,-0.5463409423828125,0.159912109375
1761315429375584500,0.74658447265625,-0.9092864990234375,-0.52215576171875,0.1341705322265625
1761315429385632500,0.756632568359375,-0.926025390625,-0.5043182373046875,0.1085968017578125
1761315429395680800,0.7666806640625,-0.9425506591796875,-0.4884490966796875,0.0913848876953125
1761315429405728500,0.776728515625,-0.947998046875,-0.4602813720703125,0.0843963623046875
1761315429415776500,0.786776611328125,-0.9474334716796875,-0.4333648681640625,0.0860595703125
1761315429425824800,0.79682470703125,-0.949676513671875,-0.4065704345703125,0.0900115966796875
1761315429435872500,0.80687255859375,-0.9242706298828125,-0.3836212158203125,0.0931854248046875
1761315429445920500,0.81692041015625,-0.8869781494140625,-0.3711090087890625,0.086639404296875
1761315429455968500,0.826968505859375,-0.8414154052734375,-0.35711669921875,0.088165283203125
1761315429466016500,0.8370166015625,-0.869110107421875,-0.3917083740234375,0.113739013671875
1761315429476064500,0.847064453125,-0.815704345703125,-0.40814208984375,0.10394287109375
1761315429486112500,0.857112548828125,-0.7734527587890625,-0.404327392578125,0.0839080810546875
1761315429496159500,0.867159423828125,-0.7902069091796875,-0.41253662109375,0.083221435546875
1761315429506210300,0.877210205078125,-0.81817626953125,-0.4268341064453125,0.0809173583984375
1761315429516258600,0.887258544921875,-0.858612060546875,-0.43243408203125,0.05560302734375
1761315429526306300,0.897306396484375,-0.8648681640625,-0.4149932861328125,0.0171966552734375
1761315429536354300,0.907354248046875,-0.87432861328125,-0.402557373046875,-0.00726318359375
1761315429546402600,0.917402587890625,-0.8861083984375,-0.3890838623046875,0.0126190185546875
1761315429556450300,0.9274501953125,-0.8713226318359375,-0.4073028564453125,0.0239105224609375
1761315429566498300,0.937498291015625,-0.8519744873046875,-0.4277191162109375,0.030059814453125
1761315429576546300,0.94754638671875,-0.8615264892578125,-0.4144439697265625,0.054473876953125
1761315429586594300,0.95759423828125,-0.8656768798828125,-0.4029541015625,0.0761260986328125
1761315429596642600,0.967642578125,-0.87481689453125,-0.392730712890625,0.07568359375
1761315429606690300,0.977690185546875,-0.8817596435546875,-0.37799072265625,0.04840087890625
1761315429616738300,0.98773828125,-0.8981170654296875,-0.3700714111328125,0.0147705078125
1761315429626786600,0.99778662109375,-0.912750244140625,-0.366546630859375,-0.008087158203125
1761315429636834300,1.007834228515625,-0.9223175048828125,-0.3499755859375,-0.0236663818359375
1761315429646882300,1.01788232421875,-0.9211578369140625,-0.3342132568359375,-0.0324859619140625
1761315429656930600,1.0279306640625,-0.9157257080078125,-0.3369598388671875,-0.0302886962890625
1761315429666977300,1.037977294921875,-0.9123687744140625,-0.3537139892578125,-0.017730712890625
1761315429677025300,1.048025390625,-0.904693603515625,-0.370758056640625,-0.0012359619140625
1761315429687073500,1.058073486328125,-0.8836212158203125,-0.38031005859375,0.0122528076171875
1761315429697121300,1.068121337890625,-0.8644256591796875,-0.3927001953125,0.0246124267578125
1761315429707169300,1.078169189453125,-0.860198974609375,-0.41400146484375,0.04150390625
1761315429717217500,1.088217529296875,-0.849639892578125,-0.4367218017578125,0.053436279296875
1761315429727265300,1.098265380859375,-0.8304901123046875,-0.4476776123046875,0.0569305419921875
1761315429737313300,1.108313232421875,-0.8231964111328125,-0.4510345458984375,0.0562286376953125
1761315429747361500,1.118361572265625,-0.8247528076171875,-0.458953857421875,0.0561981201171875
1761315429757409300,1.1284091796875,-0.849029541015625,-0.476898193359375,0.06268310546875
1761315429767457500,1.13845751953125,-0.8773040771484375,-0.48931884765625,0.057891845703125
1761315429777505300,1.14850537109375,-0.8763427734375,-0.476470947265625,0.047027587890625
1761315429787553300,1.15855322265625,-0.8835906982421875,-0.45855712890625,0.0321197509765625
1761315429797601500,1.1686015625,-0.890289306640625,-0.45709228515625,0.011138916015625
1761315429807649300,1.178649169921875,-0.8669586181640625,-0.4666900634765625,0.0044708251953125
1761315429817697300,1.188697265625,-0.859954833984375,-0.4709320068359375,0.0080108642578125
1761315429827745500,1.19874560546875,-0.87420654296875,-0.47442626953125,0.0089874267578125
1761315429837792500,1.20879248046875,-0.879852294921875,-0.4876861572265625,0.0182342529296875
1761315429847840300,1.21884033203125,-0.8683929443359375,-0.4918670654296875,0.0206756591796875
1761315429857888500,1.228888427734375,-0.86322021484375,-0.4857940673828125,0.0147552490234375
1761315429867936300,1.238936279296875,-0.8621063232421875,-0.483673095703125,0.0195159912109375
1761315429877984300,1.248984375,-0.8576812744140625,-0.4844818115234375,0.028289794921875
1761315429888032500,1.259032470703125,-0.851470947265625,-0.4863128662109375,0.0357208251953125
1761315429898080300,1.269080322265625,-0.843170166015625,-0.486328125,0.0418243408203125
1761315429908128500,1.27912841796875,-0.846221923828125,-0.48651123046875,0.048248291015625
1761315429918176500,1.289176513671875,-0.856903076171875,-0.4922332763671875,0.054107666015625
1761315429928224300,1.299224365234375,-0.865936279296875,-0.494903564453125,0.056915283203125
1761315429938272500,1.3092724609375,-0.880523681640625,-0.487945556640625,0.054931640625
1761315429948320500,1.319320556640625,-0.892425537109375,-0.478057861328125,0.0457916259765625
1761315429958368300,1.3293681640625,-0.9237060546875,-0.4654388427734375,0.027252197265625
1761315429968416500,1.33941650390625,-0.9228515625,-0.4563751220703125,0.015350341796875
1761315429978464300,1.34946435546875,-0.9227447509765625,-0.4526214599609375,0.0089569091796875
1761315429988512300,1.35951220703125,-0.9347381591796875,-0.4533538818359375,0.0048980712890625
1761315429998559500,1.3695595703125,-0.9334716796875,-0.4569549560546875,0.005950927734375
1761315430008607500,1.379607421875,-0.93011474609375,-0.4629669189453125,0.011474609375
1761315430018655200,1.3896552734375,-0.9335174560546875,-0.465911865234375,0.018280029296875
1761315430028703500,1.399703369140625,-0.9396820068359375,-0.465240478515625,0.02032470703125
1761315430038751500,1.40975146484375,-0.947723388671875,-0.464935302734375,0.0136260986328125
1761315430048799200,1.41979931640625,-0.9645538330078125,-0.462066650390625,-0.00091552734375
1761315430058847500,1.429847412109375,-0.9736175537109375,-0.4601898193359375,-0.0067596435546875
1761315430068895200,1.439895263671875,-0.976715087890625,-0.4705810546875,-0.0029144287109375
1761315430078943500,1.449943603515625,-0.9887542724609375,-0.472991943359375,-0.0030975341796875
1761315430088991500,1.459991455078125,-1.00738525390625,-0.4595489501953125,-0.0099334716796875
1761315430099039200,1.470039306640625,-1.00372314453125,-0.4498443603515625,-0.015838623046875
1761315430109087500,1.48008740234375,-0.9932708740234375,-0.443817138671875,-0.0166015625
1761315430119135500,1.490135498046875,-1.0009307861328125,-0.4315185546875,-0.01318359375
1761315430129183200,1.500183349609375,-1.007415771484375,-0.4229888916015625,-0.00347900390625
1761315430139231500,1.5102314453125,-1.0025634765625,-0.4259033203125,0.004302978515625
1761315430149279200,1.520279296875,-0.994873046875,-0.4325408935546875,0.00927734375
1761315430159326200,1.530326171875,-0.979034423828125,-0.4300537109375,0.0072021484375
1761315430169374500,1.54037451171875,-0.9663238525390625,-0.417877197265625,-0.00244140625
1761315430179422500,1.55042236328125,-0.9676971435546875,-0.40826416015625,-0.012237548828125
1761315430189470200,1.56047021484375,-0.9481201171875,-0.40771484375,-0.0176849365234375
1761315430199518500,1.5705185546875,-0.9359130859375,-0.4055328369140625,-0.0239410400390625
1761315430209566500,1.58056640625,-0.9188232421875,-0.4035797119140625,-0.0298614501953125
1761315430219614500,1.590614501953125,-0.8852081298828125,-0.401519775390625,-0.0293426513671875
1761315430229662500,1.600662353515625,-0.86297607421875,-0.401763916015625,-0.022705078125
1761315430239710200,1.610710205078125,-0.84564208984375,-0.3974456787109375,-0.0156402587890625
1761315430249758500,1.620758544921875,-0.8285675048828125,-0.38739013671875,-0.0056915283203125
1761315430259806500,1.630806396484375,-0.816925048828125,-0.379669189453125,0.0054931640625
1761315430269854200,1.640854248046875,-0.809112548828125,-0.370941162109375,0.0146331787109375
1761315430279902500,1.65090234375,-0.7864837646484375,-0.3666229248046875,0.028167724609375
1761315430289950500,1.660950439453125,-0.7663726806640625,-0.3660430908203125,0.0439910888671875
1761315430299998200,1.670998291015625,-0.758026123046875,-0.37030029296875,0.0613861083984375
1761315430310046500,1.68104638671875,-0.751708984375,-0.3861083984375,0.0786590576171875
1761315430320093400,1.691093505859375,-0.7524871826171875,-0.408203125,0.093597412109375
1761315430330141200,1.70114111328125,-0.7703704833984375,-0.4234466552734375,0.1059417724609375
1761315430340189400,1.711189453125,-0.7833251953125,-0.4330902099609375,0.113555908203125
1761315430350237400,1.721237548828125,-0.791259765625,-0.4413909912109375,0.116180419921875
1761315430360285200,1.73128515625,-0.8123931884765625,-0.4411163330078125,0.1090545654296875
1761315430370333400,1.74133349609375,-0.8381805419921875,-0.430328369140625,0.0954437255859375
1761315430380381400,1.75138134765625,-0.8609619140625,-0.41461181640625,0.0775909423828125
1761315430390429400,1.761429443359375,-0.8849334716796875,-0.39764404296875,0.0582275390625
1761315430400477400,1.7714775390625,-0.9170989990234375,-0.3783111572265625,0.0357666015625
1761315430410525400,1.781525390625,-0.9414215087890625,-0.35870361328125,0.016571044921875
1761315430420573400,1.791573486328125,-0.96368408203125,-0.3436431884765625,0.0013275146484375
1761315430430621400,1.801621337890625,-0.9844207763671875,-0.3416595458984375,-0.0067138671875
1761315430440669200,1.811669189453125,-0.98883056640625,-0.3482513427734375,-0.0121917724609375
1761315430450717400,1.821717529296875,-0.9771270751953125,-0.3455810546875,-0.021514892578125
1761315430460765400,1.831765380859375,-0.9484405517578125,-0.3394012451171875,-0.0277252197265625
1761315430470812400,1.8418125,-0.9223785400390625,-0.335113525390625,-0.02618408203125
1761315430480860400,1.8518603515625,-0.9064788818359375,-0.3423309326171875,-0.0152587890625
1761315430490908400,1.861908447265625,-0.89141845703125,-0.3563079833984375,0.004974365234375
1761315430500956400,1.871956298828125,-0.869598388671875,-0.3714752197265625,0.02471923828125
1761315430511000800,1.882000732421875,-0.856475830078125,-0.3897705078125,0.045867919921875
1761315430521048800,1.892048828125,-0.8589019775390625,-0.4073028564453125,0.063568115234375
1761315430531096800,1.902096923828125,-0.8619384765625,-0.414520263671875,0.0744476318359375
1761315430541144800,1.912144775390625,-0.8556671142578125,-0.4124603271484375,0.0798187255859375
1761315430551193000,1.922193115234375,-0.846923828125,-0.409088134765625,0.0832672119140625
1761315430561240800,1.93224072265625,-0.84527587890625,-0.41400146484375,0.08941650390625
1761315430571288800,1.942288818359375,-0.843902587890625,-0.4238128662109375,0.09686279296875
1761315430581337000,1.952337158203125,-0.8437347412109375,-0.4315185546875,0.10369873046875
1761315430591384800,1.962384765625,-0.845855712890625,-0.43585205078125,0.1094970703125
1761315430601432800,1.972432861328125,-0.8458251953125,-0.442626953125,0.1101531982421875
1761315430611480800,1.982480712890625,-0.84747314453125,-0.44805908203125,0.1042022705078125
1761315430621527800,1.99252783203125,-0.8499908447265625,-0.450286865234375,0.0950927734375
1761315430631575800,2.002575927734375,-0.854827880859375,-0.4539642333984375,0.0873565673828125
1761315430641624000,2.0126240234375,-0.8670654296875,-0.46356201171875,0.0805206298828125
1761315430651671800,2.022671875,-0.8821258544921875,-0.4643096923828125,0.0688629150390625
1761315430661719800,2.0327197265625,-0.8853759765625,-0.4590911865234375,0.0608062744140625
1761315430671768000,2.04276806640625,-0.903717041015625,-0.4606781005859375,0.0565643310546875
1761315430681815800,2.05281591796875,-0.919708251953125,-0.46002197265625,0.0483856201171875
1761315430691863800,2.06286376953125,-0.918426513671875,-0.4550323486328125,0.043487548828125
1761315430701911800,2.072911865234375,-0.9195404052734375,-0.4515380859375,0.0408477783203125
1761315430711959800,2.082959716796875,-0.9185028076171875,-0.4560089111328125,0.0401611328125
1761315430722008000,2.093008056640625,-0.899017333984375,-0.459625244140625,0.038726806640625
1761315430732055800,2.103055908203125,-0.8779754638671875,-0.4592742919921875,0.0405731201171875
1761315430742103800,2.113103759765625,-0.866912841796875,-0.4646453857421875,0.046478271484375
1761315430752152000,2.123152099609375,-0.86474609375,-0.473602294921875,0.0549468994140625
1761315430762199800,2.13319970703125,-0.8594207763671875,-0.4754486083984375,0.058135986328125
1761315430772247800,2.143247802734375,-0.8539886474609375,-0.4687957763671875,0.058837890625
1761315430782295000,2.153294921875,-0.8649139404296875,-0.46148681640625,0.0599365234375
1761315430792342800,2.1633427734375,-0.8739776611328125,-0.4652557373046875,0.06494140625
1761315430802390800,2.173390869140625,-0.8759002685546875,-0.4654388427734375,0.0695037841796875
1761315430812439000,2.18343896484375,-0.8833465576171875,-0.4600982666015625,0.0689239501953125
1761315430822486800,2.19348681640625,-0.8872833251953125,-0.45989990234375,0.064666748046875
1761315430832534800,2.20353466796875,-0.8909454345703125,-0.45758056640625,0.0577239990234375
1761315430842583000,2.2135830078125,-0.895751953125,-0.45172119140625,0.0513153076171875
1761315430852630800,2.223630859375,-0.8988800048828125,-0.4495697021484375,0.050811767578125
1761315430862679000,2.233678955078125,-0.9068756103515625,-0.4547271728515625,0.05462646484375
1761315430872727000,2.24372705078125,-0.9194793701171875,-0.4587860107421875,0.0567474365234375
1761315430882774800,2.25377490234375,-0.9305419921875,-0.4605560302734375,0.058135986328125
1761315430892823000,2.263822998046875,-0.93475341796875,-0.46539306640625,0.058258056640625
1761315430902870800,2.273870849609375,-0.931304931640625,-0.4698638916015625,0.055938720703125
1761315430912918800,2.283918701171875,-0.93206787109375,-0.4700775146484375,0.0496673583984375
1761315430922966000,2.293966064453125,-0.936187744140625,-0.472930908203125,0.0449676513671875
1761315430933014000,2.304013916015625,-0.940521240234375,-0.477264404296875,0.0438232421875
1761315430943061800,2.314061767578125,-0.94342041015625,-0.47418212890625,0.0361328125
1761315430953110000,2.324110107421875,-0.9430999755859375,-0.4610748291015625,0.021331787109375
1761315430963158000,2.334157958984375,-0.9376983642578125,-0.443817138671875,0.0079345703125
1761315430973205800,2.344205810546875,-0.93536376953125,-0.4258575439453125,-0.0018768310546875
1761315430983254000,2.35425390625,-0.9321441650390625,-0.413238525390625,-0.0068206787109375
1761315430993301800,2.3643017578125,-0.919891357421875,-0.4045867919921875,-0.0080108642578125
1761315431003349800,2.374349853515625,-0.901031494140625,-0.3966827392578125,-0.0088958740234375
1761315431013398000,2.38439794921875,-0.8851318359375,-0.3904876708984375,-0.009368896484375
1761315431023445800,2.39444580078125,-0.87384033203125,-0.3875274658203125,-0.0079498291015625
1761315431033494000,2.404493896484375,-0.8667449951171875,-0.3913421630859375,-0.00140380859375
1761315431043542000,2.4145419921875,-0.85455322265625,-0.3942413330078125,0.0034027099609375
1761315431053589800,2.42458984375,-0.8439788818359375,-0.3926849365234375,0.0062103271484375
1761315431063638000,2.434637939453125,-0.835052490234375,-0.3959808349609375,0.008636474609375
1761315431073685000,2.44468505859375,-0.832489013671875,-0.4038543701171875,0.0151519775390625
1761315431083732700,2.454732666015625,-0.835479736328125,-0.4081268310546875,0.0150299072265625
1761315431093781000,2.464781005859375,-0.833648681640625,-0.4062042236328125,0.0104827880859375
1761315431103829000,2.4748291015625,-0.8315582275390625,-0.4033966064453125,0.006134033203125
1761315431113876700,2.484876708984375,-0.83837890625,-0.4029083251953125,-0.0028228759765625
1761315431123925000,2.494925048828125,-0.8415679931640625,-0.3972930908203125,-0.017242431640625
1761315431133973000,2.504972900390625,-0.8478546142578125,-0.3888702392578125,-0.032806396484375
1761315431144020700,2.515020751953125,-0.8555755615234375,-0.3823089599609375,-0.0478668212890625
1761315431154069000,2.525069091796875,-0.8609619140625,-0.3784637451171875,-0.061065673828125
1761315431164116700,2.53511669921875,-0.8719482421875,-0.372283935546875,-0.0710296630859375
1761315431174164700,2.545164794921875,-0.8849029541015625,-0.3684234619140625,-0.0760498046875
1761315431184213000,2.555212890625,-0.89898681640625,-0.367950439453125,-0.0714874267578125
1761315431194260700,2.5652607421875,-0.9032135009765625,-0.3710174560546875,-0.0653228759765625
1761315431204309000,2.57530908203125,-0.8912200927734375,-0.3729248046875,-0.0555267333984375
1761315431214356000,2.58535595703125,-0.8910369873046875,-0.371734619140625,-0.043548583984375
1761315431224404000,2.595404052734375,-0.905914306640625,-0.3725738525390625,-0.03271484375
1761315431234451700,2.60545166015625,-0.9106903076171875,-0.3729400634765625,-0.0245208740234375
1761315431244500000,2.6155,-0.9169769287109375,-0.3648681640625,-0.0237274169921875
1761315431254547700,2.625547607421875,-0.91912841796875,-0.3538055419921875,-0.0233917236328125
1761315431264596000,2.635595947265625,-0.91558837890625,-0.3492889404296875,-0.02069091796875
1761315431274644000,2.64564404296875,-0.909027099609375,-0.3517303466796875,-0.0155181884765625
1761315431284691700,2.655691650390625,-0.90185546875,-0.35748291015625,-0.0065765380859375
1761315431294740000,2.665739990234375,-0.8877716064453125,-0.3634185791015625,0.00701904296875
1761315431304788000,2.6757880859375,-0.87457275390625,-0.3693084716796875,0.02032470703125
1761315431314835700,2.685835693359375,-0.8634796142578125,-0.3768768310546875,0.0319366455078125
1761315431324884000,2.695884033203125,-0.854461669921875,-0.3835601806640625,0.0410308837890625
1761315431334932000,2.705931884765625,-0.8506927490234375,-0.3907012939453125,0.0457305908203125
1761315431344978700,2.715978759765625,-0.849029541015625,-0.4036102294921875,0.05120849609375
1761315431355027000,2.72602685546875,-0.837677001953125,-0.41943359375,0.0579986572265625
1761315431365075000,2.736074951171875,-0.8389434814453125,-0.435211181640625,0.062286376953125
1761315431375122700,2.746122802734375,-0.8487396240234375,-0.4534149169921875,0.0631256103515625
1761315431385171000,2.7561708984375,-0.85955810546875,-0.4658355712890625,0.0587158203125
1761315431395219000,2.766218994140625,-0.869049072265625,-0.468353271484375,0.0482025146484375
1761315431405267000,2.776266845703125,-0.88006591796875,-0.461181640625,0.0343170166015625
1761315431415315000,2.78631494140625,-0.8903350830078125,-0.4521331787109375,0.023345947265625
1761315431425363000,2.796363037109375,-0.8981475830078125,-0.4433135986328125,0.022125244140625
1761315431435411000,2.806410888671875,-0.9085845947265625,-0.4359130859375,0.027557373046875
1761315431445459000,2.816458984375,-0.919464111328125,-0.433502197265625,0.0378875732421875
1761315431455506700,2.826506591796875,-0.9286346435546875,-0.4311065673828125,0.046722412109375
1761315431465555000,2.836554931640625,-0.937103271484375,-0.421722412109375,0.04888916015625
1761315431475602000,2.846601806640625,-0.9456024169921875,-0.409088134765625,0.0449371337890625
1761315431485650000,2.85664990234375,-0.9486236572265625,-0.400665283203125,0.039031982421875
1761315431495698000,2.866697998046875,-0.9559478759765625,-0.3941650390625,0.0327911376953125
1761315431505745200,2.8767451171875,-0.96893310546875,-0.387115478515625,0.0242767333984375
1761315431515793400,2.88679345703125,-0.97393798828125,-0.38134765625,0.0181732177734375
1761315431525841200,2.896841064453125,-0.976287841796875,-0.3766326904296875,0.013031005859375
1761315431535889200,2.90688916015625,-0.9897308349609375,-0.3724822998046875,0.010101318359375
1761315431545937400,2.9169375,-0.9971923828125,-0.3707275390625,0.0078582763671875
1761315431555985200,2.926985107421875,-0.998046875,-0.3739166259765625,0.0070343017578125
1761315431566033400,2.937033447265625,-1.001251220703125,-0.3739013671875,0.0033721923828125
1761315431576081200,2.9470810546875,-0.9898681640625,-0.37652587890625,-0.0001373291015625
1761315431586129200,2.957129150390625,-0.97540283203125,-0.381866455078125,-0.00421142578125
1761315431596177400,2.967177490234375,-0.96533203125,-0.389251708984375,-0.0087127685546875
1761315431606225200,2.97722509765625,-0.9579925537109375,-0.4012298583984375,-0.0099334716796875
1761315431616272100,2.987272216796875,-0.9488067626953125,-0.4132232666015625,-0.007659912109375
1761315431626320400,2.9973203125,-0.9426116943359375,-0.4290771484375,-0.0046234130859375
1761315431636368400,3.007368408203125,-0.923370361328125,-0.4489593505859375,0.006683349609375
1761315431646416100,3.017416015625,-0.90325927734375,-0.473541259765625,0.022705078125
1761315431656464400,3.02746435546875,-0.913726806640625,-0.48822021484375,0.0393524169921875
1761315431666512100,3.03751220703125,-0.9305267333984375,-0.5004425048828125,0.0540924072265625
1761315431676560100,3.04756005859375,-0.937469482421875,-0.5083770751953125,0.0614166259765625
1761315431686608400,3.0576083984375,-0.9527740478515625,-0.4968719482421875,0.060943603515625
1761315431696656100,3.06765625,-0.97943115234375,-0.4749908447265625,0.054168701171875
1761315431706704400,3.077704345703125,-1.0020904541015625,-0.45068359375,0.0420989990234375
1761315431716752400,3.08775244140625,-1.014312744140625,-0.42852783203125,0.0283355712890625
1761315431726800100,3.097800048828125,-1.0182952880859375,-0.406585693359375,0.0216064453125
1761315431736847000,3.10784716796875,-1.0118408203125,-0.379730224609375,0.017852783203125
1761315431746895400,3.117895263671875,-0.9928131103515625,-0.35369873046875,0.0166015625
1761315431756943000,3.127943115234375,-0.9679107666015625,-0.334625244140625,0.0142364501953125
1761315431766991400,3.137991455078125,-0.9369354248046875,-0.3184356689453125,0.0158843994140625
1761315431777039400,3.148039306640625,-0.9069061279296875,-0.308502197265625,0.021209716796875
1761315431787087000,3.158087158203125,-0.87786865234375,-0.3088836669921875,0.03076171875
1761315431797135400,3.16813525390625,-0.8531036376953125,-0.316436767578125,0.04248046875
1761315431807183400,3.178183349609375,-0.83013916015625,-0.325408935546875,0.0521392822265625
1761315431817231000,3.188231201171875,-0.812652587890625,-0.3300018310546875,0.057159423828125
1761315431827279400,3.198279296875,-0.791900634765625,-0.3337249755859375,0.0613861083984375
1761315431837327400,3.208327392578125,-0.7779083251953125,-0.344024658203125,0.0693511962890625
1761315431847375000,3.218375,-0.776153564453125,-0.3582763671875,0.076629638671875
1761315431857422300,3.22842236328125,-0.7764892578125,-0.3668365478515625,0.08502197265625
1761315431867470300,3.23847021484375,-0.7744903564453125,-0.372589111328125,0.097869873046875
1761315431877518000,3.24851806640625,-0.7819976806640625,-0.383209228515625,0.1128082275390625
1761315431887566300,3.25856640625,-0.7920074462890625,-0.3932647705078125,0.12176513671875
1761315431897614300,3.2686142578125,-0.7957000732421875,-0.39495849609375,0.124053955078125
1761315431907662000,3.278662109375,-0.8025054931640625,-0.391876220703125,0.1177978515625
1761315431917710300,3.28871044921875,-0.80865478515625,-0.391876220703125,0.1045684814453125
1761315431927758300,3.29875830078125,-0.8294219970703125,-0.3899383544921875,0.083648681640625
1761315431937806300,3.308806396484375,-0.86236572265625,-0.3852081298828125,0.0587615966796875
1761315431947854300,3.318854248046875,-0.897064208984375,-0.370574951171875,0.0305633544921875
1761315431957902000,3.328902099609375,-0.9196929931640625,-0.345611572265625,0.004852294921875
1761315431967950300,3.338950439453125,-0.9395904541015625,-0.3189544677734375,-0.017913818359375
1761315431977997300,3.348997314453125,-0.96966552734375,-0.2967681884765625,-0.04095458984375
1761315431988045300,3.35904541015625,-0.977935791015625,-0.2870330810546875,-0.055145263671875
1761315431998093300,3.36909326171875,-0.9593505859375,-0.287017822265625,-0.06195068359375
1761315432008141300,3.379141357421875,-0.9472808837890625,-0.2913055419921875,-0.0607757568359375
1761315432018189300,3.389189208984375,-0.9408416748046875,-0.298370361328125,-0.0513763427734375
1761315432028237300,3.3992373046875,-0.9227294921875,-0.305755615234375,-0.04083251953125
1761315432038285300,3.409285400390625,-0.89849853515625,-0.31744384765625,-0.0305938720703125
1761315432048333000,3.4193330078125,-0.8765869140625,-0.3359222412109375,-0.0162200927734375
1761315432058381300,3.42938134765625,-0.856475830078125,-0.35479736328125,-0.005828857421875
1761315432068429300,3.43942919921875,-0.8371429443359375,-0.377044677734375,0.0026092529296875
1761315432078477000,3.44947705078125,-0.8248443603515625,-0.3973388671875,0.0125732421875
1761315432088525300,3.459525390625,-0.81756591796875,-0.4144439697265625,0.020294189453125
1761315432098572300,3.469572265625,-0.8112335205078125,-0.4263763427734375,0.0232391357421875
1761315432108620300,3.479620361328125,-0.802886962890625,-0.4349365234375,0.0236968994140625
1761315432118668300,3.489668212890625,-0.7965240478515625,-0.4453277587890625,0.0290679931640625
1761315432128716300,3.49971630859375,-0.79595947265625,-0.4578704833984375,0.034393310546875
1761315432138764300,3.509764404296875,-0.7997894287109375,-0.4715118408203125,0.038482666015625
1761315432148812300,3.519812255859375,-0.8048248291015625,-0.478912353515625,0.0375518798828125
1761315432158860300,3.5298603515625,-0.813507080078125,-0.477081298828125,0.029296875
1761315432168908300,3.539908203125,-0.823272705078125,-0.4723052978515625,0.022369384765625
1761315432178956300,3.549956298828125,-0.830657958984375,-0.4650115966796875,0.014495849609375
1761315432189004300,3.56000439453125,-0.845855712890625,-0.4514007568359375,0.0098419189453125
1761315432199052300,3.57005224609375,-0.87939453125,-0.4366912841796875,0.0092926025390625
1761315432209099300,3.580099365234375,-0.9298095703125,-0.4216461181640625,0.0168914794921875
1761315432219147300,3.590147216796875,-1.0023345947265625,-0.3988800048828125,0.019866943359375
1761315432229195300,3.6001953125,-1.0736083984375,-0.3635406494140625,0.0109710693359375
1761315432239243300,3.6102431640625,-1.1335601806640625,-0.32452392578125,0.0040435791015625
1761315432249291300,3.620291259765625,-1.1789093017578125,-0.2888946533203125,-0.003387451171875
1761315432259339300,3.63033935546875,-1.205322265625,-0.2586212158203125,-0.0087738037109375
1761315432269387300,3.64038720703125,-1.2174224853515625,-0.2396240234375,-0.018402099609375
1761315432279435300,3.650435302734375,-1.21844482421875,-0.2309722900390625,-0.0280609130859375
1761315432289483300,3.660483154296875,-1.207611083984375,-0.2388763427734375,-0.0296478271484375
1761315432299531300,3.67053125,-1.1788177490234375,-0.2648162841796875,-0.019927978515625
1761315432309579300,3.680579345703125,-1.160430908203125,-0.2891998291015625,-0.0101470947265625
1761315432319626200,3.690626220703125,-1.13812255859375,-0.2988128662109375,-0.009613037109375
1761315432329674200,3.70067431640625,-1.121826171875,-0.299957275390625,-0.0207977294921875
1761315432339722200,3.71072216796875,-1.1183013916015625,-0.2991790771484375,-0.041046142578125
1761315432349770200,3.720770263671875,-1.10760498046875,-0.2923736572265625,-0.062896728515625
1761315432359818200,3.730818359375,-1.0882568359375,-0.2767791748046875,-0.078643798828125
1761315432369866500,3.740866455078125,-1.06365966796875,-0.2588958740234375,-0.086761474609375
1761315432379914200,3.750914306640625,-1.0407257080078125,-0.243255615234375,-0.0875701904296875
1761315432389962200,3.760962158203125,-1.020172119140625,-0.232452392578125,-0.0830230712890625
1761315432400010200,3.77101025390625,-1.0013427734375,-0.219970703125,-0.077667236328125
1761315432410058200,3.781058349609375,-0.9794921875,-0.202789306640625,-0.0750274658203125
1761315432420106200,3.791106201171875,-0.9481964111328125,-0.18939208984375,-0.0740966796875
1761315432430153500,3.801153564453125,-0.923553466796875,-0.1836700439453125,-0.0741119384765625
1761315432440201200,3.811201171875,-0.8937530517578125,-0.1851043701171875,-0.0730743408203125
1761315432450249200,3.821249267578125,-0.859649658203125,-0.1833343505859375,-0.0711669921875
1761315432460297500,3.83129736328125,-0.8321685791015625,-0.1800384521484375,-0.0658721923828125
1761315432470345200,3.84134521484375,-0.8017425537109375,-0.1807708740234375,-0.0598602294921875
1761315432480393200,3.851393310546875,-0.7728271484375,-0.1872100830078125,-0.049285888671875
1761315432490441200,3.861441162109375,-0.755218505859375,-0.2046051025390625,-0.02984619140625
1761315432500489200,3.8714892578125,-0.7459869384765625,-0.230743408203125,-0.00823974609375
1761315432510537700,3.881537841796875,-0.75262451171875,-0.2566986083984375,0.0136566162109375
1761315432520585500,3.89158544921875,-0.7714080810546875,-0.28509521484375,0.02838134765625
1761315432530632400,3.901632568359375,-0.7806243896484375,-0.3149261474609375,0.0359344482421875
1761315432540680700,3.9116806640625,-0.78704833984375,-0.333160400390625,0.0222015380859375
1761315432550728400,3.921728515625,-0.8039093017578125,-0.334625244140625,-0.0035247802734375
1761315432560776400,3.9317763671875,-0.8391876220703125,-0.3338775634765625,-0.0299530029296875
1761315432570824700,3.94182470703125,-0.8757781982421875,-0.3331298828125,-0.0557708740234375
1761315432580872400,3.95187255859375,-0.91064453125,-0.32659912109375,-0.0738372802734375
1761315432590920400,3.96192041015625,-0.9496002197265625,-0.3143157958984375,-0.0914459228515625
1761315432600968700,3.97196875,-0.9726104736328125,-0.302490234375,-0.1002349853515625
1761315432611016400,3.982016357421875,-0.990264892578125,-0.3018341064453125,-0.096710205078125
1761315432621064700,3.992064697265625,-1.0011138916015625,-0.298309326171875,-0.0900115966796875
1761315432631112400,4.002112548828125,-0.9977569580078125,-0.293365478515625,-0.082489013671875
1761315432641159400,4.012159423828125,-0.9712066650390625,-0.28485107421875,-0.0699462890625
1761315432651207400,4.02220751953125,-0.9347381591796875,-0.2741241455078125,-0.0496826171875
1761315432661255700,4.032255615234375,-0.906768798828125,-0.2817840576171875,-0.0183563232421875
1761315432671303400,4.042303466796875,-0.886444091796875,-0.30596923828125,0.01776123046875
1761315432681351700,4.0523515625,-0.8688812255859375,-0.3299713134765625,0.051116943359375
1761315432691399700,4.062399658203125,-0.8502197265625,-0.351959228515625,0.0747222900390625
1761315432701447400,4.072447509765625,-0.8308563232421875,-0.37744140625,0.0938873291015625
1761315432711495700,4.08249560546875,-0.8109283447265625,-0.397552490234375,0.11083984375
1761315432721543400,4.09254345703125,-0.8033905029296875,-0.4167327880859375,0.1301422119140625
1761315432731591400,4.10259130859375,-0.8076324462890625,-0.4377288818359375,0.1490631103515625
1761315432741638700,4.112638671875,-0.8021697998046875,-0.4521484375,0.157073974609375
1761315432751686700,4.122686767578125,-0.7996978759765625,-0.45391845703125,0.160980224609375
1761315432761734400,4.132734375,-0.813232421875,-0.449005126953125,0.1637725830078125
1761315432771782700,4.14278271484375,-0.829742431640625,-0.444091796875,0.1636505126953125
1761315432781830700,4.15283056640625,-0.8500823974609375,-0.4366912841796875,0.15863037109375
1761315432791878400,4.16287841796875,-0.878692626953125,-0.4221649169921875,0.1495361328125
1761315432801926700,4.1729267578125,-0.9185333251953125,-0.4046630859375,0.1394195556640625
1761315432811974400,4.182974365234375,-0.9545440673828125,-0.3874359130859375,0.128021240234375
1761315432822022400,4.1930224609375,-0.988311767578125,-0.36956787109375,0.1242828369140625
1761315432832070700,4.203070556640625,-1.026275634765625,-0.3495635986328125,0.1279144287109375
1761315432842117600,4.21311767578125,-1.0602874755859375,-0.331787109375,0.1333465576171875
1761315432852165400,4.223165283203125,-1.0799560546875,-0.31378173828125,0.1413116455078125
1761315432862213600,4.233213623046875,-1.0894775390625,-0.2951507568359375,0.1470489501953125
1761315432872261600,4.24326171875,-1.0948028564453125,-0.2807769775390625,0.147369384765625
1761315432882309400,4.253309326171875,-1.08978271484375,-0.27850341796875,0.147186279296875
1761315432892357600,4.263357666015625,-1.0771484375,-0.2822113037109375,0.1435699462890625
1761315432902405400,4.2734052734375,-1.0692901611328125,-0.2855377197265625,0.1346435546875
1761315432912453600,4.28345361328125,-1.05535888671875,-0.2868499755859375,0.11883544921875
1761315432922501600,4.293501708984375,-1.0357818603515625,-0.2916107177734375,0.0967864990234375
1761315432932549400,4.30354931640625,-1.016204833984375,-0.30108642578125,0.07647705078125
1761315432942596400,4.313596435546875,-1.0041961669921875,-0.3206329345703125,0.062713623046875
1761315432952644600,4.32364453125,-0.9830474853515625,-0.3461151123046875,0.05303955078125
1761315432962692600,4.333692626953125,-0.971832275390625,-0.3737640380859375,0.0434417724609375
1761315432972740600,4.34374072265625,-0.983612060546875,-0.3976898193359375,0.03338623046875
1761315432982788600,4.35378857421875,-1.0015411376953125,-0.404022216796875,0.013427734375
1761315432992836400,4.36383642578125,-1.0003662109375,-0.40191650390625,-0.0137786865234375
1761315433002884600,4.373884521484375,-0.996337890625,-0.40234375,-0.0336151123046875
1761315433012932600,4.3839326171875,-1.00927734375,-0.3960418701171875,-0.0461273193359375
1761315433022980400,4.39398046875,-1.01959228515625,-0.382354736328125,-0.0550537109375
1761315433033027600,4.404027587890625,-1.017242431640625,-0.36395263671875,-0.061553955078125
1761315433043075600,4.41407568359375,-1.0028076171875,-0.347686767578125,-0.0625
1761315433053123600,4.42412353515625,-0.9841156005859375,-0.3382110595703125,-0.056365966796875
1761315433063171600,4.434171630859375,-0.9670257568359375,-0.3319091796875,-0.048828125
1761315433073219600,4.444219482421875,-0.95672607421875,-0.328887939453125,-0.042449951171875
1761315433083267300,4.454267333984375,-0.9418487548828125,-0.3306732177734375,-0.033966064453125
1761315433093315600,4.464315673828125,-0.9257049560546875,-0.33740234375,-0.0234832763671875
1761315433103363600,4.474363525390625,-0.9177398681640625,-0.3441162109375,-0.015869140625
1761315433113411600,4.48441162109375,-0.9084930419921875,-0.3451995849609375,-0.013336181640625
1761315433123458600,4.49445849609375,-0.8963775634765625,-0.33966064453125,-0.0123138427734375
1761315433133506600,4.504506591796875,-0.89239501953125,-0.3327789306640625,-0.0109405517578125
1761315433143554600,4.514554443359375,-0.8845977783203125,-0.330413818359375,-0.0057220458984375
1761315433153602600,4.5246025390625,-0.878936767578125,-0.3279876708984375,0.00140380859375
1761315433163650600,4.534650634765625,-0.8765716552734375,-0.3218536376953125,0.0059051513671875
1761315433173698600,4.544698486328125,-0.867767333984375,-0.31402587890625,0.00909423828125
1761315433183746600,4.55474658203125,-0.856964111328125,-0.3087615966796875,0.0132293701171875
1761315433193794600,4.564794677734375,-0.8516998291015625,-0.3070831298828125,0.02032470703125
1761315433203842600,4.574842529296875,-0.84271240234375,-0.309234619140625,0.0334930419921875
1761315433213890600,4.584890625,-0.83758544921875,-0.3138885498046875,0.0450439453125
1761315433223937500,4.5949375,-0.8227081298828125,-0.31890869140625,0.0590362548828125
1761315433233985500,4.604985595703125,-0.8054046630859375,-0.3267059326171875,0.0741729736328125
1761315433244033500,4.615033447265625,-0.801849365234375,-0.3394927978515625,0.087066650390625
1761315433254081500,4.62508154296875,-0.80279541015625,-0.356689453125,0.1025390625
1761315433264129500,4.635129638671875,-0.8090667724609375,-0.3719635009765625,0.110809326171875
1761315433274177500,4.645177490234375,-0.8159942626953125,-0.37921142578125,0.110443115234375
1761315433284225500,4.6552255859375,-0.8217315673828125,-0.3777008056640625,0.099212646484375
1761315433294273500,4.6652734375,-0.8271942138671875,-0.365966796875,0.0799713134765625
1761315433304321500,4.675321533203125,-0.829132080078125,-0.362274169921875,0.063232421875
1761315433314368500,4.685368408203125,-0.8357086181640625,-0.36572265625,0.052398681640625
1761315433324416500,4.69541650390625,-0.8466339111328125,-0.368560791015625,0.045135498046875
1761315433334464500,4.705464599609375,-0.858428955078125,-0.37152099609375,0.0404205322265625
1761315433344512500,4.715512451171875,-0.874053955078125,-0.3708038330078125,0.0355682373046875
1761315433354560500,4.725560546875,-0.8855438232421875,-0.3666534423828125,0.02911376953125
1761315433364608500,4.7356083984375,-0.894866943359375,-0.3604888916015625,0.0245513916015625
1761315433374656500,4.745656494140625,-0.8977813720703125,-0.3537139892578125,0.0177764892578125
1761315433384704500,4.75570458984375,-0.89300537109375,-0.348876953125,0.0116119384765625
1761315433394752500,4.76575244140625,-0.88629150390625,-0.352142333984375,0.010162353515625
1761315433404799500,4.775799560546875,-0.878997802734375,-0.36065673828125,0.01251220703125
1761315433414847500,4.785847412109375,-0.8717803955078125,-0.3703155517578125,0.0166015625
1761315433424895500,4.7958955078125,-0.8647613525390625,-0.3761138916015625,0.01776123046875
1761315433434943500,4.805943603515625,-0.854095458984375,-0.3805694580078125,0.0169219970703125
1761315433444991500,4.815991455078125,-0.839111328125,-0.3905792236328125,0.0224151611328125
1761315433455039500,4.82603955078125,-0.832427978515625,-0.3969573974609375,0.0268402099609375
1761315433465087700,4.836087646484375,-0.82611083984375,-0.3954925537109375,0.028961181640625
1761315433475135500,4.846135498046875,-0.817108154296875,-0.3958282470703125,0.0302276611328125
1761315433485182500,4.856182373046875,-0.8127288818359375,-0.4015045166015625,0.036346435546875
1761315433495230500,4.86623046875,-0.8176116943359375,-0.41455078125,0.0484466552734375
1761315433505278500,4.876278564453125,-0.82745361328125,-0.4269256591796875,0.0578155517578125
1761315433515329800,4.886329833984375,-0.8339996337890625,-0.4287261962890625,0.0631866455078125
1761315433525378000,4.8963779296875,-0.850311279296875,-0.42498779296875,0.0635833740234375
1761315433535425800,4.90642578125,-0.876861572265625,-0.42462158203125,0.0607757568359375
1761315433545473800,4.916473876953125,-0.89361572265625,-0.4217376708984375,0.0573272705078125
1761315433555522000,4.92652197265625,-0.9200286865234375,-0.410308837890625,0.051513671875
1761315433565569800,4.93656982421875,-0.9517822265625,-0.3984832763671875,0.0451812744140625
1761315433575616800,4.94661669921875,-0.96844482421875,-0.3885955810546875,0.0406646728515625
1761315433585662000,4.956661865234375,-0.9847412109375,-0.38397216796875,0.0392608642578125
1761315433595709700,4.966709716796875,-1.006500244140625,-0.3829803466796875,0.0412750244140625
1761315433605758000,4.976758056640625,-1.0241546630859375,-0.380828857421875,0.0415191650390625
1761315433615806000,4.986805908203125,-1.0371551513671875,-0.378082275390625,0.03948974609375
1761315433625853700,4.996853759765625,-1.0541534423828125,-0.374359130859375,0.03668212890625
1761315433635902000,5.00690185546875,-1.0652923583984375,-0.3729248046875,0.030303955078125
1761315433645950000,5.016949951171875,-1.069061279296875,-0.3716888427734375,0.0238037109375
1761315433655998000,5.026998046875,-1.068328857421875,-0.3720703125,0.017578125
1761315433666045000,5.037044921875,-1.0612640380859375,-0.369964599609375,0.009918212890625
1761315433676093000,5.047093017578125,-1.0539093017578125,-0.3662261962890625,-0.0000152587890625
1761315433686140700,5.057140625,-1.0494232177734375,-0.3658294677734375,-0.014373779296875
1761315433696189000,5.06718896484375,-1.037353515625,-0.3627166748046875,-0.0231475830078125
1761315433706237000,5.07723681640625,-1.0217132568359375,-0.3531341552734375,-0.0341339111328125
1761315433716285000,5.087284912109375,-1.0015411376953125,-0.355987548828125,-0.037261962890625
1761315433726333000,5.0973330078125,-0.97747802734375,-0.3711090087890625,-0.028533935546875
1761315433736381000,5.107380859375,-0.9688873291015625,-0.3809967041015625,-0.01708984375
1761315433746427600,5.117427734375,-0.968780517578125,-0.382110595703125,-0.0026397705078125
1761315433756476000,5.127475830078125,-0.96697998046875,-0.3869476318359375,0.011474609375
1761315433766524000,5.13752392578125,-0.9568939208984375,-0.3942108154296875,0.021728515625
1761315433776572000,5.147572021484375,-0.9549713134765625,-0.3944244384765625,0.0269317626953125
1761315433786620000,5.157619873046875,-0.962554931640625,-0.38214111328125,0.025634765625
1761315433796668000,5.16766796875,-0.9674530029296875,-0.3598480224609375,0.0228118896484375
1761315433806716000,5.1777158203125,-0.96356201171875,-0.334716796875,0.0208740234375
1761315433816764000,5.187763916015625,-0.948150634765625,-0.3110809326171875,0.0237274169921875
1761315433826812000,5.19781201171875,-0.9308929443359375,-0.2923583984375,0.031097412109375
1761315433836859000,5.20785888671875,-0.918853759765625,-0.2796630859375,0.0406494140625
1761315433846907000,5.217906982421875,-0.90667724609375,-0.275726318359375,0.0517425537109375
1761315433856955000,5.227954833984375,-0.8977203369140625,-0.2774505615234375,0.0640411376953125
1761315433867003000,5.2380029296875,-0.8982086181640625,-0.279205322265625,0.0751495361328125
1761315433877051000,5.24805078125,-0.90936279296875,-0.28118896484375,0.080322265625
1761315433887099000,5.258098876953125,-0.9204864501953125,-0.2810821533203125,0.080352783203125
1761315433897147000,5.26814697265625,-0.929229736328125,-0.2712554931640625,0.0683135986328125
1761315433907195000,5.27819482421875,-0.932159423828125,-0.252685546875,0.046539306640625
1761315433917241900,5.288241943359375,-0.9325714111328125,-0.230987548828125,0.0218505859375
1761315433927289900,5.298289794921875,-0.9372711181640625,-0.218231201171875,0.0035858154296875
1761315433937337900,5.308337890625,-0.941680908203125,-0.213897705078125,-0.007232666015625
1761315433947385900,5.3183857421875,-0.9448699951171875,-0.2130279541015625,-0.01190185546875
1761315433957433900,5.328433837890625,-0.939605712890625,-0.2189178466796875,-0.010498046875
1761315433967481900,5.33848193359375,-0.9326629638671875,-0.2349700927734375,-0.0060272216796875
1761315433977530000,5.348530029296875,-0.9189605712890625,-0.2542724609375,-0.0041961669921875
1761315433987577900,5.358577880859375,-0.9033050537109375,-0.2738494873046875,-0.005523681640625
1761315433997624800,5.368624755859375,-0.895111083984375,-0.2979736328125,-0.0055999755859375
1761315434007672800,5.3786728515625,-0.8873138427734375,-0.3245086669921875,-0.0067596435546875
1761315434017720800,5.388720947265625,-0.88037109375,-0.3482818603515625,-0.0047760009765625
1761315434027768800,5.398768798828125,-0.88653564453125,-0.3690185546875,-0.0048370361328125
1761315434037817000,5.408817138671875,-0.8903045654296875,-0.38555908203125,-0.0063018798828125
1761315434047864800,5.41886474609375,-0.8963775634765625,-0.3923797607421875,-0.0088653564453125
1761315434057912800,5.428912841796875,-0.9091033935546875,-0.38983154296875,-0.0097503662109375
1761315434067961000,5.438961181640625,-0.927093505859375,-0.383056640625,-0.0116119384765625
1761315434078008000,5.449008056640625,-0.93829345703125,-0.36993408203125,-0.0120086669921875
1761315434088055800,5.459055908203125,-0.947540283203125,-0.35650634765625,-0.01239013671875
1761315434098104000,5.46910400390625,-0.9488677978515625,-0.3496246337890625,-0.013092041015625
1761315434108151800,5.47915185546875,-0.95562744140625,-0.3517303466796875,-0.005889892578125
1761315434118199800,5.48919970703125,-0.9566192626953125,-0.35467529296875,0.0047149658203125
1761315434128248000,5.499248046875,-0.9461517333984375,-0.3549957275390625,0.01336669921875
1761315434138295800,5.5092958984375,-0.9326629638671875,-0.3555450439453125,0.0191497802734375
1761315434148343800,5.51934375,-0.91064453125,-0.3587493896484375,0.025115966796875
1761315434158391000,5.52939111328125,-0.8991241455078125,-0.3707733154296875,0.0347747802734375
1761315434168438800,5.539438720703125,-0.894622802734375,-0.3880767822265625,0.042449951171875
1761315434178486800,5.54948681640625,-0.8816680908203125,-0.3997650146484375,0.0486297607421875
1761315434188535000,5.55953515625,-0.868011474609375,-0.4064483642578125,0.0511627197265625
1761315434198582800,5.569582763671875,-0.8575897216796875,-0.4139404296875,0.049560546875
1761315434208630800,5.579630859375,-0.8480682373046875,-0.4242095947265625,0.0485076904296875
1761315434218681900,5.589681884765625,-0.83905029296875,-0.4348297119140625,0.04937744140625
1761315434228728800,5.599728759765625,-0.83599853515625,-0.4416656494140625,0.0489654541015625
1761315434238776800,5.60977685546875,-0.8249359130859375,-0.4468231201171875,0.0442962646484375
1761315434248824800,5.619824951171875,-0.8107757568359375,-0.4525604248046875,0.0423431396484375
1761315434258873000,5.629873046875,-0.8086395263671875,-0.4581451416015625,0.0444183349609375
1761315434268920800,5.6399208984375,-0.815399169921875,-0.461669921875,0.044219970703125
1761315434278968800,5.64996875,-0.8289642333984375,-0.457733154296875,0.0410919189453125
1761315434289017000,5.66001708984375,-0.8419342041015625,-0.4508819580078125,0.032470703125
1761315434299064800,5.67006494140625,-0.85211181640625,-0.4428863525390625,0.017608642578125
1761315434309111800,5.68011181640625,-0.867431640625,-0.4302215576171875,0.0063629150390625
1761315434319160000,5.69016015625,-0.88653564453125,-0.4191131591796875,-0.0018768310546875
1761315434329207800,5.700207763671875,-0.9061126708984375,-0.4128875732421875,-0.0050811767578125
1761315434339255800,5.710255859375,-0.9345550537109375,-0.4095458984375,-0.0057220458984375
1761315434349304000,5.720303955078125,-0.9544219970703125,-0.4053802490234375,-0.002288818359375
1761315434359351800,5.730351806640625,-0.9732818603515625,-0.3993682861328125,0.001190185546875
1761315434369399800,5.74039990234375,-0.984130859375,-0.390716552734375,0.0011749267578125
1761315434379447000,5.750447021484375,-0.9839935302734375,-0.3830108642578125,0.001800537109375
1761315434389494800,5.760494873046875,-0.9848785400390625,-0.3836212158203125,0.00457763671875
1761315434399542800,5.770542724609375,-0.9840850830078125,-0.385833740234375,0.00482177734375
1761315434409591000,5.780591064453125,-0.97186279296875,-0.3888092041015625,0.0032196044921875
1761315434419638800,5.790638671875,-0.9590301513671875,-0.3896484375,-0.00018310546875
1761315434429686800,5.800686767578125,-0.9463958740234375,-0.3939666748046875,-0.0001983642578125
1761315434439735000,5.810735107421875,-0.9264984130859375,-0.4049224853515625,0.00299072265625
1761315434449782800,5.82078271484375,-0.915374755859375,-0.41961669921875,0.0120849609375
1761315434459829800,5.830829833984375,-0.92974853515625,-0.4205169677734375,0.0158843994140625
1761315434469878000,5.8408779296875,-0.9444580078125,-0.40740966796875,0.0093841552734375
1761315434479925800,5.85092578125,-0.95770263671875,-0.40350341796875,0.0013275146484375
1761315434489973800,5.860973876953125,-0.974273681640625,-0.4022216796875,-0.009368896484375
1761315434500022000,5.87102197265625,-0.996246337890625,-0.3911285400390625,-0.0196533203125
1761315434510067000,5.88106689453125,-1.0022430419921875,-0.381011962890625,-0.0260009765625
1761315434520115200,5.891115234375,-1.0052490234375,-0.3709716796875,-0.023895263671875
1761315434530163000,5.901162841796875,-1.011871337890625,-0.3628997802734375,-0.017242431640625
1761315434540210000,5.9112099609375,-1.0114898681640625,-0.353912353515625,-0.00482177734375
1761315434550258200,5.921258056640625,-1.0039825439453125,-0.3421783447265625,0.0065460205078125
1761315434560306200,5.93130615234375,-0.99432373046875,-0.3368377685546875,0.022125244140625
1761315434570354000,5.94135400390625,-0.990509033203125,-0.3404541015625,0.0383148193359375
1761315434580402200,5.951402099609375,-0.9731292724609375,-0.34442138671875,0.054412841796875
1761315434590450200,5.9614501953125,-0.952423095703125,-0.3471832275390625,0.071563720703125
1761315434600498000,5.971497802734375,-0.9416046142578125,-0.3509368896484375,0.087066650390625
1761315434610545200,5.981545166015625,-0.9303741455078125,-0.358489990234375,0.0996551513671875
1761315434620593200,5.99159326171875,-0.91650390625,-0.364990234375,0.1066741943359375
1761315434630641000,6.001640869140625,-0.9086761474609375,-0.3657684326171875,0.1082000732421875
1761315434640689200,6.011689208984375,-0.904571533203125,-0.363922119140625,0.1002044677734375
1761315434650737200,6.021737060546875,-0.89495849609375,-0.3589630126953125,0.088348388671875
1761315434660785000,6.031784912109375,-0.885894775390625,-0.3507843017578125,0.0738372802734375
1761315434670833200,6.041833251953125,-0.8792266845703125,-0.3415985107421875,0.0615234375
1761315434680881000,6.051880859375,-0.871826171875,-0.335601806640625,0.0500946044921875
1761315434690927900,6.061927978515625,-0.8612518310546875,-0.32684326171875,0.0425262451171875
1761315434700976000,6.07197607421875,-0.8537445068359375,-0.3225250244140625,0.038909912109375
1761315434711024000,6.082024169921875,-0.8446197509765625,-0.318878173828125,0.03759765625
1761315434721071900,6.09207177734375,-0.835113525390625,-0.310638427734375,0.0364990234375
1761315434731120000,6.1021201171875,-0.8257598876953125,-0.3034515380859375,0.0399932861328125
1761315434741168000,6.112168212890625,-0.811309814453125,-0.3032379150390625,0.0459136962890625
1761315434751216000,6.122216064453125,-0.80029296875,-0.3056182861328125,0.057220458984375
1761315434761263000,6.13226318359375,-0.792083740234375,-0.3127593994140625,0.0727386474609375
1761315434771311000,6.14231103515625,-0.79412841796875,-0.3217620849609375,0.087860107421875
1761315434781358800,6.15235888671875,-0.8051605224609375,-0.331573486328125,0.10272216796875
1761315434791407000,6.162406982421875,-0.813232421875,-0.3472442626953125,0.1168060302734375
1761315434801455000,6.172455078125,-0.8290863037109375,-0.3664703369140625,0.1246185302734375
1761315434811503000,6.182503173828125,-0.8468017578125,-0.3799591064453125,0.123687744140625
1761315434821551000,6.192551025390625,-0.864227294921875,-0.390960693359375,0.1178436279296875
1761315434831598000,6.20259814453125,-0.8914794921875,-0.3988189697265625,0.1114959716796875
1761315434841646000,6.21264599609375,-0.9138946533203125,-0.4020843505859375,0.1043548583984375
1761315434851694000,6.222694091796875,-0.9291229248046875,-0.39801025390625,0.0888671875
1761315434861742000,6.2327421875,-0.9432830810546875,-0.3887481689453125,0.063720703125
1761315434871790000,6.2427900390625,-0.957427978515625,-0.3724212646484375,0.0333251953125
1761315434881838000,6.252838134765625,-0.9725494384765625,-0.3556976318359375,0.00592041015625
1761315434891886000,6.262885986328125,-0.987152099609375,-0.347198486328125,-0.0145721435546875
1761315434901933000,6.27293310546875,-0.9936981201171875,-0.3424530029296875,-0.0342254638671875
1761315434911981000,6.28298095703125,-0.988067626953125,-0.33990478515625,-0.04541015625
1761315434922029000,6.293029052734375,-0.979736328125,-0.33612060546875,-0.0489044189453125
1761315434932077000,6.3030771484375,-0.9687042236328125,-0.3371124267578125,-0.0407867431640625
1761315434942125000,6.313125,-0.9521636962890625,-0.3419342041015625,-0.0261077880859375
1761315434952173000,6.323173095703125,-0.9230804443359375,-0.34735107421875,-0.0089111328125
1761315434962221000,6.333220947265625,-0.893341064453125,-0.3577880859375,0.0091400146484375
1761315434972268000,6.34326806640625,-0.8693695068359375,-0.3762054443359375,0.0244598388671875
1761315434982316000,6.35331591796875,-0.8380279541015625,-0.39532470703125,0.0348358154296875
1761315434992364300,6.3633642578125,-0.8088226318359375,-0.403289794921875,0.0391845703125
1761315435002412000,6.373412109375,-0.800262451171875,-0.409027099609375,0.046630859375
1761315435012460000,6.3834599609375,-0.8033447265625,-0.4174041748046875,0.0540313720703125
1761315435022508000,6.393508056640625,-0.798736572265625,-0.422698974609375,0.05218505859375
1761315435032556000,6.40355615234375,-0.8009033203125,-0.4250335693359375,0.0521087646484375
1761315435042603000,6.41360302734375,-0.811248779296875,-0.428985595703125,0.0589447021484375
1761315435052651300,6.4236513671875,-0.820892333984375,-0.434417724609375,0.0631103515625
1761315435062699000,6.433698974609375,-0.8305511474609375,-0.4355316162109375,0.0642547607421875
1761315435072747000,6.4437470703125,-0.8557281494140625,-0.4356689453125,0.064727783203125
1761315435082795300,6.453795166015625,-0.8830108642578125,-0.43438720703125,0.0673675537109375
1761315435092843000,6.463843017578125,-0.9098968505859375,-0.4267730712890625,0.0684356689453125
1761315435102891000,6.47389111328125,-0.9419708251953125,-0.418243408203125,0.0639495849609375
1761315435112939000,6.48393896484375,-0.9746246337890625,-0.4176483154296875,0.0645751953125
1761315435122986000,6.493986083984375,-0.99566650390625,-0.4216461181640625,0.0662994384765625
1761315435133034000,6.504033935546875,-1.011322021484375,-0.4238433837890625,0.064208984375
1761315435143082200,6.514082275390625,-1.0208282470703125,-0.4193572998046875,0.053741455078125
1761315435153130000,6.5241298828125,-1.009613037109375,-0.4123077392578125,0.043670654296875
1761315435163178000,6.534177978515625,-0.99554443359375,-0.4088897705078125,0.038482666015625
1761315435173226200,6.544226318359375,-0.9788970947265625,-0.4113922119140625,0.039825439453125
1761315435183273000,6.55427294921875,-0.961395263671875,-0.4181365966796875,0.0489959716796875
1761315435193321000,6.564321044921875,-0.9393463134765625,-0.4257965087890625,0.0584259033203125
1761315435203369200,6.574369140625,-0.92279052734375,-0.431182861328125,0.067779541015625
1761315435213417000,6.5844169921875,-0.91021728515625,-0.440185546875,0.074554443359375
1761315435223465000,6.59446484375,-0.89825439453125,-0.446685791015625,0.0787353515625
1761315435233513200,6.60451318359375,-0.89501953125,-0.4486236572265625,0.0832366943359375
1761315435243561000,6.61456103515625,-0.8940277099609375,-0.4527435302734375,0.08428955078125
1761315435253608000,6.62460791015625,-0.8868255615234375,-0.4570770263671875,0.0823822021484375
1761315435263656200,6.63465625,-0.8771514892578125,-0.4525299072265625,0.07568359375
1761315435273704000,6.644703857421875,-0.875213623046875,-0.4489898681640625,0.071319580078125
1761315435283752000,6.654751953125,-0.8846282958984375,-0.45355224609375,0.06793212890625
1761315435293800200,6.66480029296875,-0.8831024169921875,-0.45758056640625,0.0607452392578125
1761315435303848000,6.674847900390625,-0.8729705810546875,-0.4562530517578125,0.0506591796875
1761315435313896000,6.68489599609375,-0.86962890625,-0.457366943359375,0.042083740234375
1761315435323943200,6.694943115234375,-0.869873046875,-0.463287353515625,0.0362548828125
1761315435333991200,6.7049912109375,-0.8652191162109375,-0.4755859375,0.035797119140625
1761315435344039000,6.715038818359375,-0.860260009765625,-0.4973907470703125,0.039276123046875
1761315435354087200,6.725087158203125,-0.8597564697265625,-0.52001953125,0.0467529296875
1761315435364135000,6.735135009765625,-0.87677001953125,-0.5240936279296875,0.0431365966796875
1761315435374183000,6.745182861328125,-0.8913421630859375,-0.5240020751953125,0.030792236328125
1761315435384231200,6.755231201171875,-0.89599609375,-0.530181884765625,0.0216522216796875
1761315435394278100,6.765278076171875,-0.912017822265625,-0.5272369384765625,0.0116729736328125
1761315435404326000,6.775325927734375,-0.938690185546875,-0.509765625,0.00250244140625
1761315435414374100,6.7853740234375,-0.9624176025390625,-0.4858551025390625,-0.009185791015625
1761315435424422100,6.795422119140625,-0.9784393310546875,-0.4612579345703125,-0.0153045654296875
1761315435434470000,6.805469970703125,-0.9897308349609375,-0.4408721923828125,-0.0146636962890625
1761315435444518100,6.81551806640625,-1.0002288818359375,-0.4217529296875,-0.011566162109375
1761315435454566000,6.82556591796875,-1.0048675537109375,-0.405242919921875,-0.0085906982421875
1761315435464612900,6.83561279296875,-0.996734619140625,-0.3875274658203125,-0.006195068359375
1761315435474661000,6.8456611328125,-0.9807891845703125,-0.370452880859375,-0.0103912353515625
1761315435484709000,6.855709228515625,-0.9588470458984375,-0.3597412109375,-0.016510009765625
1761315435494756900,6.8657568359375,-0.9343719482421875,-0.35650634765625,-0.0175323486328125
1761315435504805000,6.87580517578125,-0.9181671142578125,-0.3582611083984375,-0.008331298828125
1761315435514853000,6.88585302734375,-0.9080657958984375,-0.3588714599609375,0.001617431640625
1761315435524899800,6.89589990234375,-0.8900146484375,-0.3558502197265625,0.0055389404296875
1761315435534948000,6.905947998046875,-0.8687744140625,-0.35150146484375,0.0042877197265625
1761315435544996000,6.91599609375,-0.864410400390625,-0.34576416015625,0.0018310546875
1761315435555043800,6.9260439453125,-0.8652496337890625,-0.3379669189453125,-0.0010528564453125
1761315435565092000,6.936092041015625,-0.8614654541015625,-0.321502685546875,-0.010498046875
1761315435575140000,6.94614013671875,-0.8525848388671875,-0.299102783203125,-0.0218048095703125
1761315435585187800,6.956187744140625,-0.84722900390625,-0.2833709716796875,-0.030029296875
1761315435595235000,6.966235107421875,-0.8422393798828125,-0.278106689453125,-0.0328369140625
1761315435605283000,6.976282958984375,-0.833709716796875,-0.2807159423828125,-0.0292510986328125
1761315435615330800,6.986330810546875,-0.8306121826171875,-0.2896575927734375,-0.0226593017578125
1761315435625379000,6.996379150390625,-0.8260345458984375,-0.305938720703125,-0.0182342529296875
1761315435635427000,7.006427001953125,-0.819976806640625,-0.321044921875,-0.0152130126953125
1761315435645474800,7.016474853515625,-0.819305419921875,-0.33203125,-0.019256591796875
1761315435655522000,7.02652197265625,-0.82568359375,-0.3413238525390625,-0.0289154052734375
1761315435665570000,7.036570068359375,-0.83837890625,-0.349822998046875,-0.03875732421875
1761315435675618000,7.0466181640625,-0.8548583984375,-0.3526153564453125,-0.045318603515625
1761315435685666000,7.056666015625,-0.8724517822265625,-0.3562774658203125,-0.0524749755859375
1761315435695714000,7.066714111328125,-0.88446044921875,-0.358001708984375,-0.062255859375
1761315435705761800,7.07676171875,-0.88775634765625,-0.353759765625,-0.068603515625
1761315435715810000,7.08681005859375,-0.8799591064453125,-0.35357666015625,-0.0633697509765625
1761315435725857000,7.09685693359375,-0.883148193359375,-0.3592376708984375,-0.048004150390625
1761315435735905000,7.106905029296875,-0.883087158203125,-0.365386962890625,-0.0275421142578125
1761315435745953000,7.116953125,-0.86614990234375,-0.3740692138671875,-0.0079345703125
1761315435756001000,7.1270009765625,-0.853424072265625,-0.3877716064453125,0.009490966796875
1761315435766049000,7.137049072265625,-0.8466644287109375,-0.399017333984375,0.0219268798828125
1761315435776097000,7.147096923828125,-0.8382415771484375,-0.4091033935546875,0.0302886962890625
1761315435786145000,7.15714501953125,-0.8425140380859375,-0.4206085205078125,0.0345306396484375
1761315435796192000,7.16719189453125,-0.8497467041015625,-0.4343109130859375,0.0379791259765625
1761315435806240000,7.177239990234375,-0.85198974609375,-0.44384765625,0.0395660400390625
1761315435816288000,7.1872880859375,-0.852325439453125,-0.445526123046875,0.036163330078125
1761315435826336000,7.1973359375,-0.857269287109375,-0.44683837890625,0.0316162109375
1761315435836384000,7.207384033203125,-0.8607635498046875,-0.455657958984375,0.030975341796875
1761315435846432000,7.217431884765625,-0.8665924072265625,-0.46612548828125,0.031402587890625
1761315435856479000,7.22747900390625,-0.87738037109375,-0.4712982177734375,0.028045654296875
1761315435866527000,7.23752685546875,-0.8799591064453125,-0.4696502685546875,0.019317626953125
1761315435876575000,7.247574951171875,-0.885528564453125,-0.460784912109375,0.00909423828125
1761315435886623000,7.257623046875,-0.9003753662109375,-0.45257568359375,0.0012054443359375
1761315435896671000,7.2676708984375,-0.9183197021484375,-0.4481353759765625,-0.006561279296875
1761315435906719000,7.277718994140625,-0.9346466064453125,-0.43817138671875,-0.015869140625
1761315435916766000,7.287765869140625,-0.950408935546875,-0.4238433837890625,-0.0229034423828125
1761315435926814000,7.29781396484375,-0.9755859375,-0.4191741943359375,-0.028045654296875
1761315435936862000,7.307862060546875,-0.9883575439453125,-0.4089813232421875,-0.035797119140625
1761315435946910000,7.317909912109375,-0.9909515380859375,-0.3947906494140625,-0.0377349853515625
1761315435956958000,7.3279580078125,-0.9964447021484375,-0.3880157470703125,-0.0365447998046875
1761315435967006000,7.338005859375,-0.9976806640625,-0.3843841552734375,-0.0293731689453125
1761315435977054200,7.34805419921875,-0.998626708984375,-0.3818206787109375,-0.0214080810546875
1761315435987101200,7.35810107421875,-0.998931884765625,-0.3818359375,-0.0135955810546875
1761315435997149000,7.36814892578125,-0.9971923828125,-0.3820648193359375,-0.009307861328125
1761315436007197000,7.378197021484375,-0.991546630859375,-0.3802032470703125,-0.00836181640625
1761315436017245000,7.388244873046875,-0.9864349365234375,-0.3819427490234375,-0.0102996826171875
1761315436027293000,7.39829296875,-0.9820556640625,-0.3789520263671875,-0.0152130126953125
1761315436037341200,7.408341064453125,-0.97149658203125,-0.376007080078125,-0.0201873779296875
1761315436047388200,7.41838818359375,-0.9669952392578125,-0.379180908203125,-0.0241546630859375
1761315436057436000,7.428435791015625,-0.9584197998046875,-0.3905487060546875,-0.022064208984375
1761315436067484000,7.43848388671875,-0.9514923095703125,-0.41094970703125,-0.0120391845703125
1761315436077532200,7.4485322265625,-0.965423583984375,-0.42694091796875,-0.003936767578125
1761315436087580000,7.458579833984375,-0.9801177978515625,-0.4333648681640625,-0.004974365234375
1761315436097628200,7.468628173828125,-0.9720611572265625,-0.442230224609375,-0.009033203125
1761315436107676000,7.478676025390625,-0.973236083984375,-0.4447479248046875,-0.013336181640625
1761315436117723000,7.488722900390625,-0.99365234375,-0.43682861328125,-0.0195770263671875
1761315436127771000,7.49877099609375,-1.0066375732421875,-0.4231414794921875,-0.02801513671875
1761315436137819100,7.508819091796875,-1.011260986328125,-0.41009521484375,-0.0331573486328125
1761315436147867000,7.518866943359375,-1.01153564453125,-0.39935302734375,-0.03369140625
1761315436157915100,7.5289150390625,-1.007080078125,-0.38653564453125,-0.029266357421875
1761315436167963100,7.538963134765625,-1.0015106201171875,-0.3785247802734375,-0.0206451416015625
1761315436178010000,7.549010009765625,-0.9864044189453125,-0.369842529296875,-0.014312744140625
1761315436188057900,7.559057861328125,-0.9724578857421875,-0.3585357666015625,-0.006256103515625
1761315436198106000,7.569106201171875,-0.959930419921875,-0.35333251953125,0.006195068359375
1761315436208153900,7.57915380859375,-0.9473876953125,-0.3544158935546875,0.0217742919921875
1761315436218202000,7.5892021484375,-0.938140869140625,-0.3599090576171875,0.04132080078125
1761315436228250000,7.59925,-0.932037353515625,-0.3617401123046875,0.055145263671875
1761315436238297000,7.609297119140625,-0.9269561767578125,-0.3533935546875,0.06402587890625
1761315436248344800,7.6193447265625,-0.921051025390625,-0.34228515625,0.0665283203125
1761315436258393000,7.62939306640625,-0.911834716796875,-0.3316497802734375,0.064971923828125
1761315436268441000,7.639441162109375,-0.9010467529296875,-0.323272705078125,0.06439208984375
1761315436278489000,7.649489013671875,-0.8933563232421875,-0.3151702880859375,0.064605712890625
1761315436288537000,7.659537109375,-0.881378173828125,-0.3053436279296875,0.063079833984375
1761315436298584000,7.669583984375,-0.8666534423828125,-0.2981414794921875,0.0631256103515625
1761315436308631800,7.6796318359375,-0.8522186279296875,-0.293212890625,0.06304931640625
1761315436318680000,7.68968017578125,-0.8403778076171875,-0.288726806640625,0.0634918212890625
1761315436328728000,7.69972802734375,-0.82977294921875,-0.2941131591796875,0.067535400390625
1761315436338776000,7.709776123046875,-0.8205718994140625,-0.296875,0.07122802734375
1761315436348824000,7.719823974609375,-0.7991485595703125,-0.300079345703125,0.0754547119140625
1761315436358871000,7.72987109375,-0.78851318359375,-0.3108062744140625,0.0822601318359375
1761315436368918800,7.739918701171875,-0.7925872802734375,-0.3225555419921875,0.0879669189453125
1761315436378967000,7.749967041015625,-0.7996368408203125,-0.3341064453125,0.0889434814453125
1761315436389015000,7.76001513671875,-0.802093505859375,-0.3453369140625,0.0909423828125
1761315436399063000,7.77006298828125,-0.811187744140625,-0.35723876953125,0.0897979736328125
1761315436409111000,7.780111083984375,-0.8265380859375,-0.3695526123046875,0.0869293212890625
1761315436419159000,7.790158935546875,-0.8473358154296875,-0.3815155029296875,0.08612060546875
1761315436429206000,7.8002060546875,-0.874359130859375,-0.391937255859375,0.07562255859375
1761315436439254000,7.81025390625,-0.89642333984375,-0.3902587890625,0.0535736083984375
1761315436449302000,7.820302001953125,-0.9226837158203125,-0.376007080078125,0.0271148681640625
1761315436459350000,7.83035009765625,-0.9478912353515625,-0.363525390625,0.002960205078125
1761315436469398000,7.84039794921875,-0.9619598388671875,-0.3599700927734375,-0.01513671875
1761315436479446000,7.850446044921875,-0.97235107421875,-0.354888916015625,-0.0281982421875
1761315436489493200,7.8604931640625,-0.97235107421875,-0.3473052978515625,-0.0428924560546875
1761315436499541000,7.870541015625,-0.9544830322265625,-0.34674072265625,-0.05029296875
1761315436509589000,7.880589111328125,-0.9391021728515625,-0.3558349609375,-0.0538787841796875
1761315436519637000,7.890636962890625,-0.9127197265625,-0.3638153076171875,-0.05340576171875
1761315436529685000,7.90068505859375,-0.8816986083984375,-0.36920166015625,-0.0466156005859375
1761315436539732000,7.91073193359375,-0.8710784912109375,-0.3759918212890625,-0.03765869140625
1761315436549780000,7.920780029296875,-0.855133056640625,-0.3919677734375,-0.03155517578125
1761315436559828000,7.930827880859375,-0.82940673828125,-0.4103240966796875,-0.0269927978515625
1761315436569876000,7.9408759765625,-0.821929931640625,-0.4265899658203125,-0.0185699462890625
1761315436579924000,7.950924072265625,-0.8221893310546875,-0.4359893798828125,-0.0102081298828125
1761315436589972000,7.960971923828125,-0.827728271484375,-0.4332427978515625,0.0012969970703125
1761315436600020000,7.97102001953125,-0.827606201171875,-0.4272613525390625,0.00811767578125
1761315436610067000,7.98106689453125,-0.8266754150390625,-0.4253692626953125,0.0157623291015625
1761315436620115000,7.991114990234375,-0.83062744140625,-0.4286041259765625,0.02264404296875
1761315436630163000,8.001162841796875,-0.8359222412109375,-0.4290618896484375,0.0291595458984375
1761315436640211000,8.0112109375,-0.8418731689453125,-0.424652099609375,0.0320281982421875
1761315436650259000,8.021259033203124,-0.8486328125,-0.4276275634765625,0.03082275390625
1761315436660306000,8.031305908203125,-0.85430908203125,-0.432281494140625,0.0251007080078125
1761315436670354000,8.04135400390625,-0.8599853515625,-0.43389892578125,0.0154876708984375
1761315436680402000,8.05140185546875,-0.8687286376953125,-0.4351043701171875,0.004302978515625
1761315436690450000,8.061449951171875,-0.885162353515625,-0.4377899169921875,-0.0081329345703125
1761315436700498000,8.071497802734376,-0.899566650390625,-0.44219970703125,-0.0184326171875
1761315436710546000,8.0815458984375,-0.916839599609375,-0.4397125244140625,-0.0248870849609375
1761315436720594000,8.091593994140625,-0.941802978515625,-0.432373046875,-0.028411865234375
1761315436730641000,8.101640869140626,-0.9683837890625,-0.4298858642578125,-0.0300140380859375
1761315436740689200,8.111689208984375,-0.9947509765625,-0.4272918701171875,-0.031768798828125
1761315436750737000,8.12173681640625,-1.0096893310546875,-0.41845703125,-0.03436279296875
1761315436760785000,8.131784912109374,-1.0134735107421875,-0.41265869140625,-0.0364532470703125
1761315436770833000,8.1418330078125,-1.01007080078125,-0.4136199951171875,-0.035858154296875
1761315436780880000,8.1518798828125,-1.00775146484375,-0.4182586669921875,-0.0296173095703125
1761315436790928000,8.161927978515624,-0.9996185302734375,-0.4228668212890625,-0.027679443359375
1761315436800976100,8.17197607421875,-0.9828643798828125,-0.4287872314453125,-0.0257568359375
1761315436811024000,8.18202392578125,-0.9722137451171875,-0.4398040771484375,-0.0203399658203125
1761315436821072000,8.19207177734375,-0.961669921875,-0.4503173828125,-0.011627197265625
1761315436831120100,8.2021201171875,-0.941131591796875,-0.4622802734375,0.000885009765625
1761315436841166800,8.212166748046876,-0.921112060546875,-0.483856201171875,0.0156402587890625
1761315436851214800,8.22221484375,-0.920318603515625,-0.502105712890625,0.03094482421875
1761315436861263000,8.23226318359375,-0.9300994873046875,-0.5003662109375,0.034423828125
1761315436871310800,8.242310791015624,-0.92767333984375,-0.496673583984375,0.0375518798828125
1761315436881358800,8.25235888671875,-0.923004150390625,-0.4939117431640625,0.0400848388671875
1761315436891407000,8.262406982421876,-0.922515869140625,-0.4772796630859375,0.0339508056640625
1761315436901454000,8.2724541015625,-0.92401123046875,-0.447418212890625,0.0252227783203125
1761315436911501800,8.282501708984375,-0.917388916015625,-0.420745849609375,0.0133209228515625
1761315436921550000,8.292550048828126,-0.9069976806640625,-0.3992919921875,0.0043792724609375
1761315436931597800,8.302597900390625,-0.899444580078125,-0.38336181640625,0.0019683837890625
1761315436941645800,8.312645751953125,-0.89495849609375,-0.3713531494140625,0.0024566650390625
1761315436951694000,8.322694091796874,-0.895477294921875,-0.3573455810546875,0.002899169921875
1761315436961741000,8.332740966796875,-0.893646240234375,-0.346099853515625,0.0005950927734375
1761315436971788800,8.342788818359375,-0.89031982421875,-0.340240478515625,-0.0011138916015625
1761315436981837000,8.352837158203124,-0.9022216796875,-0.33795166015625,-0.0028228759765625
1761315436991885000,8.362885009765625,-0.9133758544921875,-0.3327484130859375,-0.0056915283203125
1761315437001932800,8.372932861328126,-0.9122772216796875,-0.3251495361328125,-0.0106048583984375
1761315437011981000,8.38298095703125,-0.912841796875,-0.316619873046875,-0.0163726806640625
1761315437022028000,8.393028076171875,-0.91766357421875,-0.310211181640625,-0.020599365234375
1761315437032075800,8.40307568359375,-0.9164886474609375,-0.3064117431640625,-0.024932861328125
1761315437042124000,8.4131240234375,-0.911285400390625,-0.303680419921875,-0.0311431884765625
1761315437052172000,8.423172119140625,-0.9046783447265625,-0.3025665283203125,-0.0368499755859375
1761315437062219800,8.4332197265625,-0.8974609375,-0.3054656982421875,-0.0409088134765625
1761315437072268000,8.44326806640625,-0.88824462890625,-0.3111724853515625,-0.04345703125
1761315437082315000,8.45331494140625,-0.8812103271484375,-0.320526123046875,-0.0436859130859375
1761315437092363000,8.463363037109374,-0.8758544921875,-0.330169677734375,-0.0446014404296875
1761315437102411000,8.473410888671875,-0.8661041259765625,-0.3390350341796875,-0.044219970703125
1761315437112459000,8.483458984375,-0.8536224365234375,-0.3504486083984375,-0.0443115234375
1761315437122506800,8.4935068359375,-0.8412322998046875,-0.3613433837890625,-0.0412139892578125
1761315437132555000,8.503554931640625,-0.8401947021484375,-0.3755950927734375,-0.0356903076171875
1761315437142602000,8.51360205078125,-0.8388824462890625,-0.3894805908203125,-0.029052734375
1761315437152650000,8.52364990234375,-0.84521484375,-0.401031494140625,-0.0221710205078125
1761315437162698000,8.533697998046875,-0.8579559326171875,-0.4076690673828125,-0.02215576171875
1761315437172746000,8.54374609375,-0.864166259765625,-0.4061279296875,-0.0273284912109375
1761315437182793700,8.553793701171875,-0.86328125,-0.401519775390625,-0.031005859375
1761315437192842000,8.563842041015626,-0.8763580322265625,-0.3963165283203125,-0.031005859375
1761315437202889000,8.573888916015624,-0.8943634033203125,-0.3927459716796875,-0.0261993408203125
1761315437212937000,8.58393701171875,-0.900543212890625,-0.3932342529296875,-0.0199127197265625
1761315437222985000,8.59398486328125,-0.902069091796875,-0.3910064697265625,-0.0120086669921875
1761315437233033000,8.604032958984375,-0.9021148681640625,-0.390716552734375,-0.00341796875
1761315437243081000,8.6140810546875,-0.900421142578125,-0.392578125,0.004241943359375
1761315437253129000,8.62412890625,-0.8940582275390625,-0.3937530517578125,0.0139617919921875
1761315437263176000,8.634176025390625,-0.8853759765625,-0.4016876220703125,0.0241851806640625
1761315437273224000,8.644223876953125,-0.8822784423828125,-0.4124755859375,0.0334930419921875
1761315437283272000,8.65427197265625,-0.87725830078125,-0.425018310546875,0.04107666015625
1761315437293320000,8.66431982421875,-0.872161865234375,-0.439697265625,0.0427398681640625
1761315437303368000,8.674367919921876,-0.87200927734375,-0.44818115234375,0.037567138671875
1761315437313416000,8.684416015625,-0.8653717041015625,-0.454498291015625,0.030731201171875
1761315437323463000,8.694462890625,-0.8571319580078125,-0.461669921875,0.022247314453125
1761315437333511000,8.704510986328126,-0.8566131591796875,-0.4683990478515625,0.0157470703125
1761315437343559000,8.714558837890625,-0.8567352294921875,-0.475067138671875,0.0116729736328125
1761315437353607000,8.72460693359375,-0.8561248779296875,-0.47308349609375,0.0022125244140625
1761315437363655000,8.734655029296874,-0.86004638671875,-0.4622955322265625,-0.00640869140625
1761315437373703000,8.744702880859375,-0.863525390625,-0.4570159912109375,-0.0124969482421875
1761315437383750000,8.75475,-0.8700714111328125,-0.454864501953125,-0.016021728515625
1761315437393798000,8.7647978515625,-0.884735107421875,-0.4460296630859375,-0.017242431640625
1761315437403846100,8.77484619140625,-0.9006500244140625,-0.4368743896484375,-0.019744873046875
1761315437413894000,8.784893798828126,-0.908843994140625,-0.4285430908203125,-0.020965576171875
1761315437423942000,8.79494189453125,-0.916473388671875,-0.420440673828125,-0.021026611328125
1761315437433990000,8.804989990234375,-0.9275665283203125,-0.4141082763671875,-0.022430419921875
1761315437444036900,8.815036865234376,-0.9303436279296875,-0.40899658203125,-0.0239410400390625
1761315437454084900,8.8250849609375,-0.934051513671875,-0.4076080322265625,-0.021209716796875
1761315437464133000,8.835133056640625,-0.937255859375,-0.4078369140625,-0.019073486328125
1761315437474180900,8.845180908203124,-0.933197021484375,-0.4073486328125,-0.0170440673828125
1761315437484228900,8.855228759765625,-0.9271087646484375,-0.4061737060546875,-0.014739990234375
1761315437494277000,8.865277099609376,-0.9289398193359375,-0.4074554443359375,-0.012542724609375
1761315437504323800,8.87532373046875,-0.9291839599609375,-0.4118804931640625,-0.0107879638671875
1761315437514370800,8.885370849609375,-0.928497314453125,-0.413238525390625,-0.0144500732421875
1761315437524418800,8.895418701171875,-0.9243927001953125,-0.4117584228515625,-0.0176849365234375
1761315437534467000,8.905467041015624,-0.92718505859375,-0.4130706787109375,-0.0175628662109375
1761315437544514800,8.915514892578125,-0.9316864013671875,-0.4152374267578125,-0.01812744140625
1761315437554563000,8.92556298828125,-0.931488037109375,-0.416168212890625,-0.0173797607421875
1761315437564610000,8.935610107421875,-0.928253173828125,-0.417266845703125,-0.013214111328125
1761315437574657800,8.94565771484375,-0.921234130859375,-0.429168701171875,-0.0004730224609375
1761315437584703000,8.955702880859375,-0.9215240478515625,-0.451812744140625,0.020751953125
1761315437594751000,8.9657509765625,-0.94287109375,-0.4666748046875,0.03497314453125
1761315437604799000,8.975799072265625,-0.954925537109375,-0.4716644287109375,0.0389404296875
1761315437614847000,8.985846923828126,-0.9536590576171875,-0.4708099365234375,0.0303955078125
1761315437624895000,8.99589501953125,-0.964447021484375,-0.4633026123046875,0.0176239013671875
1761315437634941700,9.005941650390625,-0.9754638671875,-0.454559326171875,0.0085906982421875
1761315437644990000,9.015989990234376,-0.9893951416015625,-0.441986083984375,0.00347900390625
1761315437655038000,9.026037841796875,-1.000823974609375,-0.4248046875,-0.00042724609375
1761315437665086000,9.0360859375,-1.006622314453125,-0.408905029296875,-0.0024566650390625
1761315437675134000,9.046134033203124,-1.01361083984375,-0.396026611328125,0.0034942626953125
1761315437685182000,9.056181884765625,-1.0100250244140625,-0.3850555419921875,0.01116943359375
1761315437695229000,9.06622900390625,-1.005096435546875,-0.3798065185546875,0.016754150390625
1761315437705277000,9.07627685546875,-0.99853515625,-0.3743438720703125,0.021728515625
1761315437715325000,9.086324951171875,-0.991912841796875,-0.3683319091796875,0.026153564453125
1761315437725373000,9.096373046875,-0.9836273193359375,-0.3627166748046875,0.027130126953125
1761315437735421000,9.1064208984375,-0.97210693359375,-0.3589019775390625,0.027435302734375
1761315437745469000,9.116468994140625,-0.96331787109375,-0.3560943603515625,0.0292510986328125
1761315437755516000,9.126515869140626,-0.9537353515625,-0.3536224365234375,0.0291595458984375
1761315437765564000,9.13656396484375,-0.939697265625,-0.3501739501953125,0.0272216796875
1761315437775612000,9.14661181640625,-0.9297027587890625,-0.344818115234375,0.0235595703125
1761315437785660000,9.156659912109374,-0.9157562255859375,-0.3378753662109375,0.021697998046875
1761315437795708000,9.1667080078125,-0.903076171875,-0.3312835693359375,0.023193359375
1761315437805756000,9.176755859375,-0.8901824951171875,-0.3265533447265625,0.019073486328125
1761315437815804000,9.186803955078124,-0.87432861328125,-0.3207550048828125,0.0222930908203125
1761315437825851000,9.196850830078125,-0.8596038818359375,-0.3150482177734375,0.026611328125
1761315437835899000,9.20689892578125,-0.838592529296875,-0.3133697509765625,0.0331878662109375
1761315437845947100,9.216947021484375,-0.8217315673828125,-0.322906494140625,0.0446014404296875
1761315437855995000,9.226994873046875,-0.81170654296875,-0.3349456787109375,0.0582427978515625
1761315437866043000,9.23704296875,-0.8085479736328125,-0.343231201171875,0.06988525390625
1761315437876091000,9.2470908203125,-0.8045654296875,-0.3570098876953125,0.077972412109375
1761315437886137900,9.257137939453125,-0.797088623046875,-0.371795654296875,0.0857086181640625
1761315437896185900,9.267185791015624,-0.8003997802734375,-0.385345458984375,0.0879669189453125
1761315437906234000,9.277234130859375,-0.8063507080078125,-0.399444580078125,0.0890350341796875
1761315437916281900,9.28728173828125,-0.8093414306640625,-0.4136199951171875,0.0877838134765625
1761315437926329900,9.297329833984374,-0.8284149169921875,-0.4250946044921875,0.081512451171875
1761315437936378000,9.307378173828125,-0.8450927734375,-0.429351806640625,0.0661468505859375
1761315437946425000,9.317425048828126,-0.8597869873046875,-0.4200897216796875,0.044891357421875
1761315437956472800,9.327472900390624,-0.8835296630859375,-0.4003448486328125,0.02093505859375
1761315437966521000,9.33752099609375,-0.909423828125,-0.3819427490234375,0.002227783203125
1761315437976568800,9.34756884765625,-0.9315338134765625,-0.37225341796875,-0.0092926025390625
1761315437986616800,9.357616943359375,-0.946990966796875,-0.3686065673828125,-0.015289306640625
1761315437996665000,9.3676650390625,-0.950653076171875,-0.36590576171875,-0.012451171875
1761315438006712800,9.377712890625,-0.9391937255859375,-0.3632049560546875,-0.0061798095703125
1761315438016759800,9.387759765625,-0.9229278564453125,-0.3591766357421875,0.001373291015625
1761315438026808000,9.39780810546875,-0.899688720703125,-0.3604583740234375,0.0155181884765625
1761315438036856000,9.40785595703125,-0.8744354248046875,-0.3696136474609375,0.0361480712890625
1761315438046903800,9.41790380859375,-0.85479736328125,-0.387603759765625,0.0580291748046875
1761315438056952000,9.4279521484375,-0.8349151611328125,-0.4060516357421875,0.0753631591796875
1761315438066999800,9.437999755859375,-0.815460205078125,-0.4145660400390625,0.0836639404296875
1761315438077046800,9.448046875,-0.7960968017578125,-0.4185791015625,0.0886077880859375
1761315438087095000,9.458094970703126,-0.7927398681640625,-0.4262542724609375,0.0947723388671875
1761315438097143000,9.46814306640625,-0.798095703125,-0.4353485107421875,0.10009765625
1761315438107190800,9.478190673828125,-0.8021087646484375,-0.438446044921875,0.100128173828125
1761315438117239000,9.488239013671874,-0.80419921875,-0.4372711181640625,0.095001220703125
1761315438127286800,9.498286865234375,-0.8089599609375,-0.4370880126953125,0.0912628173828125
1761315438137334800,9.508334716796876,-0.8123779296875,-0.4403076171875,0.0892181396484375
1761315438147382000,9.518382080078124,-0.82281494140625,-0.4425201416015625,0.0893402099609375
1761315438157430000,9.528429931640625,-0.8393402099609375,-0.4425201416015625,0.088653564453125
1761315438167477800,9.538477783203126,-0.855926513671875,-0.4405670166015625,0.0850067138671875
1761315438177528800,9.54852880859375,-0.87689208984375,-0.43768310546875,0.07989501953125
1761315438187577000,9.5585771484375,-0.887847900390625,-0.432647705078125,0.070770263671875
1761315438197624000,9.5686240234375,-0.897491455078125,-0.4277496337890625,0.062347412109375
1761315438207671800,9.578671875,-0.915069580078125,-0.4281463623046875,0.05572509765625
1761315438217720000,9.588719970703124,-0.928009033203125,-0.4274139404296875,0.0494537353515625
1761315438227768000,9.59876806640625,-0.9301605224609375,-0.4229278564453125,0.041107177734375
1761315438237815800,9.60881591796875,-0.933349609375,-0.418609619140625,0.036590576171875
1761315438247864000,9.618864013671875,-0.94256591796875,-0.42266845703125,0.0344390869140625
1761315438257911800,9.628911865234375,-0.9449615478515625,-0.4295654296875,0.036834716796875
1761315438267958800,9.638958740234376,-0.9439697265625,-0.4339141845703125,0.0396881103515625
1761315438278007000,9.649007080078125,-0.9399261474609375,-0.4357147216796875,0.044921875
1761315438288055000,9.659054931640625,-0.9375457763671875,-0.4365386962890625,0.051513671875
1761315438298102800,9.669102783203124,-0.9313201904296875,-0.440673828125,0.0614776611328125
1761315438308151000,9.679151123046875,-0.9234466552734375,-0.4434356689453125,0.07061767578125
1761315438318199000,9.689198974609376,-0.915252685546875,-0.443115234375,0.0755767822265625
1761315438328246800,9.699246826171875,-0.909698486328125,-0.442169189453125,0.0789947509765625
1761315438338294000,9.7092939453125,-0.9080352783203125,-0.4449920654296875,0.0810089111328125
1761315438348342000,9.719342041015626,-0.9063873291015625,-0.4467315673828125,0.0831451416015625
1761315438358389800,9.7293896484375,-0.9076690673828125,-0.446258544921875,0.086761474609375
1761315438368438000,9.73943798828125,-0.9206390380859375,-0.444000244140625,0.087921142578125
1761315438378486000,9.749486083984374,-0.9332122802734375,-0.435150146484375,0.08648681640625
1761315438388533800,9.75953369140625,-0.943359375,-0.428192138671875,0.0872039794921875
1761315438398581000,9.7695810546875,-0.9582672119140625,-0.4278717041015625,0.0919952392578125
1761315438408629000,9.77962890625,-0.973419189453125,-0.4316864013671875,0.099853515625
1761315438418676700,9.7896767578125,-0.98004150390625,-0.4387359619140625,0.1062774658203125
1761315438428725000,9.79972509765625,-0.9884490966796875,-0.4445343017578125,0.1094818115234375
1761315438438773000,9.80977294921875,-0.992523193359375,-0.4528045654296875,0.10772705078125
1761315438448820700,9.81982080078125,-0.9952545166015625,-0.4640045166015625,0.1110382080078125
1761315438458868000,9.829867919921876,-1.016693115234375,-0.471099853515625,0.1142425537109375
1761315438468916000,9.839916015625,-1.0245513916015625,-0.475067138671875,0.1116485595703125
1761315438478964000,9.8499638671875,-1.0425262451171875,-0.47210693359375,0.101959228515625
1761315438489012000,9.860011962890624,-1.0770416259765625,-0.465240478515625,0.09088134765625
1761315438499060000,9.87006005859375,-1.11016845703125,-0.4519500732421875,0.072174072265625
1761315438509107700,9.880107666015626,-1.13671875,-0.4342041015625,0.051971435546875
1761315438519157000,9.890156982421875,-1.157745361328125,-0.412750244140625,0.03314208984375
1761315438529204000,9.900203857421875,-1.1799163818359375,-0.393341064453125,0.0166778564453125
1761315438539251700,9.910251708984376,-1.193023681640625,-0.3676300048828125,-0.0026092529296875
1761315438549300000,9.920300048828125,-1.1889190673828125,-0.3300323486328125,-0.0244903564453125
1761315438559348000,9.930347900390625,-1.1817169189453125,-0.28826904296875,-0.048553466796875
1761315438569395700,9.940395751953124,-1.160980224609375,-0.2502899169921875,-0.0727081298828125
1761315438579444000,9.95044384765625,-1.1295928955078125,-0.2248382568359375,-0.0936737060546875
1761315438589492000,9.960491943359376,-1.0970001220703125,-0.2171783447265625,-0.105316162109375
1761315438599538700,9.97053857421875,-1.05084228515625,-0.218231201171875,-0.10467529296875
1761315438609587000,9.9805869140625,-1.0041046142578125,-0.2195892333984375,-0.092620849609375
1761315438619635000,9.990635009765626,-0.9635467529296875,-0.2243194580078125,-0.0746917724609375
1761315438629682700,10.0006826171875,-0.9321746826171875,-0.230072021484375,-0.0538177490234375
1761315438639731000,10.01073095703125,-0.9075469970703125,-0.233917236328125,-0.034637451171875
1761315438649779000,10.020779052734374,-0.883697509765625,-0.230010986328125,-0.0196685791015625
1761315438659826000,10.030825927734375,-0.865020751953125,-0.2304534912109375,-0.005096435546875
1761315438669874000,10.0408740234375,-0.8537750244140625,-0.2411346435546875,0.003814697265625
1761315438679922000,10.050921875,-0.8364410400390625,-0.2502593994140625,0.0070953369140625
1761315438689969700,10.0609697265625,-0.821197509765625,-0.2488250732421875,0.001708984375
1761315438700018000,10.071017822265626,-0.80999755859375,-0.2432403564453125,-0.009674072265625
1761315438710066000,10.08106591796875,-0.8029632568359375,-0.2413177490234375,-0.020416259765625
1761315438720114000,10.091114013671875,-0.7972564697265625,-0.2437744140625,-0.0284576416015625
1761315438730161000,10.101160888671876,-0.780059814453125,-0.23944091796875,-0.0363922119140625
1761315438740209000,10.111208984375,-0.76080322265625,-0.2317047119140625,-0.0382537841796875
1761315438750257000,10.1212568359375,-0.7542877197265625,-0.2307891845703125,-0.0352020263671875
1761315438760305000,10.131304931640624,-0.760009765625,-0.2389068603515625,-0.029541015625
1761315438770353000,10.141352783203125,-0.7640228271484375,-0.2493133544921875,-0.022491455078125
1761315438780401000,10.15140087890625,-0.77044677734375,-0.2639312744140625,-0.012542724609375
1761315438790447900,10.16144775390625,-0.776092529296875,-0.279052734375,-0.0074005126953125
1761315438800495900,10.171495849609375,-0.7646026611328125,-0.2921295166015625,-0.009552001953125
1761315438810543900,10.1815439453125,-0.7679443359375,-0.3119964599609375,0.002685546875
1761315438820591900,10.191591796875,-0.8081512451171875,-0.3188934326171875,0.0171051025390625
1761315438830639900,10.201639892578125,-0.82037353515625,-0.3090362548828125,0.014739990234375
1761315438840687900,10.21168798828125,-0.8124542236328125,-0.3204498291015625,0.005279541015625
1761315438850735900,10.22173583984375,-0.81341552734375,-0.3296356201171875,-0.0018310546875
1761315438860782800,10.231782958984375,-0.81109619140625,-0.3274078369140625,-0.0041351318359375
1761315438870830800,10.241830810546874,-0.80364990234375,-0.3350372314453125,0.000152587890625
1761315438880878800,10.25187890625,-0.810699462890625,-0.3533935546875,0.023468017578125
1761315438890926800,10.2619267578125,-0.83465576171875,-0.373077392578125,0.0508575439453125
1761315438900975000,10.27197509765625,-0.847442626953125,-0.3856353759765625,0.07037353515625
1761315438911022800,10.28202294921875,-0.8524169921875,-0.388092041015625,0.0841217041015625
1761315438921070800,10.29207080078125,-0.86126708984375,-0.387603759765625,0.0893096923828125
1761315438931117800,10.302117919921875,-0.86956787109375,-0.3830718994140625,0.086639404296875
1761315438941165800,10.312165771484375,-0.8828887939453125,-0.377899169921875,0.08514404296875
1761315438951213800,10.3222138671875,-0.902435302734375,-0.3818206787109375,0.0857086181640625
1761315438961262000,10.332261962890625,-0.920013427734375,-0.39080810546875,0.087615966796875
1761315438971309800,10.342309814453126,-0.939605712890625,-0.3993682861328125,0.0844879150390625
1761315438981357800,10.35235791015625,-0.9348602294921875,-0.3944091796875,0.072784423828125
1761315438991404800,10.36240478515625,-0.918060302734375,-0.3792877197265625,0.0595245361328125
1761315439001452800,10.372452880859376,-0.90679931640625,-0.372894287109375,0.056427001953125
1761315439011500800,10.382500732421875,-0.9105682373046875,-0.37506103515625,0.0629119873046875
1761315439021549000,10.392549072265625,-0.931976318359375,-0.3816986083984375,0.07635498046875
1761315439031596800,10.4025966796875,-0.9352264404296875,-0.3899993896484375,0.086029052734375
1761315439041644800,10.412644775390625,-0.9256134033203125,-0.3904266357421875,0.090667724609375
1761315439051693000,10.422693115234376,-0.92547607421875,-0.3934783935546875,0.0917510986328125
1761315439061740000,10.432739990234374,-0.9193267822265625,-0.398101806640625,0.0930328369140625
1761315439071787800,10.442787841796875,-0.9119720458984375,-0.39862060546875,0.0856781005859375
1761315439081836000,10.4528359375,-0.9028167724609375,-0.401885986328125,0.074981689453125
1761315439091883800,10.4628837890625,-0.89581298828125,-0.403656005859375,0.071746826171875
1761315439101931800,10.472931884765625,-0.908233642578125,-0.40289306640625,0.069244384765625
1761315439111980000,10.48297998046875,-0.9084930419921875,-0.402008056640625,0.0703582763671875
1761315439122027800,10.49302783203125,-0.91455078125,-0.4041900634765625,0.07220458984375
1761315439132074800,10.50307470703125,-0.9296417236328125,-0.40484619140625,0.069580078125
1761315439142123000,10.513123046875,-0.936370849609375,-0.392425537109375,0.06134033203125
1761315439152171000,10.5231708984375,-0.9282684326171875,-0.37689208984375,0.0556640625
1761315439162218800,10.53321875,-0.9225921630859375,-0.3684539794921875,0.0538177490234375
1761315439172267000,10.54326708984375,-0.9301910400390625,-0.3649749755859375,0.0514373779296875
1761315439182314800,10.553314697265625,-0.9347381591796875,-0.3709716796875,0.050689697265625
1761315439192361700,10.56336181640625,-0.9416046142578125,-0.3852386474609375,0.0579986572265625
1761315439202410000,10.573409912109375,-0.95208740234375,-0.39935302734375,0.0660552978515625
1761315439212458000,10.5834580078125,-0.9523468017578125,-0.410125732421875,0.0554656982421875
1761315439222505700,10.593505615234376,-0.92132568359375,-0.4157867431640625,0.0417022705078125
1761315439232554000,10.603553955078125,-0.9311370849609375,-0.4191741943359375,0.03717041015625
1761315439242602000,10.61360205078125,-0.955108642578125,-0.416473388671875,0.03045654296875
1761315439252649700,10.623649658203124,-0.9745941162109375,-0.419647216796875,0.017669677734375
1761315439262697000,10.633697021484375,-0.974853515625,-0.4151458740234375,0.0041656494140625
1761315439272745000,10.643744873046876,-0.96978759765625,-0.3941497802734375,-0.003082275390625
1761315439282792700,10.653792724609374,-0.9811248779296875,-0.3711395263671875,-0.000732421875
1761315439292841000,10.663841064453125,-0.97772216796875,-0.3585052490234375,0.0041656494140625
1761315439302889000,10.673888916015626,-0.967864990234375,-0.3628082275390625,0.0150299072265625
1761315439312936700,10.683936767578125,-0.9724273681640625,-0.36932373046875,0.0251922607421875
1761315439322984000,10.69398388671875,-0.9854888916015625,-0.3639678955078125,0.0348968505859375
1761315439333032000,10.704031982421874,-0.98516845703125,-0.349334716796875,0.0428009033203125
1761315439343079700,10.71407958984375,-0.9784698486328125,-0.3301544189453125,0.0445404052734375
1761315439353128000,10.7241279296875,-0.95733642578125,-0.312469482421875,0.040863037109375
1761315439363176000,10.734176025390624,-0.9358062744140625,-0.29693603515625,0.043670654296875
1761315439373223700,10.7442236328125,-0.9075775146484375,-0.2804107666015625,0.052764892578125
1761315439383272000,10.75427197265625,-0.8350067138671875,-0.2239837646484375,0.0847625732421875
1761315439393319000,10.76431884765625,-0.96453857421875,-0.234222412109375,0.131195068359375
1761315439403367000,10.774366943359375,-0.996063232421875,-0.2975311279296875,0.127410888671875
1761315439413415000,10.784414794921876,-0.9213714599609375,-0.3387908935546875,0.1017303466796875
1761315439423463000,10.794462890625,-0.8916778564453125,-0.315032958984375,0.05548095703125
1761315439433510700,10.8045107421875,-0.8682861328125,-0.278076171875,0.022247314453125
1761315439443559000,10.814558837890624,-0.8538665771484375,-0.26580810546875,0.00274658203125
1761315439453607000,10.82460693359375,-0.8616790771484375,-0.2731170654296875,-0.0012359619140625
1761315439463654000,10.83465380859375,-0.85614013671875,-0.2813720703125,0.004791259765625
1761315439473702000,10.844701904296874,-0.8336334228515625,-0.2631988525390625,0.02764892578125
1761315439483750000,10.85475,-0.818695068359375,-0.2654876708984375,0.04620361328125
