time,seconds_elapsed,z,y,x
1761315428697348600,0.0683486328125,0.6540630459785461,-0.19167010486125946,0.01978888548910618
1761315428707396600,0.078396728515625,0.6527184247970581,-0.37790656089782715,0.1331561952829361
1761315428717444600,0.088444580078125,0.6257184743881226,-0.5637032985687256,0.2559729218482971
1761315428727492600,0.09849267578125,0.5309951901435852,-0.6825807094573975,0.3876768946647644
1761315428737540600,0.10854052734375,0.417184978723526,-0.6863085627555847,0.5255317091941833
1761315428747588600,0.118588623046875,0.3248465359210968,-0.5407295823097229,0.6513087749481201
1761315428757636600,0.12863671875,0.27482330799102783,-0.33099764585494995,0.7493506669998169
1761315428767684400,0.138684326171875,0.2750004231929779,-0.14699557423591614,0.7937136292457581
1761315428777731600,0.148731689453125,0.31771165132522583,-0.006736998446285725,0.7507986426353455
1761315428787779600,0.158779541015625,0.39500272274017334,0.0968644917011261,0.6502951979637146
1761315428797827600,0.16882763671875,0.4884048402309418,0.21775177121162415,0.5334359407424927
1761315428807875600,0.17887548828125,0.5719370245933533,0.3519689738750458,0.4142238199710846
1761315428817923600,0.188923583984375,0.6271877288818359,0.4496699571609497,0.278248131275177
1761315428827971600,0.1989716796875,0.6311116218566895,0.49111407995224,0.12777021527290344
1761315428838019600,0.20901953125,0.5765594840049744,0.482749342918396,-0.0515579991042614
1761315428848067600,0.219067626953125,0.46507981419563293,0.406088650226593,-0.26330140233039856
1761315428858115600,0.229115478515625,0.30514392256736755,0.27785158157348633,-0.4546721577644348
1761315428868163600,0.23916357421875,0.11807124316692352,0.1626986414194107,-0.5758342742919922
1761315428878211600,0.249211669921875,-0.04416746273636818,0.05896078795194626,-0.6301134824752808
1761315428888259600,0.259259521484375,-0.1511508971452713,-0.013802364468574524,-0.6152735352516174
1761315428898307600,0.2693076171875,-0.20765972137451172,-0.022156167775392532,-0.5452262759208679
1761315428908355600,0.27935546875,-0.20651189982891083,0.039139945060014725,-0.43202197551727295
1761315428918403600,0.289403564453125,-0.15407904982566833,0.1419571340084076,-0.2967371344566345
1761315428928451600,0.29945166015625,-0.056279782205820084,0.2481890320777893,-0.17642509937286377
1761315428938499300,0.309499267578125,0.06388737261295319,0.33244559168815613,-0.07908815890550613
1761315428948547600,0.319547607421875,0.19909019768238068,0.38111940026283264,-0.008934373036026955
1761315428958595600,0.329595703125,0.3342043459415436,0.43570858240127563,0.03777134791016579
1761315428968642600,0.339642578125,0.43251654505729675,0.4907870292663574,0.06745653599500656
1761315428978690600,0.349690673828125,0.4753071367740631,0.5236560106277466,0.08345174789428711
1761315428988738600,0.359738525390625,0.4843224585056305,0.4980446696281433,0.08500277251005173
1761315428998786600,0.36978662109375,0.48352912068367004,0.41169461607933044,0.09031924605369568
1761315429008834600,0.37983447265625,0.4844457805156708,0.2904224991798401,0.11079096049070358
1761315429018882600,0.389882568359375,0.48445963859558105,0.16399319469928741,0.13370001316070557
1761315429028930600,0.3999306640625,0.48244547843933105,0.041063547134399414,0.15990124642848969
1761315429038978600,0.409978515625,0.5003333687782288,-0.06622402369976044,0.16685982048511505
1761315429049026600,0.420026611328125,0.5342346429824829,-0.15064889192581177,0.16438202559947968
1761315429059074600,0.430074462890625,0.553278386592865,-0.20415499806404114,0.15942400693893433
1761315429069122600,0.44012255859375,0.541477620601654,-0.20615769922733307,0.1545349806547165
1761315429079170600,0.450170654296875,0.5118606090545654,-0.176108717918396,0.13779248297214508
1761315429089218600,0.460218505859375,0.47638463973999023,-0.1190267875790596,0.11627787351608276
1761315429099266600,0.4702666015625,0.4495951235294342,-0.045157622545957565,0.08266212046146393
1761315429109314600,0.480314453125,0.42538538575172424,0.02088371105492115,0.0282145943492651
1761315429119362600,0.490362548828125,0.39285728335380554,0.07147151976823807,-0.026557840406894684
1761315429129410600,0.50041064453125,0.35938745737075806,0.12437361478805542,-0.07571819424629211
1761315429139458600,0.51045849609375,0.3127802908420563,0.20211660861968994,-0.12022361159324646
1761315429149505500,0.520505615234375,0.2758773863315582,0.3124242126941681,-0.14940519630908966
1761315429159553500,0.530553466796875,0.2394421547651291,0.4348366856575012,-0.15741784870624542
1761315429169601500,0.5406015625,0.22932399809360504,0.49850061535835266,-0.14745496213436127
1761315429179649500,0.5506494140625,0.2530018985271454,0.5368716716766357,-0.11753088980913162
1761315429189697500,0.560697509765625,0.3282311260700226,0.5734086632728577,-0.07884581387042999
1761315429199745500,0.57074560546875,0.43840450048446655,0.5936316251754761,-0.03008226864039898
1761315429209793500,0.58079345703125,0.5270534157752991,0.6050752401351929,0.03092862106859684
1761315429219841500,0.590841552734375,0.5548450946807861,0.5957411527633667,0.11386477947235107
1761315429229889500,0.6008896484375,0.5643246173858643,0.5375731587409973,0.227979376912117
1761315429239937500,0.6109375,0.5885804295539856,0.45794227719306946,0.39298510551452637
1761315429249985500,0.620985595703125,0.6342619061470032,0.4554796516895294,0.5933717489242554
1761315429260033500,0.631033447265625,0.6888250112533569,0.5380288362503052,0.8012599349021912
1761315429270081500,0.64108154296875,0.7677589654922485,0.6393733024597168,0.9656129479408264
1761315429280129800,0.6511298828125,0.8532866835594177,0.7504151463508606,1.0750784873962402
1761315429290177500,0.661177490234375,0.941877007484436,0.8590201735496521,1.127259373664856
1761315429300225500,0.6712255859375,1.0147876739501953,0.968861997127533,1.137070655822754
1761315429310273500,0.6812734375,1.0584509372711182,1.0787019729614258,1.1240744590759277
1761315429320320500,0.691320556640625,1.0382530689239502,1.1042802333831787,1.0735231637954712
1761315429330368500,0.701368408203125,0.9463130235671997,1.0273380279541016,0.9746538400650024
1761315429340416800,0.711416748046875,0.7971270084381104,0.9198105335235596,0.8363652229309082
1761315429350464500,0.721464599609375,0.6288782954216003,0.7890693545341492,0.6388060450553894
1761315429360512500,0.731512451171875,0.4563869833946228,0.6192600727081299,0.39396488666534424
1761315429370560800,0.741560791015625,0.2869577407836914,0.46858078241348267,0.1516646295785904
1761315429380608500,0.7516083984375,0.12925200164318085,0.3154650032520294,-0.0657808780670166
1761315429390656500,0.761656494140625,-0.0021262678783386946,0.16257479786872864,-0.2369329184293747
1761315429400704500,0.77170458984375,-0.12762214243412018,0.030060963705182076,-0.3344312310218811
1761315429410752500,0.78175244140625,-0.22905901074409485,-0.09643545746803284,-0.3452282249927521
1761315429420800500,0.791800537109375,-0.2877042293548584,-0.2307130992412567,-0.2841646075248718
1761315429430848500,0.8018486328125,-0.28850850462913513,-0.3086142838001251,-0.1655929535627365
1761315429440896500,0.811896484375,-0.22591249644756317,-0.3297853469848633,-0.019537216052412987
1761315429450944800,0.82194482421875,-0.13062351942062378,-0.33573833107948303,0.13158199191093445
1761315429460992500,0.831992431640625,-0.006853911560028791,-0.461191326379776,0.21046322584152222
1761315429471040500,0.84204052734375,0.1323452591896057,-0.44084903597831726,0.23743918538093567
1761315429481088500,0.852088623046875,0.25597211718559265,-0.37286412715911865,0.19250845909118652
1761315429491135500,0.862135498046875,0.35040754079818726,-0.38019847869873047,0.10774483531713486
1761315429501183500,0.87218359375,0.40862077474594116,-0.43428006768226624,0.04181216284632683
1761315429511234300,0.882234375,0.38528111577033997,-0.4103017747402191,0.044553618878126144
1761315429521282600,0.892282470703125,0.2554738521575928,-0.23297493159770966,0.12134027481079102
1761315429531330300,0.902330322265625,0.053404368460178375,0.001528920722194016,0.2147115021944046
1761315429541378600,0.912378662109375,-0.17611750960350037,0.17598994076251984,0.27145814895629883
1761315429551426300,0.92242626953125,-0.33281683921813965,0.2827414274215698,0.27818500995635986
1761315429561474300,0.932474365234375,-0.4034164249897003,0.2868000864982605,0.20793534815311432
1761315429571522600,0.9425224609375,-0.42516326904296875,0.13987614214420319,0.06838784366846085
1761315429581570300,0.9525703125,-0.4167753756046295,-0.10994168370962143,-0.08211085200309753
1761315429591618300,0.962618408203125,-0.3829588294029236,-0.3890191316604614,-0.22534124553203583
1761315429601666600,0.97266650390625,-0.324424684047699,-0.6179670691490173,-0.336416631937027
1761315429611714300,0.98271435546875,-0.23751269280910492,-0.7544945478439331,-0.4057227373123169
1761315429621762300,0.99276220703125,-0.16224589943885803,-0.793580174446106,-0.4276605248451233
1761315429631810300,1.002810302734375,-0.11834661662578583,-0.726695716381073,-0.40393441915512085
1761315429641858300,1.0128583984375,-0.1055447980761528,-0.5676783323287964,-0.3459811210632324
1761315429651906600,1.022906494140625,-0.08919938653707504,-0.36779293417930603,-0.2713651955127716
1761315429661953500,1.03295361328125,-0.07585135102272034,-0.1685037910938263,-0.201569065451622
1761315429672001300,1.043001220703125,-0.049069806933403015,0.010509898886084557,-0.1542297899723053
1761315429682049300,1.05304931640625,-0.011372496373951435,0.1475449800491333,-0.13900423049926758
1761315429692097500,1.06309765625,0.039676304906606674,0.2246253788471222,-0.1601281464099884
1761315429702145300,1.073145263671875,0.0919906422495842,0.22588665783405304,-0.20385272800922394
1761315429712193500,1.083193603515625,0.14432735741138458,0.19509172439575195,-0.2461778223514557
1761315429722241300,1.0932412109375,0.18073755502700806,0.1604709029197693,-0.2723526954650879
1761315429732289300,1.103289306640625,0.19172975420951843,0.1045602336525917,-0.3019052743911743
1761315429742337500,1.113337646484375,0.19708271324634552,0.012034025974571705,-0.3557407855987549
1761315429752385300,1.12338525390625,0.19790269434452057,-0.1386505514383316,-0.4011958837509155
1761315429762433300,1.133433349609375,0.18996195495128632,-0.3177073895931244,-0.3796274960041046
1761315429772481500,1.1434814453125,0.14507703483104706,-0.4532244801521301,-0.3150722086429596
1761315429782529300,1.153529296875,0.070186547935009,-0.5574326515197754,-0.24012631177902222
1761315429792577500,1.16357763671875,0.001457548001781106,-0.6122657656669617,-0.1546923667192459
1761315429802625500,1.17362548828125,-0.056712549179792404,-0.5765290856361389,-0.07720876485109329
1761315429812673300,1.18367333984375,-0.10891130566596985,-0.5258702039718628,-0.034576885402202606
1761315429822721500,1.193721435546875,-0.16221660375595093,-0.503375768661499,-0.029928604140877724
1761315429832768500,1.2037685546875,-0.2112390100955963,-0.44886380434036255,-0.031795747578144073
1761315429842816300,1.213816162109375,-0.2481893002986908,-0.33462485671043396,-0.019507121294736862
1761315429852864500,1.223864501953125,-0.25239577889442444,-0.2046399563550949,-0.007837682962417603
1761315429862912500,1.23391259765625,-0.23528414964675903,-0.06910210847854614,-0.004915129859000444
1761315429872960300,1.243960205078125,-0.20001831650733948,0.052255481481552124,-0.028915271162986755
1761315429883008500,1.254008544921875,-0.14796602725982666,0.15853291749954224,-0.07352454960346222
1761315429893056500,1.264056396484375,-0.09447590261697769,0.24311570823192596,-0.1438024491071701
1761315429903104300,1.274104248046875,-0.04807911068201065,0.27333831787109375,-0.23001696169376373
1761315429913152500,1.284152587890625,-0.010232397355139256,0.2523379623889923,-0.30863428115844727
1761315429923200300,1.2942001953125,0.018095113337039948,0.2120366245508194,-0.35380280017852783
1761315429933248300,1.304248291015625,0.03117549605667591,0.1502811163663864,-0.360512912273407
1761315429943296500,1.314296630859375,0.030303843319416046,0.07710383832454681,-0.32532110810279846
1761315429953344300,1.32434423828125,0.022823290899395943,-0.012237757444381714,-0.22834715247154236
1761315429963392500,1.334392578125,0.0028690234757959843,-0.02178359217941761,-0.06634839624166489
1761315429973440500,1.3444404296875,-0.027051057666540146,0.009488310664892197,0.10123687237501144
1761315429983488300,1.35448828125,-0.04143931716680527,0.024400681257247925,0.2439388930797577
1761315429993535200,1.36453515625,-0.033784862607717514,0.03350389748811722,0.338543176651001
1761315430003583500,1.37458349609375,-0.005886384751647711,0.021706094965338707,0.3817766606807709
1761315430013631200,1.38463134765625,0.024384435266256332,-0.015307850204408169,0.3777238428592682
1761315430023679500,1.394679443359375,0.05595754086971283,-0.07100226730108261,0.339962899684906
1761315430033727500,1.4047275390625,0.08243388682603836,-0.12605567276477814,0.2887689471244812
1761315430043775200,1.414775146484375,0.09672654420137405,-0.16571572422981262,0.2606595456600189
1761315430053823500,1.424823486328125,0.08872214704751968,-0.15095116198062897,0.2536002993583679
1761315430063871500,1.43487158203125,0.07737068831920624,-0.08014729619026184,0.267112135887146
1761315430073919200,1.444919189453125,0.060848169028759,-0.027655063197016716,0.2572038471698761
1761315430083967500,1.454967529296875,0.044924598187208176,-0.012520851567387581,0.22234971821308136
1761315430094015200,1.46501513671875,0.029816750437021255,0.0114369448274374,0.1815492808818817
1761315430104063200,1.475063232421875,0.015504657290875912,0.06572708487510681,0.1374790370464325
1761315430114111500,1.485111572265625,-0.0038839541375637054,0.07797442376613617,0.08400914818048477
1761315430124159200,1.4951591796875,-0.013609285466372967,0.06169532239437103,0.04198366776108742
1761315430134207500,1.50520751953125,-0.004294879734516144,0.04577068239450455,0.03340056538581848
1761315430144255500,1.51525537109375,0.028542695567011833,0.037223268300294876,0.05236866697669029
1761315430154302500,1.525302490234375,0.06811486929655075,0.05267493054270744,0.09477657824754715
1761315430164350200,1.53535009765625,0.10608275979757309,0.053519416600465775,0.13343502581119537
1761315430174398500,1.5453984375,0.12727725505828857,0.029795179143548012,0.17051634192466736
1761315430184446200,1.5554462890625,0.1278514415025711,0.022900521755218506,0.2038750946521759
1761315430194494500,1.565494384765625,0.1034020185470581,0.017651963979005814,0.21794883906841278
1761315430204542500,1.57554248046875,0.050883419811725616,0.025413215160369873,0.21696454286575317
1761315430214590200,1.585590087890625,-0.01145931612700224,0.06316059082746506,0.2052423655986786
1761315430224638500,1.595638427734375,-0.06566289812326431,0.11167886108160019,0.19118113815784454
1761315430234686500,1.6056865234375,-0.08938660472631454,0.14340829849243164,0.18690836429595947
1761315430244734200,1.615734130859375,-0.09616567939519882,0.1522931307554245,0.1918935328722
1761315430254782500,1.625782470703125,-0.08668429404497147,0.12749190628528595,0.20900781452655792
1761315430264830500,1.63583056640625,-0.06391799449920654,0.07310350239276886,0.2541324198246002
1761315430274878500,1.64587841796875,-0.0361739844083786,0.04669879749417305,0.3302881717681885
1761315430284926500,1.655926513671875,-0.00814927276223898,0.03382107987999916,0.4042164385318756
1761315430294974200,1.66597412109375,0.019648004323244095,0.009551427327096462,0.4540548622608185
1761315430305022500,1.6760224609375,0.04344441369175911,-0.00045673211570829153,0.4547366201877594
1761315430315069400,1.6860693359375,0.05974135920405388,-0.013173059560358524,0.4017977714538574
1761315430325117400,1.696117431640625,0.06254833191633224,-0.05308905243873596,0.2993249297142029
1761315430335165400,1.70616552734375,0.04372910410165787,-0.08248049765825272,0.16779112815856934
1761315430345213400,1.71621337890625,0.0288753230124712,-0.09365485608577728,0.033915091305971146
1761315430355261400,1.726261474609375,0.011392470449209213,-0.10680288076400757,-0.08838978409767151
1761315430365309400,1.736309326171875,-0.004475708585232496,-0.13601616024971008,-0.20713694393634796
1761315430375357400,1.746357421875,-0.030339529737830162,-0.17363996803760529,-0.31251102685928345
1761315430385405200,1.7564052734375,-0.060030046850442886,-0.23134134709835052,-0.4036444127559662
1761315430395453400,1.766453369140625,-0.11116354167461395,-0.31639498472213745,-0.47636866569519043
1761315430405501400,1.77650146484375,-0.17165803909301758,-0.4073888063430786,-0.5181427597999573
1761315430415549200,1.786549072265625,-0.2372780591249466,-0.5016122460365295,-0.539525032043457
1761315430425597400,1.796597412109375,-0.3026685118675232,-0.5731441974639893,-0.534077525138855
1761315430435645400,1.8066455078125,-0.3601347506046295,-0.5836149454116821,-0.49434927105903625
1761315430445693400,1.816693359375,-0.4046902358531952,-0.5200034976005554,-0.41729071736335754
1761315430455741400,1.826741455078125,-0.4307119846343994,-0.3845420777797699,-0.3230944275856018
1761315430465789400,1.83678955078125,-0.43505504727363586,-0.22077712416648865,-0.216455340385437
1761315430475836200,1.846836181640625,-0.40485507249832153,-0.07540873438119888,-0.12255334854125977
1761315430485884400,1.856884521484375,-0.3550667464733124,0.03766162320971489,-0.050995271652936935
1761315430495932400,1.866932373046875,-0.28627118468284607,0.13334128260612488,-0.01738058775663376
1761315430505976800,1.876976806640625,-0.21700447797775269,0.18784339725971222,-0.018157165497541428
1761315430516024800,1.88702490234375,-0.14653830230236053,0.17172861099243164,-0.03550872579216957
1761315430526073000,1.897072998046875,-0.09265110641717911,0.10919546335935593,-0.044975463300943375
1761315430536120800,1.907120849609375,-0.06939905136823654,0.033302828669548035,-0.04662476107478142
1761315430546168800,1.9171689453125,-0.07124222069978714,-0.038180939853191376,-0.033663686364889145
1761315430556216800,1.927216796875,-0.0739128366112709,-0.1077919751405716,-0.008311991579830647
1761315430566264800,1.937264892578125,-0.08075183629989624,-0.16105999052524567,0.01582503505051136
1761315430576312800,1.947312744140625,-0.08010468631982803,-0.20670604705810547,0.034743331372737885
1761315430586360800,1.95736083984375,-0.07559515535831451,-0.25328952074050903,0.038952458649873734
1761315430596408800,1.967408935546875,-0.06070249527692795,-0.2961229979991913,0.022820893675088882
1761315430606457000,1.97745703125,-0.038183338940143585,-0.3158048391342163,-0.008613461628556252
1761315430616504800,1.9875048828125,-0.02202221192419529,-0.31652653217315674,-0.05380330979824066
1761315430626551800,1.9975517578125,-0.019507920369505882,-0.2954058051109314,-0.10751554369926453
1761315430636599800,2.007599853515625,-0.02166428230702877,-0.27614903450012207,-0.15089204907417297
1761315430646647800,2.017647705078125,-0.028959212824702263,-0.2501294016838074,-0.1728849560022354
1761315430656695800,2.02769580078125,-0.044432446360588074,-0.20541493594646454,-0.17384609580039978
1761315430666744000,2.037744140625,-0.07153143733739853,-0.18151679635047913,-0.1528470665216446
1761315430676791800,2.047791748046875,-0.10072607547044754,-0.16168449819087982,-0.12461383640766144
1761315430686839800,2.05783984375,-0.13749581575393677,-0.13283075392246246,-0.07600262016057968
1761315430696888000,2.06788818359375,-0.1754290759563446,-0.10047787427902222,-0.034993402659893036
1761315430706935800,2.077935791015625,-0.1993005871772766,-0.06269747018814087,-0.0009113337146118283
1761315430716983800,2.08798388671875,-0.216140016913414,0.0067513794638216496,0.02694692835211754
1761315430727032000,2.098031982421875,-0.21590246260166168,0.09840433299541473,0.04809296131134033
1761315430737079800,2.108079833984375,-0.19802892208099365,0.1669463813304901,0.06552547961473465
1761315430747127800,2.1181279296875,-0.17150597274303436,0.18186700344085693,0.08267437666654587
1761315430757175800,2.12817578125,-0.15213121473789215,0.17001619935035706,0.10897175967693329
1761315430767223800,2.138223876953125,-0.14460432529449463,0.13515329360961914,0.1354409158229828
1761315430777270800,2.148270751953125,-0.1585659384727478,0.05162378028035164,0.154703289270401
1761315430787319000,2.158319091796875,-0.17779690027236938,-0.04723142832517624,0.16845479607582092
1761315430797366800,2.16836669921875,-0.21475118398666382,-0.1401001214981079,0.17925098538398743
1761315430807414800,2.178414794921875,-0.25597772002220154,-0.22622035443782806,0.16613277792930603
1761315430817463000,2.188463134765625,-0.2771975100040436,-0.28369617462158203,0.14300376176834106
1761315430827510800,2.1985107421875,-0.2787511944770813,-0.298941433429718,0.12155759334564209
1761315430837559000,2.20855908203125,-0.27359986305236816,-0.2754584848880768,0.10856775939464569
1761315430847606800,2.218606689453125,-0.2589455544948578,-0.21689821779727936,0.10668063908815384
1761315430857654800,2.22865478515625,-0.23103667795658112,-0.15140283107757568,0.11019281297922134
1761315430867703000,2.238703125,-0.20081299543380737,-0.11512712389230728,0.10699009895324707
1761315430877750800,2.248750732421875,-0.16740363836288452,-0.10865217447280884,0.09629111737012863
1761315430887798800,2.258798828125,-0.14740464091300964,-0.10063233226537704,0.07912357896566391
1761315430897847000,2.268846923828125,-0.13962021470069885,-0.08292284607887268,0.055026501417160034
1761315430907894800,2.278894775390625,-0.1448242962360382,-0.06777691841125488,0.007755657657980919
1761315430917943000,2.288943115234375,-0.15834969282150269,-0.06706292182207108,-0.0513145849108696
1761315430927990000,2.298989990234375,-0.17535078525543213,-0.06397418677806854,-0.11381524801254272
1761315430938037800,2.309037841796875,-0.20092378556728363,-0.05228424444794655,-0.16874773800373077
1761315430948085800,2.319085693359375,-0.23446150124073029,-0.025490712374448776,-0.21170425415039062
1761315430958134000,2.329134033203125,-0.2682322561740875,0.0168538149446249,-0.24597035348415375
1761315430968181800,2.339181640625,-0.29534322023391724,0.055328767746686935,-0.2609911262989044
1761315430978230000,2.34922998046875,-0.3055380880832672,0.08489464968442917,-0.25378140807151794
1761315430988278000,2.359278076171875,-0.30073294043540955,0.12964268028736115,-0.22073104977607727
1761315430998325800,2.36932568359375,-0.28674229979515076,0.18681888282299042,-0.16003361344337463
1761315431008374000,2.3793740234375,-0.2608265280723572,0.2386634349822998,-0.0834387019276619
1761315431018422000,2.389422119140625,-0.22797724604606628,0.26397705078125,-0.0011270497925579548
1761315431028469800,2.3994697265625,-0.198806032538414,0.26097965240478516,0.07991667091846466
1761315431038518000,2.40951806640625,-0.18720796704292297,0.2374221384525299,0.15571875870227814
1761315431048565800,2.419565673828125,-0.18502125144004822,0.18324066698551178,0.21411308646202087
1761315431058613800,2.42961376953125,-0.19527655839920044,0.11548877507448196,0.2590954899787903
1761315431068661000,2.439660888671875,-0.21752752363681793,0.03357180953025818,0.283400297164917
1761315431078709000,2.449708984375,-0.24694667756557465,-0.060451626777648926,0.29489341378211975
1761315431088756700,2.4597568359375,-0.28073951601982117,-0.14673244953155518,0.3043884038925171
1761315431098805000,2.469804931640625,-0.32048001885414124,-0.21659782528877258,0.3008487820625305
1761315431108852700,2.479852783203125,-0.34923896193504333,-0.2852866053581238,0.2896736264228821
1761315431118900700,2.489900634765625,-0.3756053149700165,-0.3441368639469147,0.2451610267162323
1761315431128949000,2.499948974609375,-0.39108148217201233,-0.38890594244003296,0.18256156146526337
1761315431138996700,2.509996826171875,-0.398053377866745,-0.422005832195282,0.11548957973718643
1761315431149045000,2.520044921875,-0.41063573956489563,-0.4224465787410736,0.049068208783864975
1761315431159093000,2.530093017578125,-0.4411790072917938,-0.4199434816837311,-0.012086490169167519
1761315431169140700,2.540140625,-0.4838279187679291,-0.3953297436237335,-0.08128499984741211
1761315431179189000,2.55018896484375,-0.5420864224433899,-0.36482003331184387,-0.13326245546340942
1761315431189237000,2.560237060546875,-0.5788897275924683,-0.3043079674243927,-0.1683029979467392
1761315431199284700,2.57028466796875,-0.5994580984115601,-0.20637980103492737,-0.1997048556804657
1761315431209332000,2.58033203125,-0.589073896408081,-0.12517096102237701,-0.2531166672706604
1761315431219380000,2.5903798828125,-0.5539476275444031,-0.10839678347110748,-0.33353668451309204
1761315431229427700,2.600427734375,-0.5023819208145142,-0.12838274240493774,-0.4191858172416687
1761315431239476000,2.61047607421875,-0.459177702665329,-0.17279787361621857,-0.4929756224155426
1761315431249524000,2.62052392578125,-0.42523491382598877,-0.22582806646823883,-0.5509896278381348
1761315431259571700,2.63057177734375,-0.40386784076690674,-0.2581886649131775,-0.5710933208465576
1761315431269620000,2.640619873046875,-0.38576793670654297,-0.26306918263435364,-0.5567628741264343
1761315431279668000,2.65066796875,-0.35711923241615295,-0.24459031224250793,-0.5111716389656067
1761315431289716000,2.660716064453125,-0.32911184430122375,-0.20181061327457428,-0.43626493215560913
1761315431299764000,2.670763916015625,-0.29309818148612976,-0.16357162594795227,-0.34174054861068726
1761315431309811700,2.680811767578125,-0.2482612133026123,-0.15067073702812195,-0.24961994588375092
1761315431319860000,2.69085986328125,-0.19955198466777802,-0.17058612406253815,-0.1738271862268448
1761315431329908000,2.700907958984375,-0.1736072152853012,-0.23220260441303253,-0.1255137175321579
1761315431339955000,2.710954833984375,-0.15250112116336823,-0.30589255690574646,-0.09953378140926361
1761315431350003000,2.7210029296875,-0.14795590937137604,-0.35049062967300415,-0.08777619153261185
1761315431360051000,2.731051025390625,-0.16104161739349365,-0.3864622116088867,-0.10541857033967972
1761315431370099000,2.741098876953125,-0.18678639829158783,-0.40861251950263977,-0.13720819354057312
1761315431380147000,2.75114697265625,-0.2321120649576187,-0.40339139103889465,-0.17888478934764862
1761315431390195000,2.76119482421875,-0.2939820885658264,-0.37339887022972107,-0.23348918557167053
1761315431400242700,2.77124267578125,-0.3607097268104553,-0.3179958164691925,-0.28201383352279663
1761315431410291000,2.781291015625,-0.4283132553100586,-0.2416299283504486,-0.3105538785457611
1761315431420339000,2.7913388671875,-0.4872862994670868,-0.15494057536125183,-0.32632964849472046
1761315431430386700,2.80138671875,-0.5278031229972839,-0.07259058207273483,-0.3279797434806824
1761315431440435000,2.81143505859375,-0.5442068576812744,-0.017580857500433922,-0.33053505420684814
1761315431450483000,2.82148291015625,-0.5394017100334167,0.00680118054151535,-0.3375934958457947
1761315431460531000,2.831531005859375,-0.5172119736671448,0.009912551380693913,-0.3525404632091522
1761315431470579000,2.841578857421875,-0.4774933159351349,0.004195543937385082,-0.3704369068145752
1761315431480626000,2.8516259765625,-0.42449110746383667,0.013617807999253273,-0.3846174478530884
1761315431490673700,2.861673583984375,-0.3634818196296692,0.034437600523233414,-0.3894460201263428
1761315431500722000,2.871721923828125,-0.2979632616043091,0.05235907807946205,-0.3798013925552368
1761315431510769400,2.881769287109375,-0.22027137875556946,0.0849284753203392,-0.34139060974121094
1761315431520817200,2.891817138671875,-0.13001765310764313,0.11272308230400085,-0.27333566546440125
1761315431530865200,2.901865234375,-0.038664571940898895,0.09807170182466507,-0.18067842721939087
1761315431540913400,2.911913330078125,0.04454749450087547,0.06787678599357605,-0.07024513185024261
1761315431550961200,2.921961181640625,0.1175663098692894,0.02142912521958351,0.06436754018068314
1761315431561009200,2.932009033203125,0.1805841624736786,-0.03545146808028221,0.20319093763828278
1761315431571057400,2.942057373046875,0.23035463690757751,-0.0732683539390564,0.34389665722846985
1761315431581105200,2.952105224609375,0.2686479687690735,-0.09186574071645737,0.4618227481842041
1761315431591153200,2.962153076171875,0.2899665832519531,-0.10434504598379135,0.549405574798584
1761315431601200400,2.972200439453125,0.2946595847606659,-0.11109402775764465,0.6053645014762878
1761315431611248000,2.982248046875,0.28683337569236755,-0.09988505393266678,0.6225376129150391
1761315431621296000,2.992296142578125,0.2610512971878052,-0.06634360551834106,0.6206398606300354
1761315431631344400,3.002344482421875,0.24113938212394714,0.026752784848213196,0.612535834312439
1761315431641392000,3.01239208984375,0.22139683365821838,0.15517041087150574,0.5922526717185974
1761315431651440000,3.022440185546875,0.20697075128555298,0.21789024770259857,0.5373324155807495
1761315431661488400,3.03248828125,0.18916140496730804,0.22883984446525574,0.43727827072143555
1761315431671536000,3.0425361328125,0.15536722540855408,0.2170793116092682,0.3268372416496277
1761315431681584400,3.05258447265625,0.09236375242471695,0.16565313935279846,0.20705145597457886
1761315431691632400,3.06263232421875,0.009498164057731628,0.0545806884765625,0.09310997277498245
1761315431701680000,3.07268017578125,-0.08576710522174835,-0.07470592856407166,-0.00007669904152862728
1761315431711728400,3.082728271484375,-0.17424264550209045,-0.1869373917579651,-0.05830991268157959
1761315431721776000,3.092776123046875,-0.2551572024822235,-0.25423282384872437,-0.07177218794822693
1761315431731823000,3.102822998046875,-0.3220573961734772,-0.27097582817077637,-0.037575073540210724
1761315431741871400,3.112871337890625,-0.3626956343650818,-0.23582583665847778,0.03947896510362625
1761315431751919400,3.12291943359375,-0.3612109422683716,-0.1602991223335266,0.14611007273197174
1761315431761967000,3.132967041015625,-0.32310348749160767,-0.04881707578897476,0.26276639103889465
1761315431772015400,3.143015380859375,-0.26193520426750183,0.07391443848609924,0.3697793781757355
1761315431782063400,3.1530634765625,-0.17742405831813812,0.18867377936840057,0.46465396881103516
1761315431792111000,3.163111083984375,-0.09131606668233871,0.2818002700805664,0.5281953811645508
1761315431802159400,3.173159423828125,-0.017127588391304016,0.35192635655403137,0.5740337371826172
1761315431812207000,3.18320703125,0.03989521786570549,0.39232996106147766,0.5966575145721436
1761315431822255400,3.19325537109375,0.07943756878376007,0.4330108165740967,0.6064733862876892
1761315431832303400,3.203303466796875,0.11575376242399216,0.46944525837898254,0.5979717969894409
1761315431842351000,3.21335107421875,0.13772644102573395,0.48085105419158936,0.5747610330581665
1761315431852398000,3.223398193359375,0.16073481738567352,0.4651338756084442,0.5391074419021606
1761315431862446300,3.2334462890625,0.18060599267482758,0.42466339468955994,0.4856788218021393
1761315431872494300,3.243494384765625,0.20285990834236145,0.3413117825984955,0.4224037230014801
1761315431882542300,3.253542236328125,0.22196994721889496,0.23614728450775146,0.3531703054904938
1761315431892590300,3.26359033203125,0.2355898916721344,0.1192837804555893,0.2583963871002197
1761315431902638000,3.27363818359375,0.24457086622714996,-0.0026618295814841986,0.13199372589588165
1761315431912686300,3.283686279296875,0.25013846158981323,-0.11295850574970245,-0.040102411061525345
1761315431922734300,3.293734375,0.2564392387866974,-0.22544457018375397,-0.2559124827384949
1761315431932782000,3.303781982421875,0.2610555589199066,-0.3538089394569397,-0.4961264133453369
1761315431942830300,3.313830322265625,0.24488139152526855,-0.464522123336792,-0.7011908888816833
1761315431952878300,3.32387841796875,0.20618672668933868,-0.5149579048156738,-0.8479150533676147
1761315431962926000,3.333926025390625,0.15535922348499298,-0.5111356973648071,-0.9318211674690247
1761315431972973300,3.343973388671875,0.10462547838687897,-0.4856146275997162,-0.9526406526565552
1761315431983021300,3.354021240234375,0.061521951109170914,-0.3917829394340515,-0.901839554309845
1761315431993069000,3.364069091796875,0.039270441979169846,-0.19873785972595215,-0.7876783609390259
1761315432003117300,3.374117431640625,0.04504896700382233,0.03879506513476372,-0.6374595761299133
1761315432013165300,3.384165283203125,0.07271867990493774,0.25538942217826843,-0.4712394177913666
1761315432023213000,3.394213134765625,0.11808722466230392,0.42570096254348755,-0.31292569637298584
1761315432033261300,3.40426123046875,0.16859540343284607,0.529525637626648,-0.18652194738388062
1761315432043309300,3.414309326171875,0.20669299364089966,0.5804311633110046,-0.10090450942516327
1761315432053357300,3.424357421875,0.23234163224697113,0.5862541794776917,-0.05517616868019104
1761315432063405300,3.4344052734375,0.23829858005046844,0.560230553150177,-0.035897012799978256
1761315432073453300,3.444453369140625,0.22384826838970184,0.487678587436676,-0.03844379633665085
1761315432083501300,3.454501220703125,0.18028029799461365,0.3878859579563141,-0.053829144686460495
1761315432093548300,3.46454833984375,0.11461659520864487,0.2841843068599701,-0.07127604633569717
1761315432103596300,3.47459619140625,0.02424968034029007,0.18066778779029846,-0.09544263035058975
1761315432113644300,3.484644287109375,-0.09370864927768707,0.0802607536315918,-0.13596555590629578
1761315432123692300,3.4946923828125,-0.20908904075622559,-0.018031997606158257,-0.1976558268070221
1761315432133740300,3.504740234375,-0.3193516135215759,-0.10754670202732086,-0.279446542263031
1761315432143788300,3.514788330078125,-0.4208122193813324,-0.17990770936012268,-0.3869916498661041
1761315432153836300,3.524836181640625,-0.534900963306427,-0.23285268247127533,-0.5128507614135742
1761315432163884300,3.53488427734375,-0.662298858165741,-0.2670503258705139,-0.6399165987968445
1761315432173932300,3.544932373046875,-0.7947139143943787,-0.2892025113105774,-0.7779889702796936
1761315432183980300,3.554980224609375,-0.9301015734672546,-0.30999407172203064,-0.9328382015228271
1761315432194028300,3.5650283203125,-1.058138370513916,-0.34788978099823,-1.1109248399734497
1761315432204075300,3.5750751953125,-1.153501033782959,-0.40966421365737915,-1.2718199491500854
1761315432214123300,3.585123291015625,-1.2069270610809326,-0.4974992573261261,-1.3660393953323364
1761315432224171300,3.595171142578125,-1.214087963104248,-0.5931240320205688,-1.3422526121139526
1761315432234219300,3.60521923828125,-1.1927366256713867,-0.6679660677909851,-1.1806986331939697
1761315432244267300,3.615267333984375,-1.1666924953460693,-0.7261228561401367,-0.9078779816627502
1761315432254315300,3.625315185546875,-1.1307328939437866,-0.7408863306045532,-0.5667116045951843
1761315432264363300,3.63536328125,-1.0905652046203613,-0.7081076502799988,-0.20130807161331177
1761315432274411300,3.645411376953125,-1.0356402397155762,-0.6229978203773499,0.14435797929763794
1761315432284459300,3.655459228515625,-0.9636110663414001,-0.49399372935295105,0.44541794061660767
1761315432294507300,3.66550732421875,-0.8752036690711975,-0.32972702383995056,0.6818773746490479
1761315432304555300,3.67555517578125,-0.7821387052536011,-0.19268476963043213,0.8256366848945618
1761315432314602500,3.6856025390625,-0.7171466946601868,-0.09032882750034332,0.8507971167564392
1761315432324650200,3.695650146484375,-0.6866840720176697,-0.02606116235256195,0.7504388689994812
1761315432334698200,3.7056982421875,-0.7092669010162354,-0.03145832195878029,0.562687337398529
1761315432344746200,3.715746337890625,-0.7773985266685486,-0.060319799929857254,0.36702755093574524
1761315432354794200,3.725794189453125,-0.8971071243286133,-0.06379495561122894,0.23055331408977509
1761315432364842200,3.73584228515625,-1.028120517730713,-0.03407061845064163,0.17875589430332184
1761315432374890200,3.74589013671875,-1.1353870630264282,0.012020443566143513,0.1929928958415985
1761315432384938200,3.755938232421875,-1.2078604698181152,0.04959098994731903,0.26863783597946167
1761315432394986200,3.765986328125,-1.2370692491531372,0.04198287054896355,0.35725799202919006
1761315432405034200,3.7760341796875,-1.2406314611434937,-0.009271794930100441,0.46740686893463135
1761315432415082200,3.786082275390625,-1.2326537370681763,-0.08573301136493683,0.5624090433120728
1761315432425129200,3.796129150390625,-1.219547152519226,-0.19375136494636536,0.6415781378746033
1761315432435177200,3.80617724609375,-1.2166705131530762,-0.2938193678855896,0.7189834713935852
1761315432445225200,3.81622509765625,-1.2337466478347778,-0.37729933857917786,0.7870117425918579
1761315432455273200,3.826273193359375,-1.2717957496643066,-0.4546892046928406,0.8434593081474304
1761315432465321200,3.8363212890625,-1.3160969018936157,-0.5106832385063171,0.8948351740837097
1761315432475369200,3.846369140625,-1.3534597158432007,-0.5501201152801514,0.9203959107398987
1761315432485417500,3.85641748046875,-1.3755756616592407,-0.580547571182251,0.909304678440094
1761315432495465200,3.86646533203125,-1.365074872970581,-0.6071671843528748,0.8501873016357422
1761315432505513200,3.87651318359375,-1.3285006284713745,-0.6597169041633606,0.7402722239494324
1761315432515561500,3.8865615234375,-1.2699224948883057,-0.7292203903198242,0.5993563532829285
1761315432525609500,3.896609375,-1.1919057369232178,-0.7684285044670105,0.44815728068351746
1761315432535656400,3.906656494140625,-1.1148676872253418,-0.7749875783920288,0.2946625351905823
1761315432545704700,3.91670458984375,-1.066827416419983,-0.7874535918235779,0.12190087139606476
1761315432555752400,3.92675244140625,-1.078097939491272,-0.840643584728241,-0.0717673972249031
1761315432565800700,3.93680078125,-1.149515151977539,-0.9102519154548645,-0.26528680324554443
1761315432575848700,3.9468486328125,-1.2923215627670288,-0.9762051105499268,-0.4570847153663635
1761315432585896400,3.956896484375,-1.470813512802124,-1.0342868566513062,-0.6179508566856384
1761315432595944700,3.96694482421875,-1.6413568258285522,-1.0443171262741089,-0.7401587963104248
1761315432605992400,3.976992431640625,-1.77444589138031,-1.0113551616668701,-0.8093527555465698
1761315432616040400,3.98704052734375,-1.8459330797195435,-0.9301306009292603,-0.7961767911911011
1761315432626088700,3.997088623046875,-1.861140251159668,-0.794244110584259,-0.6846760511398315
1761315432636135700,4.0071357421875,-1.8329477310180664,-0.603422224521637,-0.4812084436416626
1761315432646183400,4.017183349609375,-1.7797056436538696,-0.3740292489528656,-0.22805607318878174
1761315432656231700,4.027231689453125,-1.7135510444641113,-0.183467835187912,0.022710105404257774
1761315432666279700,4.03727978515625,-1.6344355344772339,-0.06908612698316574,0.22368395328521729
1761315432676327400,4.047327392578125,-1.5559464693069458,-0.03339497372508049,0.35356685519218445
1761315432686375700,4.057375732421875,-1.4900010824203491,-0.04284759983420372,0.41039684414863586
1761315432696423400,4.06742333984375,-1.4412617683410645,-0.07148829847574234,0.4053072929382324
1761315432706471400,4.077471435546875,-1.4165455102920532,-0.10132182389497757,0.359840452671051
1761315432716519700,4.087519775390625,-1.4045345783233643,-0.13977786898612976,0.2724775969982147
1761315432726567400,4.0975673828125,-1.3985081911087036,-0.19165918231010437,0.15989433228969574
1761315432736614400,4.107614501953125,-1.3798003196716309,-0.20583225786685944,0.04193306714296341
1761315432746662700,4.11766259765625,-1.3485246896743774,-0.20084735751152039,-0.086233951151371
1761315432756710700,4.127710693359375,-1.2934839725494385,-0.2051219940185547,-0.22758948802947998
1761315432766758400,4.13775830078125,-1.2044936418533325,-0.20508870482444763,-0.3667050302028656
1761315432776806700,4.147806640625,-1.0946491956710815,-0.19855277240276337,-0.47996872663497925
1761315432786854400,4.1578544921875,-0.9868585467338562,-0.2032572478055954,-0.5554589629173279
1761315432796902700,4.167902587890625,-0.8870416879653931,-0.24573200941085815,-0.5953578948974609
1761315432806950700,4.17795068359375,-0.7961618304252625,-0.3036227226257324,-0.606330394744873
1761315432816998400,4.187998291015625,-0.7158060073852539,-0.3876955211162567,-0.5959171652793884
1761315432827046700,4.198046630859375,-0.6525216102600098,-0.49459826946258545,-0.5714331269264221
1761315432837093600,4.20809375,-0.599760890007019,-0.6069812774658203,-0.5163560509681702
1761315432847141600,4.2181416015625,-0.5554075837135315,-0.6937795281410217,-0.4139132797718048
1761315432857189600,4.228189697265625,-0.4966646134853363,-0.7382729649543762,-0.27992698550224304
1761315432867237600,4.238237548828125,-0.4207213819026947,-0.7419308423995972,-0.11883557587862015
1761315432877285400,4.248285400390625,-0.30684995651245117,-0.687178909778595,0.04370034113526344
1761315432887333600,4.258333740234375,-0.16018247604370117,-0.5820325016975403,0.1935388445854187
1761315432897381600,4.268381591796875,0.006186789367347956,-0.45691028237342834,0.3248704969882965
1761315432907429400,4.278429443359375,0.17855402827262878,-0.3140958845615387,0.4234095811843872
1761315432917477600,4.2884775390625,0.3264734447002411,-0.15875795483589172,0.4930294156074524
1761315432927525600,4.298525634765625,0.4470214247703552,-0.008591623976826668,0.534980833530426
1761315432937572400,4.308572265625,0.5246765613555908,0.1252623200416565,0.5641533732414246
1761315432947620600,4.31862060546875,0.5764840841293335,0.25478702783584595,0.5799052119255066
1761315432957668600,4.328668701171875,0.599239706993103,0.3549535572528839,0.5838764905929565
1761315432967716400,4.33871630859375,0.5881969332695007,0.39596572518348694,0.5516954064369202
1761315432977764600,4.3487646484375,0.5262526273727417,0.3682944178581238,0.48820188641548157
1761315432987812600,4.3588125,0.4361930191516876,0.3358267545700073,0.41375136375427246
1761315432997860600,4.368860595703125,0.32648995518684387,0.30665022134780884,0.33727070689201355
1761315433007908600,4.37890869140625,0.20982247591018677,0.2361302375793457,0.27582013607025146
1761315433017956600,4.38895654296875,0.0972173660993576,0.14020077884197235,0.25666800141334534
1761315433028003300,4.39900341796875,-0.0015635418239980936,0.05089007690548897,0.3043380677700043
1761315433038051600,4.409051513671875,-0.08427520096302032,-0.00814767461270094,0.40666335821151733
1761315433048099600,4.419099609375,-0.14360696077346802,-0.05065092816948891,0.5336735248565674
1761315433058147600,4.429147705078125,-0.1817476898431778,-0.0921190083026886,0.6431137323379517
1761315433068195600,4.439195556640625,-0.20400692522525787,-0.16008873283863068,0.7137117385864258
1761315433078243600,4.44924365234375,-0.21830570697784424,-0.24020275473594666,0.7272741198539734
1761315433088291600,4.45929150390625,-0.23208756744861603,-0.3166980445384979,0.6995652914047241
1761315433098339600,4.469339599609375,-0.25105831027030945,-0.3858819305896759,0.6461923122406006
1761315433108387600,4.4793876953125,-0.28995245695114136,-0.4227429926395416,0.5929389595985413
1761315433118435600,4.489435546875,-0.34208065271377563,-0.42887359857559204,0.5406099557876587
1761315433128482600,4.499482666015625,-0.39667651057243347,-0.4216955900192261,0.4792446196079254
1761315433138530600,4.509530517578125,-0.4328715205192566,-0.4065139591693878,0.4140546917915344
1761315433148578600,4.51957861328125,-0.4428645074367523,-0.3877304196357727,0.3467787206172943
1761315433158626600,4.52962646484375,-0.45128756761550903,-0.3851732611656189,0.28553348779678345
1761315433168674600,4.539674560546875,-0.4431111216545105,-0.37003612518310547,0.2405707985162735
1761315433178722600,4.54972265625,-0.43965619802474976,-0.34834012389183044,0.22241629660129547
1761315433188770600,4.5597705078125,-0.4242625832557678,-0.33005833625793457,0.22907952964305878
1761315433198818600,4.569818603515625,-0.409604012966156,-0.32015883922576904,0.24852512776851654
1761315433208866600,4.579866455078125,-0.3879357576370239,-0.3376113176345825,0.28703737258911133
1761315433218913500,4.58991357421875,-0.3655867576599121,-0.3579442799091339,0.32689955830574036
1761315433228961500,4.59996142578125,-0.32711899280548096,-0.38315990567207336,0.34921523928642273
1761315433239009500,4.610009521484375,-0.28324130177497864,-0.446879506111145,0.3277006447315216
1761315433249057500,4.6200576171875,-0.22406771779060364,-0.5486047863960266,0.27163684368133545
1761315433259105500,4.63010546875,-0.17610152065753937,-0.6594660878181458,0.19329090416431427
1761315433269153500,4.640153564453125,-0.15924903750419617,-0.7541590332984924,0.11421498656272888
1761315433279201500,4.650201416015625,-0.17301838099956512,-0.794841468334198,0.04596110060811043
1761315433289249500,4.66024951171875,-0.22680358588695526,-0.7775447368621826,-0.009939982555806637
1761315433299297500,4.670297607421875,-0.28489723801612854,-0.6968688368797302,-0.07068561762571335
1761315433309344500,4.680344482421875,-0.3259168565273285,-0.5932886600494385,-0.14460591971874237
1761315433319392500,4.690392578125,-0.3601967990398407,-0.4702836275100708,-0.23201166093349457
1761315433329440500,4.7004404296875,-0.37299540638923645,-0.3463020324707031,-0.32841596007347107
1761315433339488500,4.710488525390625,-0.3644069731235504,-0.23056210577487946,-0.41916343569755554
1761315433349536800,4.720536865234375,-0.34748926758766174,-0.10852620750665665,-0.48142895102500916
1761315433359584500,4.73058447265625,-0.307685911655426,0.001273523666895926,-0.5072214007377625
1761315433369632500,4.740632568359375,-0.2734869420528412,0.09543437510728836,-0.503899872303009
1761315433379680500,4.750680419921875,-0.22581049799919128,0.168019101023674,-0.4822382926940918
1761315433389728500,4.760728515625,-0.19191937148571014,0.2074679732322693,-0.4548170566558838
1761315433399775500,4.770775390625,-0.1714167594909668,0.22095395624637604,-0.4236314296722412
1761315433409823700,4.78082373046875,-0.17148466408252716,0.20020632445812225,-0.39790475368499756
1761315433419871500,4.79087158203125,-0.18104754388332367,0.1567153036594391,-0.37207794189453125
1761315433429919500,4.80091943359375,-0.2032543122768402,0.11624404788017273,-0.35200998187065125
1761315433439967700,4.8109677734375,-0.2198127806186676,0.07957285642623901,-0.327862024307251
1761315433450015500,4.821015380859375,-0.23206785321235657,0.036751888692379,-0.31249743700027466
1761315433460063500,4.8310634765625,-0.24638047814369202,-0.01785942353308201,-0.3156663477420807
1761315433470111500,4.841111572265625,-0.2620374858379364,-0.07034473866224289,-0.3441091775894165
1761315433480159500,4.851159423828125,-0.2759852409362793,-0.11417876929044724,-0.3919704258441925
1761315433490206500,4.86120654296875,-0.28555771708488464,-0.15502314269542694,-0.44847846031188965
1761315433500254700,4.871254638671875,-0.29698240756988525,-0.20168837904930115,-0.4986473619937897
1761315433510305800,4.881305908203125,-0.31051844358444214,-0.23228144645690918,-0.5451050996780396
1761315433520353800,4.891353759765625,-0.32517382502555847,-0.26594245433807373,-0.5853047370910645
1761315433530402000,4.901402099609375,-0.3526366055011749,-0.2935831546783447,-0.6098455190658569
1761315433540449800,4.91144970703125,-0.3775249123573303,-0.3000394403934479,-0.6140367984771729
1761315433550497800,4.921497802734375,-0.3982003629207611,-0.3169763684272766,-0.6045487523078918
1761315433560546000,4.931546142578125,-0.42270970344543457,-0.350877583026886,-0.5838498473167419
1761315433570593800,4.94159375,-0.4541429877281189,-0.37096288800239563,-0.544910728931427
1761315433580638000,4.951637939453125,-0.4797727167606354,-0.3733759820461273,-0.49985775351524353
1761315433590686000,4.96168603515625,-0.5050967335700989,-0.36632978916168213,-0.4558490216732025
1761315433600734000,4.97173388671875,-0.5234943628311157,-0.34360262751579285,-0.40783169865608215
1761315433610782000,4.981781982421875,-0.5346317291259766,-0.3120758831501007,-0.3678661584854126
1761315433620829700,4.99182958984375,-0.5303746461868286,-0.27896344661712646,-0.33043891191482544
1761315433630878000,5.0018779296875,-0.5182362198829651,-0.24276870489120483,-0.2958167493343353
1761315433640926000,5.011926025390625,-0.4909803867340088,-0.20124229788780212,-0.25281813740730286
1761315433650973700,5.0219736328125,-0.47048789262771606,-0.15838004648685455,-0.2042921483516693
1761315433661021000,5.03202099609375,-0.46142807602882385,-0.10958109050989151,-0.14733512699604034
1761315433671069000,5.04206884765625,-0.46170955896377563,-0.05245388671755791,-0.09076399356126785
1761315433681117000,5.052116943359375,-0.4674457609653473,0.01273017656058073,-0.027700070291757584
1761315433691165000,5.0621650390625,-0.4896242916584015,0.09368015080690384,0.03795617073774338
1761315433701213000,5.072212890625,-0.5011605620384216,0.1933172643184662,0.09651029109954834
1761315433711260700,5.0822607421875,-0.49435168504714966,0.29793262481689453,0.15203826129436493
1761315433721309000,5.092308837890625,-0.4583215117454529,0.4195842146873474,0.2012966275215149
1761315433731357000,5.10235693359375,-0.4319170415401459,0.49918797612190247,0.23230886459350586
1761315433741404700,5.11240478515625,-0.41958317160606384,0.5102872252464294,0.23918595910072327
1761315433751452000,5.122451904296875,-0.4368247389793396,0.47043541073799133,0.21608595550060272
1761315433761500000,5.1325,-0.46459564566612244,0.4086359739303589,0.2003309577703476
1761315433771548000,5.1425478515625,-0.5043268203735352,0.3304554224014282,0.17915670573711395
1761315433781596000,5.152595947265625,-0.5552062392234802,0.20375525951385498,0.16261954605579376
1761315433791644000,5.162643798828125,-0.6243858337402344,0.05630508437752724,0.1595635563135147
1761315433801691600,5.172691650390625,-0.7019352316856384,-0.07959868758916855,0.18657627701759338
1761315433811740000,5.182739990234375,-0.7701624631881714,-0.17234353721141815,0.24486780166625977
1761315433821788000,5.192787841796875,-0.808966338634491,-0.21934087574481964,0.3113781213760376
1761315433831835000,5.2028349609375,-0.8083127737045288,-0.24005387723445892,0.36458462476730347
1761315433841883000,5.2128828125,-0.7680335640907288,-0.24790939688682556,0.3998541831970215
1761315433851931000,5.222930908203125,-0.6927787661552429,-0.25598835945129395,0.4005439579486847
1761315433861979000,5.232978759765625,-0.6082183122634888,-0.2855134904384613,0.3779779374599457
1761315433872027000,5.24302685546875,-0.5280699729919434,-0.349604070186615,0.32673364877700806
1761315433882075000,5.253074951171875,-0.46325206756591797,-0.4273366928100586,0.27484941482543945
1761315433892123000,5.263122802734375,-0.42432543635368347,-0.5008982419967651,0.23853294551372528
1761315433902171000,5.2731708984375,-0.40467292070388794,-0.54349285364151,0.2243441492319107
1761315433912219000,5.283218994140625,-0.41182297468185425,-0.5547324419021606,0.22662116587162018
1761315433922266000,5.29326611328125,-0.43680182099342346,-0.5312241911888123,0.2424728274345398
1761315433932313900,5.30331396484375,-0.45122575759887695,-0.5005182027816772,0.2782558500766754
1761315433942361900,5.31336181640625,-0.4716287851333618,-0.46765559911727905,0.3308439552783966
1761315433952409900,5.323409912109375,-0.4759702682495117,-0.4416290819644928,0.4019991159439087
1761315433962457900,5.333457763671875,-0.44851386547088623,-0.4176371991634369,0.4642760455608368
1761315433972505900,5.343505859375,-0.4200558662414551,-0.3751094341278076,0.520698070526123
1761315433982553900,5.353553955078125,-0.3929581940174103,-0.318448007106781,0.5405926704406738
1761315433992600800,5.363600830078125,-0.3849705755710602,-0.2580898702144623,0.5119772553443909
1761315434002648800,5.37364892578125,-0.3855240046977997,-0.18349233269691467,0.437020480632782
1761315434012697000,5.383697021484375,-0.40699946880340576,-0.10574161261320114,0.3194216787815094
1761315434022744800,5.393744873046875,-0.4367605447769165,-0.05062855780124664,0.16966386139392853
1761315434032792800,5.403792724609375,-0.46785640716552734,0.004225904121994972,0.004633633885532618
1761315434042840800,5.4138408203125,-0.5135807394981384,0.04963892698287964,-0.15710999071598053
1761315434052888800,5.423888916015625,-0.563668966293335,0.0735730230808258,-0.30994507670402527
1761315434062936800,5.433936767578125,-0.6213695406913757,0.0734369307756424,-0.4324294328689575
1761315434072984000,5.443984130859375,-0.669086754322052,0.06901928037405014,-0.5214703679084778
1761315434083031800,5.45403173828125,-0.6953564286231995,0.06973034888505936,-0.5728400945663452
1761315434093079800,5.464079833984375,-0.6955202221870422,0.08315560966730118,-0.5879524350166321
1761315434103128000,5.474128173828125,-0.6587339639663696,0.0936625748872757,-0.5592230558395386
1761315434113175800,5.48417578125,-0.6097858548164368,0.11495161801576614,-0.4736514389514923
1761315434123223800,5.494223876953125,-0.5369387865066528,0.14754711091518402,-0.33814743161201477
1761315434133271800,5.504271728515625,-0.46463239192962646,0.20082338154315948,-0.1721147745847702
1761315434143319800,5.51431982421875,-0.38997891545295715,0.26356613636016846,-0.010936803184449673
1761315434153366800,5.52436669921875,-0.3133901357650757,0.2942638397216797,0.11501073837280273
1761315434163415000,5.5344150390625,-0.24603800475597382,0.2800103425979614,0.202390655875206
1761315434173462800,5.544462890625,-0.1955609768629074,0.22955968976020813,0.25318247079849243
1761315434183510800,5.5545107421875,-0.1537589430809021,0.16149169206619263,0.28249800205230713
1761315434193559000,5.56455908203125,-0.12267904728651047,0.07974249869585037,0.2940920889377594
1761315434203606800,5.574606689453125,-0.09994843602180481,0.0007321029552258551,0.29637575149536133
1761315434213657900,5.584657958984375,-0.08765342086553574,-0.06716012954711914,0.29712462425231934
1761315434223705900,5.594705810546875,-0.08482620865106583,-0.11864808946847916,0.2904038727283478
1761315434233753000,5.604753173828125,-0.091099813580513,-0.1323239505290985,0.27570775151252747
1761315434243800800,5.61480078125,-0.10217004269361496,-0.10741673409938812,0.2407582849264145
1761315434253848800,5.624848876953125,-0.10575039684772491,-0.08806461095809937,0.18255090713500977
1761315434263896800,5.634896728515625,-0.10414664447307587,-0.08639640361070633,0.08863425999879837
1761315434273944800,5.64494482421875,-0.09615422785282135,-0.09850206971168518,-0.0276862233877182
1761315434283993000,5.6549931640625,-0.08765475451946259,-0.102203868329525,-0.14299124479293823
1761315434294040800,5.665040771484375,-0.06862486898899078,-0.07588224858045578,-0.23734411597251892
1761315434304088800,5.6750888671875,-0.05264084041118622,-0.03211159631609917,-0.2994045615196228
1761315434314135800,5.6851357421875,-0.042457710951566696,0.014415424317121506,-0.32942450046539307
1761315434324184000,5.69518408203125,-0.0327206626534462,0.054604656994342804,-0.3328746259212494
1761315434334231800,5.705231689453125,-0.022907180711627007,0.057379670441150665,-0.30720973014831543
1761315434344280000,5.715280029296875,-0.007171626668423414,0.03674896061420441,-0.24599964916706085
1761315434354327800,5.725327880859375,0.010348510928452015,-0.0008918926469050348,-0.15583060681819916
1761315434364375800,5.735375732421875,0.03376249223947525,-0.04315013438463211,-0.044817004352808
1761315434374424000,5.745424072265625,0.056773800402879715,-0.06325966119766235,0.07415279000997543
1761315434384471000,5.755470947265625,0.08909578621387482,-0.0791371613740921,0.18403054773807526
1761315434394518800,5.765518798828125,0.12232404947280884,-0.09149423241615295,0.28399762511253357
1761315434404567000,5.775567138671875,0.15029843151569366,-0.07348380237817764,0.36594364047050476
1761315434414615000,5.785614990234375,0.16708272695541382,-0.04499277472496033,0.4261651635169983
1761315434424662800,5.795662841796875,0.17917481064796448,-0.008931443095207214,0.4679243266582489
1761315434434711000,5.8057109375,0.18380498886108398,0.04120709002017975,0.48803040385246277
1761315434444758800,5.8157587890625,0.1786709427833557,0.08730587363243103,0.47144022583961487
1761315434454806800,5.825806884765625,0.16147518157958984,0.053214218467473984,0.4120994210243225
1761315434464854000,5.83585400390625,0.1262974888086319,-0.03291480615735054,0.3121938407421112
1761315434474902000,5.845902099609375,0.08854318410158157,-0.12022947520017624,0.19678549468517303
1761315434484949800,5.85594970703125,0.056774064898490906,-0.17739476263523102,0.08967182785272598
1761315434494998000,5.865998046875,0.023298131301999092,-0.20517179369926453,0.013095828704535961
1761315434505046000,5.8760458984375,-0.02479562722146511,-0.1654592603445053,-0.01019564550369978
1761315434515091000,5.886091064453125,-0.07549022883176804,-0.07992918789386749,0.02201502025127411
1761315434525139200,5.89613916015625,-0.1235072910785675,0.00558092026039958,0.08373324573040009
1761315434535186200,5.906186279296875,-0.15751612186431885,0.08317398279905319,0.17223487794399261
1761315434545234000,5.91623388671875,-0.1798776239156723,0.1340763121843338,0.2577790915966034
1761315434555282200,5.9262822265625,-0.1908370554447174,0.15572594106197357,0.3147294521331787
1761315434565330000,5.936329833984375,-0.1884806901216507,0.14013366401195526,0.3527596592903137
1761315434575378000,5.9463779296875,-0.17805202305316925,0.12575526535511017,0.3702875077724457
1761315434585426200,5.95642626953125,-0.16324831545352936,0.11822278052568436,0.3830887973308563
1761315434595474000,5.966473876953125,-0.15450727939605713,0.09867358207702637,0.37641093134880066
1761315434605522200,5.976522216796875,-0.13664279878139496,0.059595152735710144,0.3609488606452942
1761315434615569200,5.986569091796875,-0.11453430354595184,0.024863803759217262,0.33834609389305115
1761315434625617200,5.9966171875,-0.08947555720806122,-0.017840515822172165,0.300846666097641
1761315434635665000,6.006664794921875,-0.06373290717601776,-0.05538230016827583,0.25473323464393616
1761315434645713200,6.016713134765625,-0.03284316882491112,-0.07594696432352066,0.21114632487297058
1761315434655761000,6.026760986328125,-0.013369867578148842,-0.07733553647994995,0.17173022031784058
1761315434665809200,6.03680908203125,0.010235860012471676,-0.06338802725076675,0.13609685003757477
1761315434675857200,6.046857177734375,0.03399099037051201,-0.044370658695697784,0.10504759103059769
1761315434685904100,6.056904052734375,0.05703212693333626,-0.022158032283186913,0.07380951195955276
1761315434695952000,6.066951904296875,0.0838184654712677,-0.003364371368661523,0.05404006689786911
1761315434706000100,6.077000244140625,0.10275247693061829,0.01734090782701969,0.049318548291921616
1761315434716048100,6.087048095703125,0.11350525915622711,0.040890708565711975,0.06190438196063042
1761315434726096100,6.09709619140625,0.11788535863161087,0.06862273812294006,0.07771583646535873
1761315434736144100,6.10714404296875,0.1334637850522995,0.09572093188762665,0.11212707310914993
1761315434746192000,6.11719189453125,0.1489865481853485,0.11862704902887344,0.1520574390888214
1761315434756238800,6.12723876953125,0.16832323372364044,0.132399320602417,0.18637387454509735
1761315434766287000,6.137287109375,0.1942371129989624,0.10288936644792557,0.21007227897644043
1761315434776335000,6.147335205078125,0.21952463686466217,0.025423334911465645,0.21185845136642456
1761315434786383000,6.157383056640625,0.24651657044887543,-0.07570621371269226,0.19015368819236755
1761315434796431000,6.16743115234375,0.2607879042625427,-0.18135833740234375,0.14341361820697784
1761315434806479000,6.17747900390625,0.2623133659362793,-0.27379292249679565,0.07566573470830917
1761315434816527000,6.187527099609375,0.25316354632377625,-0.3585658669471741,0.006047506351023912
1761315434826575000,6.1975751953125,0.2258424460887909,-0.45736435055732727,-0.047862064093351364
1761315434836622000,6.2076220703125,0.18644817173480988,-0.541552722454071,-0.07878908514976501
1761315434846670000,6.217670166015625,0.1441499888896942,-0.5872592329978943,-0.10217616707086563
1761315434856718000,6.227718017578125,0.10768598318099976,-0.6017588376998901,-0.12301087379455566
1761315434866766000,6.23776611328125,0.0776095762848854,-0.6033058762550354,-0.1580365002155304
1761315434876814000,6.24781396484375,0.03750449791550636,-0.5869457721710205,-0.20371876657009125
1761315434886862000,6.257862060546875,-0.0088803106918931,-0.558363139629364,-0.25034672021865845
1761315434896910000,6.26791015625,-0.056166067719459534,-0.503892183303833,-0.2783663868904114
1761315434906957000,6.27795703125,-0.11287621408700943,-0.41316041350364685,-0.28086256980895996
1761315434917005000,6.288005126953125,-0.1670781970024109,-0.31123751401901245,-0.2503611147403717
1761315434927053000,6.298052978515625,-0.22048284113407135,-0.21504946053028107,-0.2028692215681076
1761315434937101000,6.30810107421875,-0.2623578608036041,-0.13090874254703522,-0.14593642950057983
1761315434947149000,6.318149169921875,-0.273918092250824,-0.06304368376731873,-0.08890403807163239
1761315434957197000,6.328197021484375,-0.24943193793296814,-0.00785339530557394,-0.040712542831897736
1761315434967245000,6.3382451171875,-0.19963482022285461,0.03305515646934509,-0.017347298562526703
1761315434977292000,6.3482919921875,-0.13569417595863342,0.10385848581790924,-0.006107427179813385
1761315434987340000,6.358340087890625,-0.07551979273557663,0.1823738068342209,-0.028133632615208626
1761315434997388000,6.368387939453125,-0.02486167475581169,0.2347552478313446,-0.07272400707006454
1761315435007436000,6.37843603515625,0.010194581001996994,0.24466514587402344,-0.13152261078357697
1761315435017484000,6.388484130859375,0.02184857428073883,0.24439962208271027,-0.18552166223526
1761315435027532000,6.398531982421875,0.021089039742946625,0.2225387990474701,-0.23304443061351776
1761315435037580000,6.408580078125,-0.00324852392077446,0.1835748851299286,-0.28293582797050476
1761315435047627000,6.418626953125,-0.03638996556401253,0.14913435280323029,-0.3522248864173889
1761315435057675000,6.428675048828125,-0.06387805193662643,0.10856349766254425,-0.43596479296684265
1761315435067723000,6.438722900390625,-0.08921322971582413,0.03707147017121315,-0.5209254622459412
1761315435077771000,6.44877099609375,-0.10447075217962265,-0.05577830970287323,-0.5808897614479065
1761315435087819000,6.458819091796875,-0.11553432047367096,-0.1693171262741089,-0.6075442433357239
1761315435097867000,6.468866943359375,-0.12939660251140594,-0.2998602092266083,-0.5953145027160645
1761315435107915300,6.478915283203125,-0.15101668238639832,-0.4141998291015625,-0.5357864499092102
1761315435117962200,6.488962158203125,-0.18140201270580292,-0.4756770431995392,-0.4176656901836395
1761315435128010000,6.499010009765625,-0.21282705664634705,-0.47130706906318665,-0.27195003628730774
1761315435138058000,6.50905810546875,-0.24140170216560364,-0.40856218338012695,-0.1257840245962143
1761315435148106000,6.51910595703125,-0.25373080372810364,-0.28863152861595154,-0.003507383167743683
1761315435158154000,6.529154052734375,-0.23804664611816406,-0.13678181171417236,0.08013052493333817
1761315435168202200,6.5392021484375,-0.19434550404548645,0.013791712000966072,0.11732236295938492
1761315435178250000,6.54925,-0.132346048951149,0.14607784152030945,0.12636247277259827
1761315435188297000,6.559296875,-0.07068349421024323,0.2593173086643219,0.11831892281770706
1761315435198345000,6.569344970703125,-0.025440910831093788,0.3358243405818939,0.10100224614143372
1761315435208393200,6.579393310546875,0.011599131859838963,0.37487268447875977,0.08624940365552902
1761315435218441000,6.58944091796875,0.03983769565820694,0.37234053015708923,0.08039843291044235
1761315435228489200,6.5994892578125,0.055747684091329575,0.3267211318016052,0.08287490904331207
1761315435238537000,6.609536865234375,0.0687582939863205,0.2554016709327698,0.09542745351791382
1761315435248585000,6.6195849609375,0.07424759864807129,0.17953354120254517,0.1327577829360962
1761315435258632000,6.6296318359375,0.07367155700922012,0.11425014585256577,0.18114101886749268
1761315435268680200,6.63968017578125,0.07459141314029694,0.036561474204063416,0.21899546682834625
1761315435278728000,6.64972802734375,0.08110816776752472,-0.05789312720298767,0.25260135531425476
1761315435288776200,6.659776123046875,0.09190621972084045,-0.11776977777481079,0.2811123728752136
1761315435298824200,6.66982421875,0.09684745222330093,-0.12682212889194489,0.3169494569301605
1761315435308872000,6.679871826171875,0.10732991993427277,-0.11316783726215363,0.3425517678260803
1761315435318920200,6.689920166015625,0.12708231806755066,-0.09273713082075119,0.3446098566055298
1761315435328967200,6.69996728515625,0.15734648704528809,-0.05956665799021721,0.32001182436943054
1761315435339015000,6.710014892578125,0.19152335822582245,-0.008697884157299995,0.29081133008003235
1761315435349063200,6.720063232421875,0.21876589953899384,0.04295386001467705,0.23806849122047424
1761315435359111200,6.730111083984375,0.2340354025363922,0.048505749553442,0.14847016334533691
1761315435369159000,6.740158935546875,0.22895009815692902,0.039323437958955765,0.04337010905146599
1761315435379207200,6.750207275390625,0.20022550225257874,0.061532068997621536,-0.0630870908498764
1761315435389254100,6.760254150390625,0.14509300887584686,0.07929828763008118,-0.16229836642742157
1761315435399302000,6.770302001953125,0.07043129205703735,0.047862064093351364,-0.24463771283626556
1761315435409350100,6.78035009765625,-0.00637960247695446,-0.02383129671216011,-0.3027034103870392
1761315435419398100,6.790398193359375,-0.07365504652261734,-0.09613878279924393,-0.3156309127807617
1761315435429446000,6.80044580078125,-0.12142123281955719,-0.16870912909507751,-0.2772158980369568
1761315435439494100,6.810494140625,-0.14861051738262177,-0.25380590558052063,-0.17894338071346283
1761315435449542100,6.820542236328125,-0.16365817189216614,-0.3453555405139923,-0.04343296214938164
1761315435459589000,6.830589111328125,-0.16284191608428955,-0.4118272364139557,0.11878976970911026
1761315435469637000,6.84063720703125,-0.15863464772701263,-0.44149458408355713,0.2793852984905243
1761315435479685000,6.85068505859375,-0.1493426114320755,-0.43643590807914734,0.41186317801475525
1761315435489732900,6.86073291015625,-0.13924629986286163,-0.40790146589279175,0.5027449131011963
1761315435499781000,6.870781005859375,-0.14138349890708923,-0.39215633273124695,0.5484426021575928
1761315435509829000,6.8808291015625,-0.15394455194473267,-0.40691423416137695,0.5570334196090698
1761315435519876900,6.890876953125,-0.1736341118812561,-0.40997314453125,0.5327440500259399
1761315435529923800,6.900923828125,-0.1991136372089386,-0.38580361008644104,0.4976388216018677
1761315435539972000,6.91097216796875,-0.2244006097316742,-0.36825045943260193,0.44467970728874207
1761315435550020000,6.92102001953125,-0.25113582611083984,-0.34593451023101807,0.38529548048973083
1761315435560068000,6.931068115234375,-0.27984416484832764,-0.30401742458343506,0.34671133756637573
1761315435570116000,6.9411162109375,-0.30694448947906494,-0.240180104970932,0.3213351368904114
1761315435580163800,6.951163818359375,-0.31566688418388367,-0.1772243082523346,0.30449730157852173
1761315435590210800,6.9612109375,-0.31862032413482666,-0.11021652072668076,0.29651927947998047
1761315435600259000,6.971259033203125,-0.31175416707992554,-0.04446600005030632,0.2856868803501129
1761315435610307000,6.98130712890625,-0.30872535705566406,0.007414773106575012,0.25208258628845215
1761315435620355000,6.99135498046875,-0.2887721359729767,0.04884690046310425,0.18826152384281158
1761315435630403000,7.001403076171875,-0.2728419303894043,0.09368361532688141,0.10266698896884918
1761315435640451000,7.011451171875,-0.2618310749530792,0.13665585219860077,-0.011288074776530266
1761315435650499000,7.0214990234375,-0.2553873062133789,0.1492139846086502,-0.15062466263771057
1761315435660546000,7.031546142578125,-0.256621390581131,0.12111736834049225,-0.29030585289001465
1761315435670594000,7.041593994140625,-0.2661381959915161,0.05699297785758972,-0.417631596326828
1761315435680642000,7.05164208984375,-0.3020525276660919,-0.01375416200608015,-0.5270587801933289
1761315435690690000,7.06168994140625,-0.3450849652290344,-0.05283764749765396,-0.5961787104606628
1761315435700738000,7.071738037109375,-0.39028146862983704,-0.05194868519902229,-0.6297526359558105
1761315435710786000,7.0817861328125,-0.41778764128685,-0.0023363912478089333,-0.6262953281402588
1761315435720834000,7.091833984375,-0.4105401337146759,0.03967204689979553,-0.5979070663452148
1761315435730881000,7.101881103515625,-0.3692331612110138,0.06600777804851532,-0.5606111288070679
1761315435740929000,7.111928955078125,-0.2932358682155609,0.08835356682538986,-0.5203715562820435
1761315435750977000,7.12197705078125,-0.1928488165140152,0.11313348263502121,-0.4856439232826233
1761315435761025000,7.13202490234375,-0.0886896550655365,0.11629997938871384,-0.4587918221950531
1761315435771073000,7.142072998046875,0.0028533106669783592,0.10699436068534851,-0.4374503195285797
1761315435781121000,7.15212109375,0.06441360712051392,0.06603015214204788,-0.42494145035743713
1761315435791168000,7.16216796875,0.11285597831010818,0.004850681405514479,-0.39741581678390503
1761315435801216000,7.172216064453125,0.1370212286710739,-0.052560146898031235,-0.346947580575943
1761315435811264000,7.182263916015625,0.14138935506343842,-0.09351583570241928,-0.28127509355545044
1761315435821312000,7.19231201171875,0.13595463335514069,-0.13060913980007172,-0.2329629510641098
1761315435831360000,7.202360107421875,0.13336125016212463,-0.15300020575523376,-0.21460950374603271
1761315435841408000,7.212407958984375,0.14618703722953796,-0.1816989630460739,-0.22463737428188324
1761315435851455000,7.222455078125,0.15930870175361633,-0.2040197104215622,-0.2559018135070801
1761315435861503200,7.232503173828125,0.16817942261695862,-0.19377745687961578,-0.2942228317260742
1761315435871551000,7.242551025390625,0.1663210690021515,-0.1552702784538269,-0.33101388812065125
1761315435881599000,7.252598876953125,0.1649484783411026,-0.11517132818698883,-0.36978229880332947
1761315435891647000,7.26264697265625,0.16145333647727966,-0.08009110391139984,-0.3944048285484314
1761315435901695000,7.272695068359375,0.15600371360778809,-0.04647189378738403,-0.39923954010009766
1761315435911743000,7.282742919921875,0.1481625735759735,-0.0037955371662974358,-0.39139413833618164
1761315435921790200,7.292790283203125,0.14951439201831818,0.013965883292257786,-0.3608516752719879
1761315435931838000,7.302837890625,0.15906502306461334,0.03506717458367348,-0.2932997941970825
1761315435941886000,7.312885986328125,0.16698472201824188,0.07528650015592575,-0.20445246994495392
1761315435951934200,7.322934326171875,0.18132531642913818,0.1120583638548851,-0.0896206945180893
1761315435961982000,7.33298193359375,0.20135948061943054,0.13281451165676117,0.02864176407456398
1761315435972030000,7.343030029296875,0.21949639916419983,0.1392154097557068,0.13912513852119446
1761315435982077200,7.3530771484375,0.23648203909397125,0.11656336486339569,0.22633087635040283
1761315435992125000,7.363125,0.2572682797908783,0.0815313458442688,0.29208752512931824
1761315436002173000,7.3731728515625,0.2779077887535095,0.051783300936222076,0.3330565094947815
1761315436012221200,7.38322119140625,0.3054693639278412,0.04144171625375748,0.3680818974971771
1761315436022269000,7.39326904296875,0.32225102186203003,0.05687127262353897,0.40752384066581726
1761315436032317000,7.40331689453125,0.33303043246269226,0.10383425652980804,0.43771713972091675
1761315436042365200,7.413365234375,0.33979058265686035,0.15925277769565582,0.4649868607521057
1761315436052412200,7.423412109375,0.35264647006988525,0.23503728210926056,0.4714210629463196
1761315436062460000,7.4334599609375,0.37753984332084656,0.309332013130188,0.4655517041683197
1761315436072508200,7.443508056640625,0.3982376456260681,0.2978026568889618,0.4315902888774872
1761315436082556000,7.453555908203125,0.4027216136455536,0.24017611145973206,0.3732534646987915
1761315436092604000,7.46360400390625,0.3949052393436432,0.21319563686847687,0.3105650544166565
1761315436102652200,7.473652099609375,0.3652738332748413,0.18783408403396606,0.23437123000621796
1761315436112699100,7.48369921875,0.32261425256729126,0.1280815303325653,0.14997458457946777
1761315436122747000,7.493746826171875,0.27053987979888916,0.05059739574790001,0.07370511442422867
1761315436132795100,7.503795166015625,0.21816082298755646,-0.00001704423084447626,0.026275811716914177
1761315436142843100,7.513843017578125,0.1680140346288681,-0.0191382747143507,0.010868626646697521
1761315436152891000,7.523890869140625,0.12834811210632324,0.0015046859625726938,0.02665984071791172
1761315436162939100,7.533939208984375,0.10429311543703079,0.0467483289539814,0.05670082941651344
1761315436172986000,7.543986083984375,0.10203448683023453,0.11451805382966995,0.09442450851202011
1761315436183033900,7.554033935546875,0.11610716581344604,0.18003900349140167,0.12020950019359589
1761315436193082000,7.56408203125,0.13991396129131317,0.2214282602071762,0.1389714628458023
1761315436203130000,7.574130126953125,0.1673080325126648,0.25156113505363464,0.1422402262687683
1761315436213177900,7.584177734375,0.1966100037097931,0.2575564384460449,0.1383802443742752
1761315436223226000,7.59422607421875,0.21649529039859772,0.24166375398635864,0.13363182544708252
1761315436233273000,7.604273193359375,0.22584430873394012,0.2145642340183258,0.1273515671491623
1761315436243320800,7.61432080078125,0.23444153368473053,0.18669931590557098,0.12450996786355972
1761315436253369000,7.624369140625,0.2524564862251282,0.18122278153896332,0.13909503817558289
1761315436263417000,7.6344169921875,0.28185510635375977,0.20138505101203918,0.17637689411640167
1761315436273464800,7.64446484375,0.32577651739120483,0.22755779325962067,0.23966878652572632
1761315436283513000,7.65451318359375,0.3731895685195923,0.2527318596839905,0.3091575801372528
1761315436293561000,7.66456103515625,0.42377203702926636,0.2770414650440216,0.3893251121044159
1761315436303608000,7.674608154296875,0.4736863374710083,0.2798606753349304,0.4556300938129425
1761315436313656000,7.684656005859375,0.517412006855011,0.2610001564025879,0.5031440854072571
1761315436323704000,7.6947041015625,0.560606062412262,0.21721594035625458,0.5312593579292297
1761315436333751800,7.704751708984375,0.5950561761856079,0.15500742197036743,0.5387401580810547
1761315436343800000,7.714800048828125,0.6158690452575684,0.11420167237520218,0.5344777703285217
1761315436353848000,7.72484814453125,0.6273741722106934,0.08409730345010757,0.5162495374679565
1761315436363895000,7.73489501953125,0.6299779415130615,0.044855087995529175,0.46609339118003845
1761315436373943000,7.744943115234375,0.6230081915855408,0.0036887445021420717,0.394621878862381
1761315436383991000,7.754990966796875,0.6072779297828674,-0.023130886256694794,0.30667445063591003
1761315436394039000,7.7650390625,0.5997462868690491,-0.04324574023485184,0.20819447934627533
1761315436404087000,7.775087158203125,0.5945709347724915,-0.06119837611913681,0.09524715691804886
1761315436414135000,7.785135009765625,0.5817150473594666,-0.0899200364947319,-0.027394605800509453
1761315436424182000,7.79518212890625,0.5668032169342041,-0.12223589420318604,-0.15016233921051025
1761315436434230000,7.80522998046875,0.5445112586021423,-0.1488954722881317,-0.26982614398002625
1761315436444278000,7.815278076171875,0.5044420957565308,-0.17526476085186005,-0.38527819514274597
1761315436454326000,7.825325927734375,0.4500127136707306,-0.20193791389465332,-0.4845120906829834
1761315436464374000,7.8353740234375,0.3984248638153076,-0.19015155732631683,-0.551708996295929
1761315436474422000,7.845422119140625,0.3481510579586029,-0.1457710564136505,-0.5904781818389893
1761315436484469000,7.855468994140625,0.31376537680625916,-0.056234776973724365,-0.5841574668884277
1761315436494517000,7.86551708984375,0.3058944046497345,0.09513823688030243,-0.5385745167732239
1761315436504565000,7.87556494140625,0.33155158162117004,0.2701483964920044,-0.45507216453552246
1761315436514613000,7.885613037109375,0.37864264845848083,0.45939528942108154,-0.34338533878326416
1761315436524660700,7.89566064453125,0.4211488366127014,0.6139124035835266,-0.23511824011802673
1761315436534709000,7.905708984375,0.4513839781284332,0.661333441734314,-0.16412928700447083
1761315436544756000,7.915755859375,0.46893712878227234,0.6558519005775452,-0.12956278026103973
1761315436554804000,7.925803955078125,0.46269360184669495,0.6480658650398254,-0.11693461239337921
1761315436564852000,7.93585205078125,0.4294387102127075,0.6066055297851562,-0.12702345848083496
1761315436574900000,7.94589990234375,0.376388818025589,0.5234386920928955,-0.14939481019973755
1761315436584947700,7.95594775390625,0.29812172055244446,0.3913869261741638,-0.1570625901222229
1761315436594996000,7.965995849609375,0.21675227582454681,0.23964481055736542,-0.16059979796409607
1761315436605043000,7.97604296875,0.15420661866664886,0.09009021520614624,-0.14892131090164185
1761315436615091000,7.986091064453125,0.10944207012653351,-0.05696661397814751,-0.12991724908351898
1761315436625139000,7.996138916015625,0.07794246822595596,-0.1928437501192093,-0.10744763165712357
1761315436635187000,8.00618701171875,0.05432209372520447,-0.29781731963157654,-0.08811068534851074
1761315436645235000,8.01623486328125,0.03880731761455536,-0.36453667283058167,-0.07543963193893433
1761315436655283000,8.026282958984375,0.03550366684794426,-0.37195783853530884,-0.062123823910951614
1761315436665330000,8.036329833984375,0.034333471208810806,-0.3342006206512451,-0.06722670793533325
1761315436675378000,8.0463779296875,0.0265346709638834,-0.27783188223838806,-0.09361357241868973
1761315436685426000,8.056426025390625,0.014195714145898819,-0.22231855988502502,-0.14837908744812012
1761315436695474000,8.066473876953125,-0.014851650223135948,-0.16475751996040344,-0.21632272005081177
1761315436705522000,8.07652197265625,-0.05362914130091667,-0.12129180878400803,-0.273465096950531
1761315436715570000,8.08656982421875,-0.10540898144245148,-0.10456822067499161,-0.3154953718185425
1761315436725617000,8.096616943359376,-0.15819336473941803,-0.10850490629673004,-0.33061492443084717
1761315436735665000,8.106664794921874,-0.20685623586177826,-0.14000211656093597,-0.30800655484199524
1761315436745713000,8.116712890625,-0.24146296083927155,-0.16915254294872284,-0.24751099944114685
1761315436755761000,8.126760986328126,-0.2653355300426483,-0.1775854378938675,-0.1429414451122284
1761315436765809000,8.136808837890625,-0.27723851799964905,-0.15680693089962006,-0.007505586836487055
1761315436775857000,8.14685693359375,-0.2817334234714508,-0.1309361755847931,0.13855388760566711
1761315436785903900,8.15690380859375,-0.2765016257762909,-0.10211997479200363,0.2799200713634491
1761315436795951900,8.166951904296875,-0.27592772245407104,-0.06406740099191666,0.386853963136673
1761315436805999900,8.176999755859375,-0.2857651710510254,-0.043594080954790115,0.4602168798446655
1761315436816047900,8.1870478515625,-0.3090161681175232,-0.03009771555662155,0.5002865195274353
1761315436826095900,8.197095947265625,-0.32486969232559204,0.00216488353908062,0.5098171830177307
1761315436836143900,8.207143798828126,-0.33537906408309937,0.049070075154304504,0.49813202023506165
1761315436846190800,8.21719091796875,-0.33460673689842224,0.05700203403830528,0.44435107707977295
1761315436856238800,8.22723876953125,-0.3456548750400543,0.0034354778472334146,0.3604218363761902
1761315436866287000,8.237287109375,-0.38061073422431946,-0.05306455120444298,0.2686527669429779
1761315436876334800,8.2473349609375,-0.4265771508216858,-0.08433005958795547,0.19059844315052032
1761315436886382800,8.2573828125,-0.485172301530838,-0.10863327234983444,0.12811243534088135
1761315436896430800,8.267430908203124,-0.5394999980926514,-0.13731178641319275,0.07165021449327469
1761315436906477800,8.277477783203125,-0.5706802606582642,-0.13656264543533325,0.027403926476836205
1761315436916525800,8.28752587890625,-0.5759866237640381,-0.11023329943418503,0.0009464874165132642
1761315436926574000,8.297573974609374,-0.5512506365776062,-0.07736323028802872,-0.01193948369473219
1761315436936621800,8.307621826171875,-0.5164703130722046,-0.05896265059709549,-0.013336045667529106
1761315436946669800,8.317669921875,-0.47652074694633484,-0.06625465303659439,-0.010765030048787594
1761315436956718000,8.327718017578125,-0.44352099299430847,-0.0755498856306076,-0.007257113698869944
1761315436966764800,8.337764892578125,-0.4030481278896332,-0.08029989898204803,-0.0092321140691638
1761315436976812800,8.347812744140626,-0.37429529428482056,-0.10956351459026337,-0.015046860091388226
1761315436986861000,8.357861083984375,-0.35777464509010315,-0.14639556407928467,-0.00657561095431447
1761315436996908800,8.36790869140625,-0.3537788391113281,-0.15397758781909943,0.025829998776316643
1761315437006956800,8.377956787109374,-0.3554198741912842,-0.15174664556980133,0.06097041070461273
1761315437017005000,8.388005126953125,-0.3546246588230133,-0.1609681099653244,0.10429684072732925
1761315437027052000,8.398052001953126,-0.3519790768623352,-0.17124232649803162,0.1503373086452484
1761315437037099800,8.408099853515624,-0.3480844795703888,-0.1711357980966568,0.18998432159423828
1761315437047148000,8.41814794921875,-0.34141483902931213,-0.1655050814151764,0.23032109439373016
1761315437057195800,8.42819580078125,-0.3306293189525604,-0.1552572250366211,0.2652670741081238
1761315437067243800,8.438243896484375,-0.3273389935493469,-0.141815185546875,0.289600670337677
1761315437077291000,8.448291015625,-0.33575165271759033,-0.1288176327943802,0.30661267042160034
1761315437087339000,8.458339111328126,-0.3486623764038086,-0.12555739283561707,0.3154729902744293
1761315437097386800,8.46838671875,-0.36722540855407715,-0.11405014246702194,0.30453619360923767
1761315437107435000,8.47843505859375,-0.3840552568435669,-0.0882054939866066,0.28398963809013367
1761315437117483000,8.48848291015625,-0.3968504071235657,-0.05510879307985306,0.2395220398902893
1761315437127530800,8.49853076171875,-0.4060681462287903,-0.03284583240747452,0.16879966855049133
1761315437137578000,8.508577880859375,-0.42062923312187195,-0.015666311606764793,0.06977108865976334
1761315437147626000,8.5186259765625,-0.43587106466293335,-0.020259466022253036,-0.05361289530992508
1761315437157673700,8.528673828125,-0.4384572505950928,-0.03958655893802643,-0.18610568344593048
1761315437167722000,8.538721923828126,-0.44858869910240173,-0.052796900272369385,-0.30823346972465515
1761315437177770000,8.54877001953125,-0.44583606719970703,-0.02996162697672844,-0.4084194600582123
1761315437187817700,8.558817626953125,-0.448081910610199,-0.016970194876194,-0.4966989755630493
1761315437197865000,8.568864990234376,-0.436310738325119,-0.021801702678203583,-0.5565977096557617
1761315437207913000,8.578912841796875,-0.4254743456840515,-0.014328871853649616,-0.5876504778862
1761315437217961000,8.5889609375,-0.39993223547935486,0.009666741825640202,-0.5789182186126709
1761315437228009000,8.599009033203124,-0.3617100119590759,0.03821822628378868,-0.5357169508934021
1761315437238057000,8.609056884765625,-0.313175231218338,0.06668155640363693,-0.4613734781742096
1761315437248104700,8.619104736328126,-0.25421151518821716,0.0835215225815773,-0.37020042538642883
1761315437258152000,8.62915185546875,-0.1829242706298828,0.08750162273645401,-0.2724006175994873
1761315437268200000,8.639199951171875,-0.11688107997179031,0.0630551353096962,-0.18057137727737427
1761315437278248000,8.649248046875,-0.05723133310675621,0.008771653287112713,-0.10522788763046265
1761315437288296000,8.6592958984375,-0.014108628034591675,-0.05866650864481926,-0.050814710557460785
1761315437298344000,8.669343994140625,0.0044232443906366825,-0.12374990433454514,-0.009706955403089523
1761315437308392000,8.679391845703124,0.003376888344064355,-0.16519135236740112,0.0206296443939209
1761315437318440000,8.68943994140625,-0.0041278996504843235,-0.1722596436738968,0.0388115793466568
1761315437328487000,8.69948681640625,-0.02454688772559166,-0.16008260846138,0.03575213998556137
1761315437338535000,8.709534912109374,-0.049922287464141846,-0.13783589005470276,0.005649097263813019
1761315437348583000,8.7195830078125,-0.06306658685207367,-0.11761397868394852,-0.05023067817091942
1761315437358631000,8.729630859375,-0.08389037102460861,-0.09852045029401779,-0.13062751293182373
1761315437368679200,8.73967919921875,-0.088456891477108,-0.07350990176200867,-0.20921847224235535
1761315437378727000,8.749726806640625,-0.08900923281908035,-0.04165929555892944,-0.2766648828983307
1761315437388774000,8.75977392578125,-0.08614660054445267,-0.02172766625881195,-0.32246512174606323
1761315437398822000,8.76982177734375,-0.0743168443441391,-0.00977326836436987,-0.3370629847049713
1761315437408870000,8.779869873046875,-0.056590840220451355,0.003063966752961278,-0.3083690106868744
1761315437418918000,8.78991796875,-0.032532643526792526,0.010374876670539379,-0.2532956600189209
1761315437428966100,8.799966064453125,-0.008236624300479889,0.0021411816123872995,-0.18552006781101227
1761315437439014000,8.810013916015626,0.02190157026052475,-0.011844142340123653,-0.1124916598200798
1761315437449060900,8.820060791015624,0.04622581973671913,-0.0315837599337101,-0.042446527630090714
1761315437459108900,8.83010888671875,0.06770208477973938,-0.04722610116004944,0.026789803057909012
1761315437469156900,8.840156982421876,0.08877886831760406,-0.05865638703107834,0.08939459174871445
1761315437479204900,8.850204833984375,0.11001598089933395,-0.06047666072845459,0.1398327350616455
1761315437489253000,8.860253173828125,0.1318054348230362,-0.06911755353212357,0.17345327138900757
1761315437499300900,8.87030078125,0.16034972667694092,-0.07654191553592682,0.19218994677066803
1761315437509347800,8.880347900390625,0.18263666331768036,-0.0712752416729927,0.20459336042404175
1761315437519394800,8.890394775390625,0.19354602694511414,-0.04538186267018318,0.21826443076133728
1761315437529443000,8.900443115234374,0.19681958854198456,-0.023681627586483955,0.22684858739376068
1761315437539490800,8.91049072265625,0.19419264793395996,-0.0036373452749103308,0.2354317009449005
1761315437549538800,8.920538818359375,0.18291468918323517,0.029644977301359177,0.24754934012889862
1761315437559587000,8.930587158203124,0.1686886101961136,0.07633232325315475,0.25259336829185486
1761315437569634000,8.940634033203125,0.1654755175113678,0.13788357377052307,0.25300776958465576
1761315437579679000,8.950678955078125,0.17704720795154572,0.18358154594898224,0.24268826842308044
1761315437589727000,8.96072705078125,0.1956067830324173,0.1460442841053009,0.21415942907333374
1761315437599774700,8.970774658203124,0.21258363127708435,0.08468931913375854,0.17780861258506775
1761315437609823000,8.980822998046875,0.2146390676498413,0.041067276149988174,0.14232279360294342
1761315437619871000,8.99087109375,0.1989610344171524,0.0007118629291653633,0.09773188829421997
1761315437629918000,9.00091796875,0.16087809205055237,-0.031622640788555145,0.05066876858472824
1761315437639966000,9.010966064453125,0.10874538868665695,-0.055579107254743576,0.014630608260631561
1761315437650014000,9.021013916015624,0.054609980434179306,-0.07115140557289124,-0.008195078931748867
1761315437660062000,9.03106201171875,0.016046611592173576,-0.07279617339372635,-0.012748286128044128
1761315437670110000,9.04110986328125,-0.0022413162514567375,-0.06161489337682724,0.011031345464289188
1761315437680158000,9.051157958984374,-0.002335858531296253,-0.03217870742082596,0.05059553310275078
1761315437690205700,9.061205810546875,0.022789468988776207,0.01067900937050581,0.09011178463697433
1761315437700253000,9.0712529296875,0.05981859192252159,0.056121859699487686,0.12371847778558731
1761315437710301000,9.081301025390625,0.1008634939789772,0.0936918705701828,0.14279842376708984
1761315437720349000,9.091348876953125,0.14260855317115784,0.12459146231412888,0.1426232010126114
1761315437730397000,9.10139697265625,0.17310254275798798,0.1591387838125229,0.1394532322883606
1761315437740445000,9.11144482421875,0.19458599388599396,0.18300551176071167,0.13598792254924774
1761315437750493000,9.121492919921875,0.21268057823181152,0.2143796682357788,0.1374819576740265
1761315437760540000,9.131539794921874,0.2237236350774765,0.24403023719787598,0.14902782440185547
1761315437770588000,9.141587890625,0.23104919493198395,0.27311062812805176,0.17017386853694916
1761315437780636000,9.151635986328126,0.23763439059257507,0.3060975968837738,0.20162978768348694
1761315437790684000,9.161683837890624,0.24669073522090912,0.3337433636188507,0.23405803740024567
1761315437800732000,9.17173193359375,0.26048725843429565,0.3537660539150238,0.2726863920688629
1761315437810780200,9.1817802734375,0.2718384265899658,0.3658941090106964,0.31668686866760254
1761315437820827000,9.191826904296875,0.29115328192710876,0.3531857430934906,0.36327195167541504
1761315437830875000,9.201875,0.31650310754776,0.3401402533054352,0.4107867479324341
1761315437840923000,9.2119228515625,0.34703704714775085,0.31532999873161316,0.45430225133895874
1761315437850971000,9.221970947265625,0.37554511427879333,0.26573634147644043,0.4819200336933136
1761315437861019000,9.232018798828125,0.39484238624572754,0.17730315029621124,0.48784077167510986
1761315437871067100,9.242067138671874,0.39770662784576416,0.0871088057756424,0.4790928363800049
1761315437881114000,9.252114013671875,0.389273464679718,0.012633503414690495,0.45242658257484436
1761315437891161900,9.262161865234376,0.3673601746559143,-0.0654948502779007,0.3945707380771637
1761315437901209900,9.2722099609375,0.35209065675735474,-0.1363687664270401,0.30896395444869995
1761315437911257900,9.2822578125,0.33056166768074036,-0.1923135221004486,0.19064106047153473
1761315437921305900,9.292305908203126,0.3076600730419159,-0.243056058883667,0.0409809872508049
1761315437931354000,9.30235400390625,0.27257585525512695,-0.268832802772522,-0.116793192923069
1761315437941401900,9.31240185546875,0.22055794298648834,-0.2640012800693512,-0.2597777843475342
1761315437951448800,9.32244873046875,0.15385481715202332,-0.2516618072986603,-0.383035272359848
1761315437961496800,9.332496826171875,0.07382415980100632,-0.23104892671108246,-0.4727076292037964
1761315437971545000,9.342545166015626,0.001669269404374063,-0.19606751203536987,-0.5283288359642029
1761315437981592800,9.3525927734375,-0.060921140015125275,-0.13982261717319489,-0.532592236995697
1761315437991641000,9.36264111328125,-0.10587476938962936,-0.03256247192621231,-0.47657373547554016
1761315438001688800,9.372688720703126,-0.13207094371318817,0.11284026503562927,-0.38017821311950684
1761315438011735800,9.38273583984375,-0.13639326393604279,0.2601511478424072,-0.2635200619697571
1761315438021783800,9.39278369140625,-0.11622301489114761,0.38657885789871216,-0.1507604867219925
1761315438031832000,9.40283203125,-0.07671421766281128,0.4647809863090515,-0.06266950815916061
1761315438041879800,9.4128798828125,-0.03753272816538811,0.48624899983406067,-0.019842946901917458
1761315438051928000,9.422927978515625,-0.00875114742666483,0.4618033170700073,-0.01577550172805786
1761315438061976000,9.43297607421875,0.0004450142150744796,0.406575471162796,-0.02743695117533207
1761315438072023000,9.44302294921875,-0.012259063310921192,0.34645727276802063,-0.06077120453119278
1761315438082070800,9.45307080078125,-0.03485092520713806,0.26347264647483826,-0.10024271160364151
1761315438092119000,9.463119140625,-0.05589815229177475,0.15901228785514832,-0.14223571121692657
1761315438102166800,9.473166748046875,-0.07015778124332428,0.05564355477690697,-0.18476292490959167
1761315438112215000,9.483215087890626,-0.07470166683197021,-0.022114623337984085,-0.22115129232406616
1761315438122263000,9.493262939453125,-0.075445756316185,-0.06844936311244965,-0.2468569278717041
1761315438132310800,9.503310791015625,-0.07028215378522873,-0.08687151223421097,-0.2646649479866028
1761315438142357800,9.513357666015626,-0.0657246857881546,-0.09797130525112152,-0.2827211916446686
1761315438152406000,9.523406005859375,-0.06547674536705017,-0.12539467215538025,-0.3076472878456116
1761315438162454000,9.5334541015625,-0.06947148591279984,-0.16504114866256714,-0.3422926366329193
1761315438172502000,9.543501953125,-0.07579835504293442,-0.2132190614938736,-0.36298805475234985
1761315438182552800,9.553552734375,-0.08989473432302475,-0.2311895489692688,-0.36002317070961
1761315438192601000,9.56360107421875,-0.10562602430582047,-0.22836633026599884,-0.34780219197273254
1761315438202647800,9.573647705078125,-0.11637295037508011,-0.22766245901584625,-0.3267458975315094
1761315438212695800,9.58369580078125,-0.12929967045783997,-0.22202667593955994,-0.30125412344932556
1761315438222744000,9.593744140625,-0.14289590716362,-0.1956632435321808,-0.2727836072444916
1761315438232791800,9.603791748046875,-0.16405844688415527,-0.1652723103761673,-0.24692189693450928
1761315438242839800,9.61383984375,-0.18260124325752258,-0.13643240928649902,-0.221366748213768
1761315438252888000,9.62388818359375,-0.1951303482055664,-0.09403994679450989,-0.19280646741390228
1761315438262935000,9.63393505859375,-0.21839651465415955,-0.0457451194524765,-0.15206116437911987
1761315438272982800,9.643982666015624,-0.23637525737285614,-0.0028474517166614532,-0.10846894979476929
1761315438283031000,9.654031005859375,-0.24984046816825867,0.013645770959556103,-0.07040651887655258
1761315438293078800,9.664078857421876,-0.26650145649909973,0.01088700257241726,-0.03801635652780533
1761315438303126800,9.674126708984375,-0.2762763202190399,-0.010479005984961987,-0.0067569720558822155
1761315438313175000,9.684175048828125,-0.2892725467681885,-0.05089753493666649,0.013706224970519543
1761315438323222800,9.694222900390624,-0.29389312863349915,-0.10012499988079071,0.02040141075849533
1761315438333269800,9.704269775390625,-0.3101852834224701,-0.1473071575164795,0.021283451467752457
1761315438343318000,9.714318115234375,-0.3300231695175171,-0.17878545820713043,0.021330323070287704
1761315438353366000,9.724365966796874,-0.3588891923427582,-0.1988164186477661,0.01654595322906971
1761315438363413800,9.734413818359375,-0.381130576133728,-0.22311723232269287,0.02189464680850506
1761315438373462000,9.7444619140625,-0.4045032858848572,-0.25464561581611633,0.02930409274995327
1761315438383509800,9.754509765625,-0.41740283370018005,-0.27948009967803955,0.05121338739991188
1761315438393558000,9.76455810546875,-0.4186113774776459,-0.31204017996788025,0.08519025892019272
1761315438403605000,9.77460498046875,-0.41522836685180664,-0.3544451594352722,0.12764771282672882
1761315438413653000,9.784653076171875,-0.40646442770957947,-0.3728811740875244,0.17555078864097595
1761315438423701000,9.794700927734375,-0.39637291431427,-0.38640522956848145,0.21225394308567047
1761315438433749000,9.8047490234375,-0.39202743768692017,-0.38066238164901733,0.21874432265758514
1761315438443797000,9.814796875,-0.39362531900405884,-0.36878761649131775,0.19375215470790863
1761315438453845000,9.824844970703126,-0.4044071435928345,-0.38992592692375183,0.12081217020750046
1761315438463892000,9.83489208984375,-0.43059611320495605,-0.40403643250465393,0.00039308256236836314
1761315438473940000,9.84493994140625,-0.4477018713951111,-0.43313437700271606,-0.1577797830104828
1761315438483988000,9.854988037109376,-0.47093209624290466,-0.4806861877441406,-0.34846076369285583
1761315438494036000,9.865035888671875,-0.4843059480190277,-0.5175499320030212,-0.5296409726142883
1761315438504084000,9.875083984375,-0.5012252926826477,-0.5294046998023987,-0.6875943541526794
1761315438514133000,9.885133056640624,-0.5325584411621094,-0.5044741034507751,-0.8115687966346741
1761315438524181000,9.895180908203125,-0.5538187026977539,-0.47620221972465515,-0.8761703968048096
1761315438534228000,9.90522802734375,-0.5607629418373108,-0.43940266966819763,-0.8772303462028503
1761315438544276000,9.91527587890625,-0.5608177781105042,-0.3854757845401764,-0.8111844658851624
1761315438554324000,9.925323974609375,-0.5501917600631714,-0.34128010272979736,-0.6994744539260864
1761315438564371700,9.935371826171876,-0.5276046991348267,-0.27615275979042053,-0.5739559531211853
1761315438574420000,9.945419921875,-0.4946962893009186,-0.17871062457561493,-0.45584315061569214
1761315438584468000,9.955468017578125,-0.4461449980735779,-0.0559716559946537,-0.3545069396495819
1761315438594515000,9.965514892578126,-0.39853140711784363,0.11218299716711044,-0.2653033137321472
1761315438604563000,9.97556298828125,-0.371011346578598,0.2906949520111084,-0.18287447094917297
1761315438614611000,9.98561083984375,-0.3556899428367615,0.43967005610466003,-0.10184300690889359
1761315438624659000,9.995658935546874,-0.3367631137371063,0.5476082563400269,-0.02418816089630127
1761315438634707000,10.00570703125,-0.30440250039100647,0.5799019932746887,0.04982854425907135
1761315438644755000,10.0157548828125,-0.2693643569946289,0.5465102195739746,0.11753222346305847
1761315438654802700,10.025802734375,-0.23715901374816895,0.4614214301109314,0.16562332212924957
1761315438664850000,10.035849853515625,-0.19256998598575592,0.33752185106277466,0.20664584636688232
1761315438674898000,10.04589794921875,-0.1485825479030609,0.2253444343805313,0.250302791595459
1761315438684946000,10.05594580078125,-0.11949817091226578,0.13453783094882965,0.2893820106983185
1761315438694994000,10.065993896484375,-0.10352665930986404,0.06690233200788498,0.3180820941925049
1761315438705042000,10.0760419921875,-0.09645356982946396,0.03003566339612007,0.33383363485336304
1761315438715090000,10.08608984375,-0.08606564253568649,0.013937386684119701,0.35793444514274597
1761315438725137000,10.096136962890625,-0.08809417486190796,0.03208336606621742,0.3811098039150238
1761315438735185000,10.106184814453124,-0.10399297624826431,0.07251068204641342,0.39787280559539795
1761315438745233000,10.11623291015625,-0.1262703239917755,0.09605569392442703,0.3914191722869873
1761315438755281000,10.126281005859376,-0.14757667481899261,0.08827953040599823,0.36047056317329407
1761315438765329000,10.136328857421875,-0.14916019141674042,0.07227792590856552,0.31994950771331787
1761315438775377000,10.146376953125,-0.14499154686927795,0.0538664273917675,0.28663522005081177
1761315438785425000,10.1564248046875,-0.1316123604774475,0.04410168156027794,0.2617884576320648
1761315438795472000,10.166471923828125,-0.12254375964403152,0.09398321807384491,0.2559007406234741
1761315438805520000,10.176519775390625,-0.10661512613296509,0.15393416583538055,0.24071326851844788
1761315438815568000,10.18656787109375,-0.09410226345062256,0.12455178052186966,0.2110283523797989
1761315438825616000,10.196615966796875,-0.11797457188367844,0.09672148525714874,0.2027943879365921
1761315438835664000,10.206663818359376,-0.1552543044090271,0.13899090886116028,0.2217603623867035
1761315438845712000,10.2167119140625,-0.2174452394247055,0.22979271411895752,0.2496737539768219
1761315438855760000,10.226759765625,-0.27882710099220276,0.34939900040626526,0.2476726472377777
1761315438865806800,10.236806884765626,-0.3292900025844574,0.45715904235839844,0.2000875473022461
1761315438875854800,10.246854736328125,-0.367681086063385,0.49596261978149414,0.09658699482679367
1761315438885902800,10.25690283203125,-0.39455318450927734,0.4261015057563782,-0.047143276780843735
1761315438895950800,10.266950927734374,-0.3994174301624298,0.306605726480484,-0.2026950567960739
1761315438905998800,10.276998779296875,-0.39168575406074524,0.1836332082748413,-0.32883593440055847
1761315438916046800,10.287046875,-0.36483389139175415,0.08141443133354187,-0.413036584854126
1761315438926093800,10.29709375,-0.32677891850471497,0.007690410129725933,-0.44787871837615967
1761315438936142000,10.30714208984375,-0.2961493730545044,-0.05398227646946907,-0.44873011112213135
1761315438946189800,10.31718994140625,-0.28977641463279724,-0.11599185317754745,-0.42599019408226013
1761315438956237800,10.32723779296875,-0.2891803979873657,-0.1597268134355545,-0.38559508323669434
1761315438966285800,10.337285888671875,-0.2966407239437103,-0.18566067516803741,-0.3337894380092621
1761315438976333800,10.347333740234374,-0.3017406761646271,-0.1414482146501541,-0.2682466208934784
1761315438986381800,10.3573818359375,-0.30153775215148926,-0.0479118637740612,-0.2044849693775177
1761315438996429000,10.367428955078125,-0.2822447419166565,0.05918608978390694,-0.1501666009426117
1761315439006476800,10.377476806640624,-0.24772991240024567,0.11641289293766022,-0.09761230647563934
1761315439016524800,10.38752490234375,-0.20965255796909332,0.08204080909490585,-0.06141702085733414
1761315439026573000,10.397572998046876,-0.16458041965961456,0.005273858085274696,-0.03166285529732704
1761315439036620800,10.407620849609375,-0.13371172547340393,-0.07138736546039581,0.011544536799192429
1761315439046669000,10.4176689453125,-0.11361497640609741,-0.14814366400241852,0.060921140015125275
1761315439056716000,10.427716064453126,-0.09394966810941696,-0.20286229252815247,0.11039628088474274
1761315439066763800,10.437763671875,-0.08042080700397491,-0.22911708056926727,0.14969202876091003
1761315439076811800,10.447811767578125,-0.07411044836044312,-0.20932365953922272,0.17294888198375702
1761315439086860000,10.457860107421874,-0.08005142956972122,-0.1710958480834961,0.17697983980178833
1761315439096907800,10.46790771484375,-0.10463692992925644,-0.15995265543460846,0.16089141368865967
1761315439106956000,10.4779560546875,-0.1358153522014618,-0.15152160823345184,0.13164643943309784
1761315439117004000,10.488004150390625,-0.16029326617717743,-0.15679147839546204,0.08649041503667831
1761315439127050800,10.49805078125,-0.1731315702199936,-0.17863872647285461,0.04886740818619728
1761315439137098800,10.5080986328125,-0.1693594604730606,-0.20039381086826324,0.023603329434990883
1761315439147147000,10.51814697265625,-0.157279372215271,-0.20071633160114288,0.030491596087813377
1761315439157194800,10.52819482421875,-0.14178216457366943,-0.19247330725193024,0.05783187597990036
1761315439167243000,10.538242919921874,-0.11196568608283997,-0.20272061228752136,0.09247960150241852
1761315439177291000,10.548291015625,-0.061958976089954376,-0.25006362795829773,0.12786875665187836
1761315439187338800,10.5583388671875,-0.01507189404219389,-0.3157816529273987,0.15948154032230377
1761315439197385700,10.5683857421875,0.013133911415934563,-0.37316879630088806,0.18676109611988068
1761315439207434000,10.57843408203125,0.03368286043405533,-0.37310460209846497,0.23781947791576385
1761315439217481700,10.588481689453126,0.060564275830984116,-0.27742016315460205,0.29637840390205383
1761315439227530000,10.598530029296874,0.09055866301059723,-0.19841349124908447,0.3202853202819824
1761315439237578000,10.608577880859375,0.1084124967455864,-0.13770008087158203,0.31454676389694214
1761315439247625700,10.618625732421876,0.13294340670108795,-0.1085246130824089,0.2734384536743164
1761315439257672700,10.628672607421874,0.1556905210018158,-0.06904937326908112,0.22732317447662354
1761315439267721000,10.638720947265625,0.15369555354118347,-0.028007399290800095,0.18268965184688568
1761315439277769000,10.64876904296875,0.11686296761035919,-0.014168549329042435,0.1511106938123703
1761315439287817000,10.65881689453125,0.06932980567216873,0.0036171053070575,0.12231765687465668
1761315439297865000,10.668864990234376,0.03929441049695015,0.040652886033058167,0.09295337647199631
1761315439307912700,10.67891259765625,0.03406396135687828,0.060501161962747574,0.0473502054810524
1761315439317961000,10.6889609375,0.03135765716433525,0.048526521772146225,0.020548684522509575
1761315439328008000,10.699008056640626,0.02454821951687336,0.03303065523505211,0.016708938404917717
1761315439338056000,10.709055908203124,-0.002520682057365775,0.02520602010190487,0.017677530646324158
1761315439348104000,10.71910400390625,-0.02269093133509159,0.046304114162921906,-0.0023454460315406322
1761315439358152000,10.72915185546875,-0.028729382902383804,0.06395821273326874,-0.047023169696331024
1761315439368200000,10.739199951171875,-0.02400306984782219,0.06718596071004868,-0.08839084953069687
1761315439378248000,10.749248046875,-0.062012504786252975,0.10863060504198074,0.0734984502196312
1761315439388296000,10.7592958984375,-0.06697716563940048,-0.20988398790359497,0.1814960241317749
1761315439398343000,10.769343017578125,0.046904925256967545,-0.5451868772506714,0.1737227886915207
1761315439408391000,10.779390869140625,0.21279668807983398,-0.6533895134925842,0.1300743818283081
1761315439418439000,10.78943896484375,0.2903285026550293,-0.6063935160636902,0.10883566737174988
1761315439428487000,10.79948681640625,0.27743586897850037,-0.40925487875938416,0.10861729085445404
1761315439438535000,10.809534912109376,0.22937540709972382,-0.15104570984840393,0.12018685787916183
1761315439448583000,10.8195830078125,0.1928354948759079,0.08180218935012817,0.12373445928096771
1761315439458630000,10.8296298828125,0.17306844890117645,0.2753269076347351,0.12299782782793045
1761315439468678000,10.839677978515626,0.13874803483486176,0.43497276306152344,0.16028207540512085
1761315439478726000,10.849725830078125,0.13121634721755981,0.5621221661567688,0.253068745136261
