time,seconds_elapsed,z,y,x
1761333729118897400,0.0678974609375,9.868000984191895,0.576670229434967,0.2632105052471161
1761333729137597000,0.086596923828125,9.90149974822998,0.5575276613235474,0.275174617767334
1761333729156296200,0.105296142578125,9.875179290771484,0.5623133182525635,0.27038896083831787
1761333729174995700,0.12399560546875,9.805787086486816,0.5694918036460876,0.2727817893028259
1761333729193695200,0.1426953125,9.877572059631348,0.5838487148284912,0.26081767678260803
1761333729212394800,0.161394775390625,9.889535903930664,0.5790630578994751,0.2584248483181
1761333729231094000,0.180093994140625,9.899106979370117,0.5862415432929993,0.26081767678260803
1761333729249793500,0.19879345703125,9.882357597351074,0.5742774605751038,0.2560320198535919
1761333729268493000,0.2174931640625,9.889535903930664,0.576670229434967,0.26560330390930176
1761333729287192600,0.236192626953125,9.870393753051758,0.5742774605751038,0.2584248483181
1761333729305892000,0.25489208984375,9.906285285949707,0.5790630578994751,0.2560320198535919
1761333729324591600,0.273591552734375,9.879964828491211,0.5718846321105957,0.2679961323738098
1761333729343291000,0.292290771484375,9.89432144165039,0.5742774605751038,0.2679961323738098
1761333729361990400,0.310990478515625,9.879964828491211,0.5862415432929993,0.2632105052471161
1761333729380690000,0.32968994140625,9.89432144165039,0.576670229434967,0.2560320198535919
1761333729399389400,0.348389404296875,9.877572059631348,0.5838487148284912,0.2632105052471161
1761333729418088700,0.367088623046875,9.8871431350708,0.5838487148284912,0.2512463629245758
1761333729436788200,0.385788330078125,9.872786521911621,0.5647061467170715,0.2632105052471161
1761333729455487700,0.40448779296875,9.872786521911621,0.5862415432929993,0.24406790733337402
1761333729474187300,0.423187255859375,9.882357597351074,0.5814558863639832,0.27756741642951965
1761333729492886800,0.44188671875,9.884750366210938,0.5838487148284912,0.2679961323738098
1761333729511586300,0.46058642578125,9.8871431350708,0.576670229434967,0.26560330390930176
1761333729530285600,0.47928564453125,9.896714210510254,0.5838487148284912,0.2560320198535919
1761333729548985000,0.497985107421875,9.868000984191895,0.5814558863639832,0.275174617767334
1761333729567684600,0.5166845703125,9.8871431350708,0.5718846321105957,0.26560330390930176
1761333729586384100,0.535384033203125,9.877572059631348,0.6005984544754028,0.27756741642951965
1761333729605083400,0.55408349609375,9.8871431350708,0.576670229434967,0.26560330390930176
1761333729623783000,0.572782958984375,9.89432144165039,0.5814558863639832,0.25363919138908386
1761333729642482400,0.591482421875,9.89432144165039,0.5718846321105957,0.2679961323738098
1761333729661182000,0.610181884765625,9.875179290771484,0.5958128571510315,0.2632105052471161
1761333729679881500,0.628881591796875,9.872786521911621,0.5647061467170715,0.26081767678260803
1761333729698581000,0.6475810546875,9.8871431350708,0.5934200286865234,0.26081767678260803
1761333729717280300,0.6662802734375,9.889535903930664,0.5838487148284912,0.26560330390930176
1761333729735979800,0.684979736328125,9.896714210510254,0.5742774605751038,0.2560320198535919
1761333729754679300,0.70367919921875,9.89432144165039,0.5838487148284912,0.27038896083831787
1761333729773378800,0.72237890625,9.882357597351074,0.576670229434967,0.26081767678260803
1761333729792078000,0.741078125,9.875179290771484,0.5934200286865234,0.26081767678260803
1761333729810777600,0.759777587890625,9.882357597351074,0.5670989751815796,0.2512463629245758
1761333729829477000,0.77847705078125,9.882357597351074,0.5718846321105957,0.2584248483181
1761333729848176600,0.7971767578125,9.884750366210938,0.576670229434967,0.2512463629245758
1761333729866876200,0.815876220703125,9.899106979370117,0.5886343717575073,0.2512463629245758
1761333729885575700,0.83457568359375,9.884750366210938,0.5958128571510315,0.2560320198535919
1761333729904275000,0.85327490234375,9.891928672790527,0.5790630578994751,0.2632105052471161
1761333729922974500,0.871974365234375,9.882357597351074,0.5814558863639832,0.2584248483181
1761333729941674000,0.890674072265625,9.872786521911621,0.5718846321105957,0.27038896083831787
1761333729960373500,0.90937353515625,9.882357597351074,0.576670229434967,0.2560320198535919
1761333729979073000,0.928072998046875,9.860821723937988,0.5742774605751038,0.2584248483181
1761333729997772300,0.946772216796875,9.879964828491211,0.5694918036460876,0.26081767678260803
1761333730016471800,0.965471923828125,9.884750366210938,0.5718846321105957,0.24406790733337402
1761333730035171300,0.98417138671875,9.899106979370117,0.5742774605751038,0.2632105052471161
1761333730053870800,1.002870849609375,9.891928672790527,0.5599204897880554,0.25363919138908386
1761333730072570400,1.0215703125,9.882357597351074,0.5718846321105957,0.2584248483181
1761333730091269600,1.04026953125,9.889535903930664,0.5742774605751038,0.26560330390930176
1761333730109969200,1.05896923828125,9.884750366210938,0.5670989751815796,0.28953152894973755
1761333730128668700,1.077668701171875,9.889535903930664,0.5886343717575073,0.25363919138908386
1761333730147368200,1.0963681640625,9.865608215332031,0.5623133182525635,0.26081767678260803
1761333730166067700,1.115067626953125,9.899106979370117,0.5814558863639832,0.2632105052471161
1761333730184767200,1.133767333984375,9.8871431350708,0.576670229434967,0.2584248483181
1761333730203466800,1.152466796875,9.896714210510254,0.5814558863639832,0.26560330390930176
1761333730222166000,1.171166015625,9.882357597351074,0.5862415432929993,0.24646073579788208
1761333730240865500,1.189865478515625,9.882357597351074,0.5742774605751038,0.24885354936122894
1761333730259565000,1.20856494140625,9.884750366210938,0.576670229434967,0.26081767678260803
1761333730278264300,1.227264404296875,9.877572059631348,0.5694918036460876,0.2560320198535919
1761333730296963800,1.2459638671875,9.882357597351074,0.5862415432929993,0.24646073579788208
1761333730315663400,1.264663330078125,9.8871431350708,0.5790630578994751,0.2679961323738098
1761333730334363000,1.28336279296875,9.872786521911621,0.5910272002220154,0.24406790733337402
1761333730353062400,1.3020625,9.884750366210938,0.5838487148284912,0.2560320198535919
1761333730371762000,1.320761962890625,9.879964828491211,0.5718846321105957,0.24646073579788208
1761333730390461400,1.33946142578125,9.877572059631348,0.5814558863639832,0.26081767678260803
1761333730409160700,1.35816064453125,9.884750366210938,0.5838487148284912,0.24885354936122894
1761333730427860200,1.376860107421875,9.8871431350708,0.5694918036460876,0.26081767678260803
1761333730446559700,1.395559814453125,9.879964828491211,0.5886343717575073,0.27038896083831787
1761333730465259000,1.414259033203125,9.882357597351074,0.5790630578994751,0.24646073579788208
1761333730483958500,1.43295849609375,9.877572059631348,0.576670229434967,0.2512463629245758
1761333730502658000,1.451657958984375,9.889535903930664,0.5814558863639832,0.2799602448940277
1761333730521357600,1.470357666015625,9.891928672790527,0.5862415432929993,0.2560320198535919
1761333730540057000,1.48905712890625,9.8871431350708,0.5647061467170715,0.26560330390930176
1761333730558756600,1.507756591796875,9.896714210510254,0.5838487148284912,0.2632105052471161
1761333730577456000,1.5264560546875,9.89432144165039,0.5958128571510315,0.2679961323738098
1761333730596155400,1.5451552734375,9.891928672790527,0.5694918036460876,0.275174617767334
1761333730614855000,1.56385498046875,9.872786521911621,0.5814558863639832,0.2584248483181
1761333730633554400,1.582554443359375,9.882357597351074,0.5694918036460876,0.2560320198535919
1761333730652254000,1.60125390625,9.879964828491211,0.576670229434967,0.2512463629245758
1761333730670953500,1.619953369140625,9.872786521911621,0.5742774605751038,0.26560330390930176
1761333730689653000,1.638653076171875,9.884750366210938,0.5790630578994751,0.26081767678260803
1761333730708352300,1.657352294921875,9.875179290771484,0.5910272002220154,0.25363919138908386
1761333730727051800,1.6760517578125,9.877572059631348,0.5862415432929993,0.26081767678260803
1761333730745751300,1.694751220703125,9.884750366210938,0.5838487148284912,0.24885354936122894
1761333730764450800,1.713450927734375,9.877572059631348,0.5742774605751038,0.27756741642951965
1761333730783150000,1.732150146484375,9.8871431350708,0.5718846321105957,0.27038896083831787
1761333730801849600,1.750849609375,9.863214492797852,0.5910272002220154,0.2584248483181
1761333730820549000,1.769549072265625,9.896714210510254,0.5814558863639832,0.24406790733337402
1761333730839248600,1.78824853515625,9.889535903930664,0.5742774605751038,0.26560330390930176
1761333730857948200,1.8069482421875,9.877572059631348,0.5862415432929993,0.2727817893028259
1761333730876647700,1.825647705078125,9.891928672790527,0.5718846321105957,0.2512463629245758
1761333730895347000,1.844346923828125,9.872786521911621,0.6005984544754028,0.275174617767334
1761333730914046500,1.86304638671875,9.884750366210938,0.5886343717575073,0.26560330390930176
1761333730932746000,1.88174609375,9.872786521911621,0.5694918036460876,0.26081767678260803
1761333730951445500,1.900445556640625,9.884750366210938,0.5814558863639832,0.2512463629245758
1761333730970145000,1.91914501953125,9.875179290771484,0.5694918036460876,0.24406790733337402
1761333730988844500,1.937844482421875,9.877572059631348,0.5670989751815796,0.2799602448940277
1761333731007543800,1.956543701171875,9.879964828491211,0.5647061467170715,0.24167509377002716
1761333731026243300,1.975243408203125,9.879964828491211,0.5599204897880554,0.27038896083831787
1761333731044942800,1.99394287109375,9.89432144165039,0.5742774605751038,0.25363919138908386
1761333731063642400,2.012642333984375,9.884750366210938,0.5670989751815796,0.27038896083831787
1761333731082342000,2.031341796875,9.884750366210938,0.5910272002220154,0.24167509377002716
1761333731101041200,2.050041259765625,9.891928672790527,0.5742774605751038,0.23449662327766418
1761333731119740700,2.06874072265625,9.896714210510254,0.5790630578994751,0.2632105052471161
1761333731138440200,2.087440185546875,9.879964828491211,0.6029912829399109,0.2584248483181
1761333731157139700,2.1061396484375,9.8871431350708,0.5862415432929993,0.2727817893028259
1761333731175839200,2.124839111328125,9.891928672790527,0.5790630578994751,0.2632105052471161
1761333731194538500,2.14353857421875,9.884750366210938,0.5670989751815796,0.2679961323738098
1761333731213238000,2.162238037109375,9.877572059631348,0.5742774605751038,0.2512463629245758
1761333731231937500,2.1809375,9.891928672790527,0.5790630578994751,0.25363919138908386
1761333731250637000,2.199636962890625,9.875179290771484,0.5694918036460876,0.24646073579788208
1761333731269336600,2.218336669921875,9.884750366210938,0.5670989751815796,0.25363919138908386
1761333731288036000,2.2370361328125,9.877572059631348,0.5647061467170715,0.26081767678260803
1761333731306735400,2.2557353515625,9.868000984191895,0.576670229434967,0.2560320198535919
1761333731325435000,2.274434814453125,9.875179290771484,0.576670229434967,0.27038896083831787
1761333731344134400,2.293134521484375,9.879964828491211,0.5862415432929993,0.2392822653055191
1761333731362834000,2.311833984375,9.899106979370117,0.5790630578994751,0.2679961323738098
1761333731381533400,2.330533447265625,9.865608215332031,0.5718846321105957,0.24406790733337402
1761333731400233000,2.34923291015625,9.90149974822998,0.5623133182525635,0.25363919138908386
1761333731418932500,2.367932373046875,9.860821723937988,0.5934200286865234,0.24646073579788208
1761333731437631700,2.3866318359375,9.8871431350708,0.5742774605751038,0.26081767678260803
1761333731456331300,2.405331298828125,9.884750366210938,0.5718846321105957,0.26560330390930176
1761333731475030800,2.42403076171875,9.870393753051758,0.576670229434967,0.26081767678260803
1761333731493730300,2.442730224609375,9.877572059631348,0.5790630578994751,0.23688943684101105
1761333731512429800,2.461429931640625,9.89432144165039,0.607776939868927,0.25363919138908386
1761333731531129000,2.480129150390625,9.8871431350708,0.5886343717575073,0.2512463629245758
1761333731549828600,2.49882861328125,9.875179290771484,0.5862415432929993,0.2632105052471161
1761333731568528100,2.517528076171875,9.882357597351074,0.5718846321105957,0.2727817893028259
1761333731587227600,2.5362275390625,9.875179290771484,0.576670229434967,0.25363919138908386
1761333731605927200,2.55492724609375,9.879964828491211,0.5790630578994751,0.23688943684101105
1761333731624626400,2.57362646484375,9.868000984191895,0.5718846321105957,0.2584248483181
1761333731643326000,2.592325927734375,9.8871431350708,0.5814558863639832,0.24406790733337402
1761333731662025500,2.611025390625,9.879964828491211,0.5790630578994751,0.2512463629245758
1761333731680725000,2.62972509765625,9.889535903930664,0.576670229434967,0.24885354936122894
1761333731699424500,2.648424560546875,9.90149974822998,0.5838487148284912,0.24646073579788208
1761333731718124000,2.6671240234375,9.872786521911621,0.5551348328590393,0.26081767678260803
1761333731736823300,2.6858232421875,9.875179290771484,0.5838487148284912,0.24646073579788208
1761333731755522800,2.704522705078125,9.889535903930664,0.5814558863639832,0.2584248483181
1761333731774222300,2.723222412109375,9.872786521911621,0.5862415432929993,0.2560320198535919
1761333731792921900,2.741921875,9.870393753051758,0.5838487148284912,0.2679961323738098
1761333731811621400,2.760621337890625,9.896714210510254,0.5838487148284912,0.24646073579788208
1761333731830321000,2.77932080078125,9.8871431350708,0.5910272002220154,0.2560320198535919
1761333731849020200,2.798020263671875,9.872786521911621,0.5838487148284912,0.24406790733337402
1761333731867719700,2.8167197265625,9.889535903930664,0.576670229434967,0.2584248483181
1761333731886419200,2.835419189453125,9.90149974822998,0.5838487148284912,0.26081767678260803
1761333731905118700,2.85411865234375,9.879964828491211,0.5814558863639832,0.25363919138908386
1761333731923818200,2.872818359375,9.877572059631348,0.576670229434967,0.25363919138908386
1761333731942517800,2.891517822265625,9.865608215332031,0.5670989751815796,0.2560320198535919
1761333731961217000,2.910217041015625,9.877572059631348,0.5694918036460876,0.26081767678260803
1761333731979916500,2.92891650390625,9.8871431350708,0.5838487148284912,0.2584248483181
1761333731998616000,2.947615966796875,9.879964828491211,0.5814558863639832,0.2679961323738098
1761333732017315600,2.966315673828125,9.891928672790527,0.5718846321105957,0.2584248483181
1761333732036015000,2.98501513671875,9.879964828491211,0.5790630578994751,0.26560330390930176
1761333732054714600,3.003714599609375,9.882357597351074,0.5862415432929993,0.2727817893028259
1761333732073414100,3.0224140625,9.89432144165039,0.5790630578994751,0.26560330390930176
1761333732092113400,3.041113525390625,9.875179290771484,0.5647061467170715,0.2392822653055191
1761333732110813000,3.05981298828125,9.903892517089844,0.5670989751815796,0.2632105052471161
1761333732129512400,3.078512451171875,9.875179290771484,0.5886343717575073,0.2512463629245758
1761333732148212000,3.0972119140625,9.868000984191895,0.576670229434967,0.2584248483181
1761333732166911500,3.115911376953125,9.877572059631348,0.5982056856155396,0.24885354936122894
1761333732185611000,3.134611083984375,9.872786521911621,0.5958128571510315,0.26081767678260803
1761333732204310300,3.153310302734375,9.891928672790527,0.5886343717575073,0.2512463629245758
1761333732223009800,3.172009765625,9.884750366210938,0.5623133182525635,0.26081767678260803
1761333732241709300,3.190709228515625,9.8871431350708,0.5670989751815796,0.22971096634864807
1761333732260408800,3.209408935546875,9.884750366210938,0.5862415432929993,0.27038896083831787
1761333732279108400,3.2281083984375,9.889535903930664,0.5910272002220154,0.2560320198535919
1761333732297808000,3.246807861328125,9.889535903930664,0.5862415432929993,0.26081767678260803
1761333732316507100,3.265507080078125,9.903892517089844,0.5958128571510315,0.26560330390930176
1761333732335206700,3.28420654296875,9.8871431350708,0.5958128571510315,0.2560320198535919
1761333732353906200,3.30290625,9.882357597351074,0.5838487148284912,0.26560330390930176
1761333732372605700,3.321605712890625,9.891928672790527,0.5910272002220154,0.2512463629245758
1761333732391305200,3.34030517578125,9.8871431350708,0.5910272002220154,0.2632105052471161
1761333732410004700,3.359004638671875,9.884750366210938,0.5982056856155396,0.24646073579788208
1761333732428704300,3.377704345703125,9.882357597351074,0.576670229434967,0.26560330390930176
1761333732447403500,3.396403564453125,9.875179290771484,0.5718846321105957,0.2632105052471161
1761333732466103000,3.41510302734375,9.889535903930664,0.5670989751815796,0.27038896083831787
1761333732484802600,3.433802490234375,9.884750366210938,0.5742774605751038,0.25363919138908386
1761333732503502000,3.452502197265625,9.875179290771484,0.5910272002220154,0.25363919138908386
1761333732522201600,3.47120166015625,9.884750366210938,0.5838487148284912,0.2632105052471161
1761333732540901000,3.489901123046875,9.884750366210938,0.5718846321105957,0.24885354936122894
1761333732559600400,3.508600341796875,9.879964828491211,0.5694918036460876,0.2679961323738098
1761333732578300000,3.5272998046875,9.863214492797852,0.5862415432929993,0.26560330390930176
1761333732596999400,3.54599951171875,9.877572059631348,0.5790630578994751,0.2584248483181
1761333732615699000,3.564698974609375,9.868000984191895,0.5862415432929993,0.2512463629245758
1761333732634398500,3.5833984375,9.870393753051758,0.5886343717575073,0.26560330390930176
1761333732653098000,3.602097900390625,9.891928672790527,0.5670989751815796,0.26560330390930176
1761333732671797200,3.62079736328125,9.891928672790527,0.5862415432929993,0.26081767678260803
1761333732690496800,3.639496826171875,9.858428955078125,0.5623133182525635,0.2512463629245758
1761333732709196300,3.6581962890625,9.89432144165039,0.576670229434967,0.27038896083831787
1761333732727895800,3.676895751953125,9.884750366210938,0.5814558863639832,0.27038896083831787
1761333732746595300,3.69559521484375,9.8871431350708,0.576670229434967,0.26560330390930176
1761333732765294800,3.714294921875,9.889535903930664,0.5790630578994751,0.24646073579788208
1761333732783994000,3.732994140625,9.870393753051758,0.5623133182525635,0.2584248483181
1761333732802693600,3.751693603515625,9.8871431350708,0.5814558863639832,0.2584248483181
1761333732821393200,3.77039306640625,9.868000984191895,0.5838487148284912,0.26081767678260803
1761333732840092700,3.7890927734375,9.891928672790527,0.576670229434967,0.2584248483181
1761333732858792200,3.807792236328125,9.889535903930664,0.5886343717575073,0.2584248483181
1761333732877491700,3.82649169921875,9.877572059631348,0.5742774605751038,0.24885354936122894
1761333732896191200,3.845191162109375,9.90149974822998,0.576670229434967,0.2727817893028259
1761333732914890500,3.863890380859375,9.889535903930664,0.5790630578994751,0.2727817893028259
1761333732933590000,3.882590087890625,9.877572059631348,0.5910272002220154,0.24885354936122894
1761333732952289500,3.90128955078125,9.884750366210938,0.5742774605751038,0.2632105052471161
1761333732970989000,3.919989013671875,9.877572059631348,0.5790630578994751,0.24885354936122894
1761333732989688600,3.9386884765625,9.889535903930664,0.576670229434967,0.2584248483181
1761333733008388000,3.95738818359375,9.882357597351074,0.5814558863639832,0.27038896083831787
1761333733027087400,3.97608740234375,9.877572059631348,0.5886343717575073,0.25363919138908386
1761333733045787000,3.994786865234375,9.889535903930664,0.5934200286865234,0.26081767678260803
1761333733064486400,4.013486328125,9.879964828491211,0.5647061467170715,0.24885354936122894
1761333733083186000,4.03218603515625,9.877572059631348,0.5647061467170715,0.26081767678260803
1761333733101885400,4.050885498046875,9.884750366210938,0.576670229434967,0.2512463629245758
1761333733120585000,4.0695849609375,9.882357597351074,0.5718846321105957,0.27038896083831787
1761333733139284500,4.088284423828125,9.884750366210938,0.5623133182525635,0.24885354936122894
1761333733157984000,4.10698388671875,9.90149974822998,0.5694918036460876,0.24885354936122894
1761333733176683500,4.12568359375,9.868000984191895,0.5982056856155396,0.27756741642951965
1761333733195382800,4.1443828125,9.875179290771484,0.5838487148284912,0.2584248483181
1761333733214082300,4.163082275390625,9.882357597351074,0.5718846321105957,0.25363919138908386
1761333733232781800,4.18178173828125,9.891928672790527,0.5814558863639832,0.25363919138908386
1761333733251481300,4.2004814453125,9.8871431350708,0.5814558863639832,0.26081767678260803
1761333733270180900,4.219180908203125,9.868000984191895,0.5862415432929993,0.2560320198535919
1761333733288880400,4.23788037109375,9.891928672790527,0.5886343717575073,0.2560320198535919
1761333733307579600,4.25657958984375,9.860821723937988,0.5742774605751038,0.2584248483181
1761333733326279200,4.275279052734375,9.884750366210938,0.5814558863639832,0.24167509377002716
1761333733344978700,4.293978759765625,9.863214492797852,0.5742774605751038,0.275174617767334
1761333733363678200,4.31267822265625,9.889535903930664,0.576670229434967,0.26560330390930176
1761333733382377700,4.331377685546875,9.877572059631348,0.5599204897880554,0.27038896083831787
1761333733401077200,4.3500771484375,9.875179290771484,0.5790630578994751,0.2584248483181
1761333733419776500,4.368776611328125,9.877572059631348,0.5623133182525635,0.24646073579788208
1761333733438476000,4.38747607421875,9.879964828491211,0.5862415432929993,0.2632105052471161
1761333733457175600,4.406175537109375,9.891928672790527,0.576670229434967,0.2584248483181
1761333733475875000,4.424875,9.89432144165039,0.5742774605751038,0.25363919138908386
1761333733494574600,4.44357470703125,9.868000984191895,0.5790630578994751,0.2512463629245758
1761333733513274000,4.462274169921875,9.896714210510254,0.5934200286865234,0.26081767678260803
1761333733531973600,4.4809736328125,9.882357597351074,0.5647061467170715,0.2512463629245758
1761333733550673200,4.499673095703125,9.870393753051758,0.5647061467170715,0.26081767678260803
1761333733569372700,4.51837255859375,9.879964828491211,0.5718846321105957,0.24406790733337402
1761333733588072000,4.537072021484375,9.8871431350708,0.5790630578994751,0.2632105052471161
1761333733606771500,4.555771484375,9.879964828491211,0.5910272002220154,0.26081767678260803
1761333733625471000,4.574470947265625,9.899106979370117,0.5790630578994751,0.27038896083831787
1761333733644170500,4.59317041015625,9.8871431350708,0.5790630578994751,0.2679961323738098
1761333733662870000,4.6118701171875,9.882357597351074,0.5790630578994751,0.2727817893028259
1761333733681569500,4.630569580078125,9.891928672790527,0.5910272002220154,0.26081767678260803
1761333733700268800,4.649268798828125,9.884750366210938,0.5742774605751038,0.2632105052471161
1761333733718968300,4.66796826171875,9.891928672790527,0.5694918036460876,0.24885354936122894
1761333733737667800,4.686667724609375,9.884750366210938,0.5694918036460876,0.2679961323738098
1761333733756367400,4.705367431640625,9.8871431350708,0.5814558863639832,0.2560320198535919
1761333733775067000,4.72406689453125,9.875179290771484,0.5814558863639832,0.2512463629245758
1761333733793766400,4.742766357421875,9.879964828491211,0.5623133182525635,0.2560320198535919
1761333733812466000,4.7614658203125,9.891928672790527,0.5790630578994751,0.25363919138908386
1761333733831165400,4.78016552734375,9.877572059631348,0.5694918036460876,0.25363919138908386
1761333733849865000,4.798864990234375,9.877572059631348,0.5599204897880554,0.24885354936122894
1761333733868564200,4.817564208984375,9.875179290771484,0.576670229434967,0.2679961323738098
1761333733887263700,4.836263671875,9.882357597351074,0.5670989751815796,0.27038896083831787
1761333733905963300,4.85496337890625,9.8871431350708,0.5647061467170715,0.2512463629245758
1761333733924662800,4.873662841796875,9.884750366210938,0.5790630578994751,0.24885354936122894
1761333733943362300,4.8923623046875,9.875179290771484,0.5814558863639832,0.25363919138908386
1761333733962061800,4.911061767578125,9.877572059631348,0.5742774605751038,0.2632105052471161
1761333733980761300,4.92976123046875,9.882357597351074,0.5790630578994751,0.2584248483181
1761333733999460900,4.9484609375,9.868000984191895,0.5694918036460876,0.24885354936122894
1761333734018160400,4.967160400390625,9.879964828491211,0.5814558863639832,0.275174617767334
1761333734036859600,4.985859619140625,9.877572059631348,0.5838487148284912,0.24885354936122894
1761333734055559200,5.00455908203125,9.8871431350708,0.5623133182525635,0.2560320198535919
1761333734074258700,5.0232587890625,9.882357597351074,0.576670229434967,0.26081767678260803
1761333734092958200,5.041958251953125,9.868000984191895,0.5742774605751038,0.2679961323738098
1761333734111657700,5.06065771484375,9.877572059631348,0.5862415432929993,0.2584248483181
1761333734130357200,5.079357177734375,9.875179290771484,0.5718846321105957,0.2679961323738098
1761333734149056500,5.098056396484375,9.899106979370117,0.5694918036460876,0.25363919138908386
1761333734167756300,5.11675634765625,9.870393753051758,0.5934200286865234,0.26560330390930176
1761333734186455800,5.135455810546875,9.8871431350708,0.5862415432929993,0.27038896083831787
1761333734205155000,5.154155029296875,9.868000984191895,0.576670229434967,0.2560320198535919
1761333734223854600,5.1728544921875,9.8871431350708,0.5790630578994751,0.2584248483181
1761333734242554000,5.19155419921875,9.877572059631348,0.5742774605751038,0.2560320198535919
1761333734261253600,5.210253662109375,9.879964828491211,0.5838487148284912,0.27038896083831787
1761333734279953200,5.228953125,9.896714210510254,0.5886343717575073,0.2584248483181
1761333734298652700,5.247652587890625,9.879964828491211,0.576670229434967,0.2632105052471161
1761333734317352000,5.26635205078125,9.877572059631348,0.5790630578994751,0.26081767678260803
1761333734336051700,5.2850517578125,9.877572059631348,0.6029912829399109,0.2584248483181
1761333734354751200,5.303751220703125,9.891928672790527,0.5862415432929993,0.26081767678260803
1761333734373450500,5.322450439453125,9.877572059631348,0.5694918036460876,0.2632105052471161
1761333734392150000,5.34114990234375,9.891928672790527,0.5742774605751038,0.26560330390930176
1761333734410849500,5.359849609375,9.877572059631348,0.5838487148284912,0.25363919138908386
1761333734429549000,5.378549072265625,9.889535903930664,0.5623133182525635,0.24885354936122894
1761333734448248300,5.397248291015625,9.870393753051758,0.5862415432929993,0.24646073579788208
1761333734466948000,5.415947998046875,9.8871431350708,0.576670229434967,0.2512463629245758
1761333734485647600,5.434647705078125,9.89432144165039,0.5694918036460876,0.2512463629245758
1761333734504347100,5.45334716796875,9.882357597351074,0.5958128571510315,0.2632105052471161
1761333734523046400,5.47204638671875,9.877572059631348,0.5790630578994751,0.2727817893028259
1761333734541746000,5.490745849609375,9.884750366210938,0.5647061467170715,0.26560330390930176
1761333734560445400,5.509445556640625,9.879964828491211,0.5742774605751038,0.2512463629245758
1761333734579145000,5.52814501953125,9.884750366210938,0.5838487148284912,0.2632105052471161
1761333734597844500,5.546844482421875,9.884750366210938,0.5838487148284912,0.2679961323738098
1761333734616544000,5.5655439453125,9.884750366210938,0.5862415432929993,0.27756741642951965
1761333734635243500,5.584243408203125,9.870393753051758,0.5814558863639832,0.2392822653055191
1761333734653943000,5.602943115234375,9.89432144165039,0.576670229434967,0.2584248483181
1761333734672642600,5.621642578125,9.8871431350708,0.576670229434967,0.2727817893028259
1761333734691341800,5.640341796875,9.863214492797852,0.5670989751815796,0.26081767678260803
1761333734710041300,5.659041259765625,9.870393753051758,0.5814558863639832,0.26560330390930176
1761333734728740900,5.677740966796875,9.870393753051758,0.5670989751815796,0.2727817893028259
1761333734747440400,5.6964404296875,9.882357597351074,0.5623133182525635,0.2584248483181
1761333734766140000,5.715139892578125,9.891928672790527,0.5742774605751038,0.2632105052471161
1761333734784839400,5.73383935546875,9.872786521911621,0.5670989751815796,0.2679961323738098
1761333734803539000,5.7525390625,9.884750366210938,0.5647061467170715,0.24885354936122894
1761333734822238500,5.771238525390625,9.865608215332031,0.5647061467170715,0.26560330390930176
1761333734840938000,5.78993798828125,9.8871431350708,0.5718846321105957,0.25363919138908386
1761333734859637200,5.80863720703125,9.879964828491211,0.5910272002220154,0.2584248483181
1761333734878336800,5.827336669921875,9.884750366210938,0.576670229434967,0.2560320198535919
1761333734897036300,5.846036376953125,9.879964828491211,0.5742774605751038,0.2632105052471161
1761333734915735800,5.86473583984375,9.884750366210938,0.5718846321105957,0.24406790733337402
1761333734934435300,5.883435302734375,9.882357597351074,0.5790630578994751,0.2632105052471161
1761333734953134800,5.902134765625,9.8871431350708,0.5694918036460876,0.2584248483181
1761333734971834400,5.92083447265625,9.870393753051758,0.5694918036460876,0.27038896083831787
1761333734990534000,5.939533935546875,9.879964828491211,0.576670229434967,0.2584248483181
1761333735009233400,5.9582333984375,9.8871431350708,0.576670229434967,0.2679961323738098
1761333735027932700,5.9769326171875,9.879964828491211,0.5814558863639832,0.26081767678260803
1761333735046632400,5.995632568359375,9.8871431350708,0.5599204897880554,0.26560330390930176
1761333735065331700,6.014331787109375,9.879964828491211,0.5670989751815796,0.24646073579788208
1761333735084031200,6.03303125,9.891928672790527,0.5718846321105957,0.2632105052471161
1761333735102730800,6.051730712890625,9.8871431350708,0.5790630578994751,0.24885354936122894
1761333735121430300,6.07043017578125,9.879964828491211,0.5742774605751038,0.24167509377002716
1761333735140129800,6.0891298828125,9.882357597351074,0.5910272002220154,0.26560330390930176
1761333735158829300,6.107829345703125,9.879964828491211,0.576670229434967,0.26081767678260803
1761333735177528800,6.12652880859375,9.882357597351074,0.5838487148284912,0.2584248483181
1761333735196228400,6.145228271484375,9.865608215332031,0.5910272002220154,0.2679961323738098
1761333735214928000,6.163927978515625,9.884750366210938,0.5790630578994751,0.26081767678260803
1761333735233627100,6.182627197265625,9.884750366210938,0.5694918036460876,0.24885354936122894
1761333735252326700,6.20132666015625,9.89432144165039,0.5742774605751038,0.24646073579788208
1761333735271026200,6.220026123046875,9.868000984191895,0.5862415432929993,0.24885354936122894
1761333735289725700,6.2387255859375,9.889535903930664,0.5886343717575073,0.25363919138908386
1761333735308425200,6.25742529296875,9.889535903930664,0.5838487148284912,0.2584248483181
1761333735327124700,6.276124755859375,9.877572059631348,0.5886343717575073,0.24167509377002716
1761333735345824300,6.29482421875,9.884750366210938,0.5790630578994751,0.26560330390930176
1761333735364523800,6.313523681640625,9.870393753051758,0.5958128571510315,0.2512463629245758
1761333735383223300,6.332223388671875,9.870393753051758,0.5551348328590393,0.2632105052471161
1761333735401922800,6.3509228515625,9.882357597351074,0.5790630578994751,0.24885354936122894
1761333735420622300,6.369622314453125,9.889535903930664,0.5575276613235474,0.2560320198535919
1761333735439321900,6.38832177734375,9.896714210510254,0.5694918036460876,0.24646073579788208
1761333735458021000,6.407021240234375,9.882357597351074,0.5694918036460876,0.24646073579788208
1761333735476720600,6.425720703125,9.8871431350708,0.5934200286865234,0.2632105052471161
1761333735495420200,6.444420166015625,9.889535903930664,0.5814558863639832,0.24885354936122894
1761333735514119700,6.46311962890625,9.90149974822998,0.5814558863639832,0.24406790733337402
1761333735532819200,6.481819091796875,9.877572059631348,0.5718846321105957,0.24167509377002716
1761333735551518700,6.500518798828125,9.889535903930664,0.5670989751815796,0.2727817893028259
1761333735570218200,6.51921826171875,9.882357597351074,0.5934200286865234,0.2584248483181
1761333735588917800,6.537917724609375,9.863214492797852,0.5886343717575073,0.2679961323738098
1761333735607617300,6.5566171875,9.875179290771484,0.5790630578994751,0.2632105052471161
1761333735626316800,6.57531689453125,9.889535903930664,0.5790630578994751,0.2560320198535919
1761333735645016300,6.594016357421875,9.884750366210938,0.5838487148284912,0.26560330390930176
1761333735663715600,6.612715576171875,9.884750366210938,0.5742774605751038,0.2512463629245758
1761333735682415000,6.6314150390625,9.891928672790527,0.5742774605751038,0.26560330390930176
1761333735701114600,6.650114501953125,9.868000984191895,0.5790630578994751,0.2632105052471161
1761333735719814100,6.668814208984375,9.870393753051758,0.5838487148284912,0.24885354936122894
1761333735738513700,6.687513671875,9.8871431350708,0.5790630578994751,0.2512463629245758
1761333735757213200,6.706213134765625,9.8871431350708,0.5623133182525635,0.25363919138908386
1761333735775912700,6.72491259765625,9.879964828491211,0.5862415432929993,0.2560320198535919
1761333735794612200,6.7436123046875,9.877572059631348,0.5790630578994751,0.2512463629245758
1761333735813311700,6.762311767578125,9.875179290771484,0.5718846321105957,0.2512463629245758
1761333735832011300,6.78101123046875,9.879964828491211,0.5742774605751038,0.2679961323738098
1761333735850710800,6.799710693359375,9.884750366210938,0.5934200286865234,0.26560330390930176
1761333735869410000,6.81841015625,9.872786521911621,0.5790630578994751,0.2512463629245758
1761333735888109600,6.837109619140625,9.8871431350708,0.5790630578994751,0.23449662327766418
1761333735906809000,6.85580908203125,9.884750366210938,0.5814558863639832,0.275174617767334
1761333735925508600,6.874508544921875,9.8871431350708,0.5742774605751038,0.26081767678260803
1761333735944208100,6.8932080078125,9.884750366210938,0.5934200286865234,0.26560330390930176
1761333735962907600,6.91190771484375,9.875179290771484,0.5575276613235474,0.2679961323738098
1761333735981607200,6.930607177734375,9.877572059631348,0.5910272002220154,0.27038896083831787
1761333736000306700,6.949306640625,9.879964828491211,0.6005984544754028,0.27038896083831787
1761333736019006200,6.968006103515625,9.90149974822998,0.5886343717575073,0.2512463629245758
1761333736037705700,6.986705810546875,9.891928672790527,0.5910272002220154,0.25363919138908386
1761333736056405200,7.0054052734375,9.872786521911621,0.576670229434967,0.24167509377002716
1761333736075104800,7.024104736328125,9.872786521911621,0.5814558863639832,0.2632105052471161
1761333736093804000,7.042803955078125,9.872786521911621,0.5742774605751038,0.24167509377002716
1761333736112503800,7.06150390625,9.870393753051758,0.5838487148284912,0.27038896083831787
1761333736131203000,7.080203125,9.891928672790527,0.5742774605751038,0.2512463629245758
1761333736149902600,7.098902587890625,9.889535903930664,0.5790630578994751,0.2512463629245758
1761333736168602000,7.11760205078125,9.875179290771484,0.576670229434967,0.2679961323738098
1761333736187301600,7.136301513671875,9.872786521911621,0.5670989751815796,0.26081767678260803
1761333736206001200,7.155001220703125,9.882357597351074,0.5718846321105957,0.2679961323738098
1761333736224700700,7.17370068359375,9.889535903930664,0.5694918036460876,0.25363919138908386
1761333736243400200,7.192400146484375,9.90149974822998,0.5742774605751038,0.2392822653055191
1761333736262099700,7.211099609375,9.868000984191895,0.5623133182525635,0.23688943684101105
1761333736280799200,7.22979931640625,9.884750366210938,0.5838487148284912,0.27756741642951965
1761333736299498800,7.248498779296875,9.877572059631348,0.576670229434967,0.26560330390930176
1761333736318198300,7.2671982421875,9.875179290771484,0.5862415432929993,0.2560320198535919
1761333736336897800,7.285897705078125,9.877572059631348,0.5862415432929993,0.2512463629245758
1761333736355597000,7.30459716796875,9.875179290771484,0.5886343717575073,0.2847459018230438
1761333736374296600,7.323296630859375,9.879964828491211,0.5790630578994751,0.25363919138908386
1761333736392996000,7.34199609375,9.875179290771484,0.5982056856155396,0.26560330390930176
1761333736411695600,7.360695556640625,9.870393753051758,0.5790630578994751,0.25363919138908386
1761333736430395100,7.37939501953125,9.889535903930664,0.5814558863639832,0.24167509377002716
1761333736449094700,7.3980947265625,9.877572059631348,0.576670229434967,0.2560320198535919
1761333736467794200,7.416794189453125,9.868000984191895,0.5838487148284912,0.275174617767334
1761333736486493700,7.43549365234375,9.872786521911621,0.5742774605751038,0.2679961323738098
1761333736505193200,7.454193115234375,9.879964828491211,0.5623133182525635,0.2727817893028259
1761333736523892700,7.472892822265625,9.879964828491211,0.576670229434967,0.2512463629245758
1761333736542592300,7.49159228515625,9.863214492797852,0.5838487148284912,0.25363919138908386
1761333736561291800,7.510291748046875,9.899106979370117,0.5670989751815796,0.24406790733337402
1761333736579991300,7.5289912109375,9.891928672790527,0.5718846321105957,0.2632105052471161
1761333736598690800,7.54769091796875,9.884750366210938,0.5838487148284912,0.2632105052471161
1761333736617390000,7.56639013671875,9.882357597351074,0.5647061467170715,0.26560330390930176
1761333736636089900,7.58508984375,9.882357597351074,0.5694918036460876,0.275174617767334
1761333736654789000,7.6037890625,9.884750366210938,0.5694918036460876,0.2584248483181
1761333736673488600,7.622488525390625,9.891928672790527,0.5886343717575073,0.2584248483181
1761333736692188200,7.641188232421875,9.877572059631348,0.576670229434967,0.27756741642951965
1761333736710887700,7.6598876953125,9.882357597351074,0.576670229434967,0.2632105052471161
1761333736729587200,7.678587158203125,9.870393753051758,0.5599204897880554,0.26081767678260803
1761333736748286700,7.69728662109375,9.879964828491211,0.5838487148284912,0.26081767678260803
1761333736766986200,7.715986328125,9.875179290771484,0.5742774605751038,0.2632105052471161
1761333736785685800,7.734685791015625,9.882357597351074,0.5838487148284912,0.2584248483181
1761333736804385300,7.75338525390625,9.882357597351074,0.576670229434967,0.26560330390930176
1761333736823084800,7.772084716796875,9.889535903930664,0.5790630578994751,0.2632105052471161
1761333736841784300,7.790784423828125,9.877572059631348,0.5958128571510315,0.2584248483181
1761333736860483800,7.80948388671875,9.896714210510254,0.5718846321105957,0.2512463629245758
1761333736879183400,7.828183349609375,9.870393753051758,0.5790630578994751,0.2727817893028259
1761333736897883000,7.8468828125,9.8871431350708,0.576670229434967,0.2512463629245758
1761333736916582100,7.86558203125,9.889535903930664,0.5718846321105957,0.24167509377002716
1761333736935281700,7.88428173828125,9.891928672790527,0.5982056856155396,0.26560330390930176
1761333736953981200,7.902981201171875,9.879964828491211,0.5814558863639832,0.2584248483181
1761333736972680700,7.9216806640625,9.860821723937988,0.5790630578994751,0.26081767678260803
1761333736991380200,7.940380126953125,9.896714210510254,0.5838487148284912,0.24885354936122894
1761333737010079700,7.959079833984375,9.879964828491211,0.5742774605751038,0.2560320198535919
1761333737028779300,7.977779296875,9.879964828491211,0.5718846321105957,0.2584248483181
1761333737047478800,7.996478759765625,9.879964828491211,0.5718846321105957,0.24167509377002716
1761333737066178300,8.01517822265625,9.8871431350708,0.5742774605751038,0.23688943684101105
1761333737084877800,8.0338779296875,9.882357597351074,0.5862415432929993,0.2584248483181
1761333737103577300,8.052577392578126,9.8871431350708,0.5742774605751038,0.25363919138908386
1761333737122276900,8.07127685546875,9.879964828491211,0.5886343717575073,0.25363919138908386
1761333737140976400,8.089976318359374,9.872786521911621,0.5838487148284912,0.2632105052471161
1761333737159676000,8.108676025390626,9.870393753051758,0.576670229434967,0.27038896083831787
1761333737178375200,8.127375244140625,9.896714210510254,0.576670229434967,0.27038896083831787
1761333737197074700,8.14607470703125,9.868000984191895,0.5623133182525635,0.2799602448940277
1761333737215774500,8.1647744140625,9.889535903930664,0.5910272002220154,0.26081767678260803
1761333737234473700,8.1834736328125,9.896714210510254,0.5838487148284912,0.2560320198535919
1761333737253173200,8.20217333984375,9.875179290771484,0.5790630578994751,0.2679961323738098
1761333737271872800,8.220872802734375,9.8871431350708,0.5934200286865234,0.2584248483181
1761333737290572300,8.239572265625,9.872786521911621,0.5670989751815796,0.2727817893028259
1761333737309271800,8.258271728515625,9.889535903930664,0.5862415432929993,0.2632105052471161
1761333737327971300,8.276971435546875,9.884750366210938,0.5742774605751038,0.25363919138908386
1761333737346670800,8.2956708984375,9.889535903930664,0.5814558863639832,0.2584248483181
1761333737365370400,8.314370361328125,9.882357597351074,0.5647061467170715,0.2512463629245758
1761333737384070000,8.33306982421875,9.877572059631348,0.5742774605751038,0.26081767678260803
1761333737402769400,8.351769287109375,9.882357597351074,0.5670989751815796,0.2512463629245758
1761333737421469000,8.370468994140625,9.889535903930664,0.5838487148284912,0.24646073579788208
1761333737440168400,8.38916845703125,9.889535903930664,0.5814558863639832,0.2584248483181
1761333737458868000,8.407867919921875,9.90149974822998,0.5718846321105957,0.24646073579788208
1761333737477567500,8.4265673828125,9.8871431350708,0.576670229434967,0.2584248483181
1761333737496267000,8.44526708984375,9.891928672790527,0.576670229434967,0.2679961323738098
1761333737514966500,8.463966552734375,9.865608215332031,0.5551348328590393,0.2727817893028259
1761333737533665800,8.482665771484376,9.889535903930664,0.5742774605751038,0.2560320198535919
1761333737552365300,8.501365234375,9.879964828491211,0.5718846321105957,0.2584248483181
1761333737571065000,8.520065185546875,9.879964828491211,0.5742774605751038,0.24646073579788208
1761333737589764400,8.538764404296876,9.882357597351074,0.5910272002220154,0.25363919138908386
1761333737608464000,8.5574638671875,9.879964828491211,0.5575276613235474,0.26081767678260803
1761333737627163400,8.576163330078124,9.884750366210938,0.5670989751815796,0.2584248483181
1761333737645863000,8.59486279296875,9.870393753051758,0.5742774605751038,0.27756741642951965
1761333737664562400,8.6135625,9.896714210510254,0.5694918036460876,0.2512463629245758
1761333737683262000,8.632261962890626,9.872786521911621,0.5718846321105957,0.27756741642951965
1761333737701961500,8.65096142578125,9.882357597351074,0.5647061467170715,0.2512463629245758
1761333737720661000,8.669660888671874,9.879964828491211,0.5742774605751038,0.23688943684101105
1761333737739360500,8.688360595703125,9.882357597351074,0.5814558863639832,0.24885354936122894
1761333737758060000,8.70706005859375,9.879964828491211,0.5718846321105957,0.27756741642951965
1761333737776759600,8.725759521484376,9.879964828491211,0.5575276613235474,0.2679961323738098
1761333737795459000,8.744458984375,9.872786521911621,0.5838487148284912,0.26560330390930176
1761333737814158600,8.76315869140625,9.884750366210938,0.5910272002220154,0.26081767678260803
1761333737832858000,8.781858154296875,9.872786521911621,0.5790630578994751,0.27756741642951965
1761333737851557400,8.800557373046875,9.879964828491211,0.5838487148284912,0.2584248483181
1761333737870257200,8.819257080078126,9.89432144165039,0.5599204897880554,0.2273181527853012
1761333737888956400,8.837956298828125,9.877572059631348,0.5862415432929993,0.2632105052471161
1761333737907656000,8.856656005859374,9.89432144165039,0.5814558863639832,0.2584248483181
1761333737926355700,8.875355712890626,9.882357597351074,0.5814558863639832,0.2560320198535919
1761333737945055000,8.894054931640625,9.877572059631348,0.5886343717575073,0.27756741642951965
1761333737963754500,8.91275439453125,9.8871431350708,0.5599204897880554,0.2632105052471161
1761333737982454000,8.9314541015625,9.882357597351074,0.5790630578994751,0.24885354936122894
1761333738001153500,8.950153564453124,9.882357597351074,0.5790630578994751,0.2560320198535919
1761333738019853000,8.96885302734375,9.879964828491211,0.5790630578994751,0.2632105052471161
1761333738038552600,8.987552490234375,9.884750366210938,0.5862415432929993,0.2632105052471161
1761333738057252000,9.006252197265624,9.891928672790527,0.5718846321105957,0.2632105052471161
1761333738075951600,9.02495166015625,9.8871431350708,0.5742774605751038,0.26081767678260803
1761333738094651100,9.043651123046875,9.891928672790527,0.5814558863639832,0.2560320198535919
1761333738113350700,9.0623505859375,9.872786521911621,0.5910272002220154,0.2584248483181
1761333738132050200,9.08105029296875,9.89432144165039,0.576670229434967,0.2560320198535919
1761333738150749700,9.099749755859374,9.89432144165039,0.5670989751815796,0.24167509377002716
1761333738169449200,9.11844921875,9.882357597351074,0.5694918036460876,0.26081767678260803
1761333738188148700,9.137148681640625,9.875179290771484,0.5814558863639832,0.28235307335853577
1761333738206848300,9.15584814453125,9.889535903930664,0.5790630578994751,0.2560320198535919
1761333738225547800,9.1745478515625,9.877572059631348,0.5742774605751038,0.24646073579788208
1761333738244247000,9.1932470703125,9.889535903930664,0.576670229434967,0.2560320198535919
1761333738262946600,9.211946533203125,9.882357597351074,0.5599204897880554,0.2512463629245758
1761333738281646300,9.230646240234375,9.863214492797852,0.5790630578994751,0.2512463629245758
1761333738300345600,9.249345703125,9.882357597351074,0.5718846321105957,0.25363919138908386
1761333738319045000,9.268045166015625,9.872786521911621,0.5694918036460876,0.26081767678260803
1761333738337744600,9.28674462890625,9.896714210510254,0.5838487148284912,0.2584248483181
1761333738356444200,9.305444091796875,9.899106979370117,0.5814558863639832,0.2392822653055191
1761333738375143700,9.324143798828125,9.882357597351074,0.5742774605751038,0.275174617767334
1761333738393843200,9.34284326171875,9.899106979370117,0.5838487148284912,0.27756741642951965
1761333738412542700,9.361542724609375,9.884750366210938,0.5814558863639832,0.25363919138908386
1761333738431242200,9.3802421875,9.882357597351074,0.5886343717575073,0.26081767678260803
1761333738449941800,9.398941650390626,9.8871431350708,0.576670229434967,0.2584248483181
1761333738468641300,9.417641357421875,9.884750366210938,0.576670229434967,0.25363919138908386
1761333738487340800,9.4363408203125,9.872786521911621,0.5670989751815796,0.2560320198535919
1761333738506040300,9.455040283203125,9.882357597351074,0.5886343717575073,0.24885354936122894
1761333738524739800,9.47373974609375,9.879964828491211,0.5647061467170715,0.24406790733337402
1761333738543439400,9.492439453125,9.863214492797852,0.5910272002220154,0.2679961323738098
1761333738562139000,9.511138916015625,9.868000984191895,0.5838487148284912,0.26081767678260803
1761333738580838400,9.52983837890625,9.875179290771484,0.576670229434967,0.25363919138908386
1761333738599537700,9.54853759765625,9.875179290771484,0.5886343717575073,0.24885354936122894
1761333738618237400,9.567237548828125,9.891928672790527,0.5670989751815796,0.2584248483181
1761333738636937000,9.58593701171875,9.870393753051758,0.5694918036460876,0.24646073579788208
1761333738655636200,9.60463623046875,9.877572059631348,0.5718846321105957,0.2512463629245758
1761333738674336000,9.6233359375,9.877572059631348,0.5623133182525635,0.27038896083831787
1761333738693035300,9.64203515625,9.884750366210938,0.5934200286865234,0.2847459018230438
1761333738711734800,9.66073486328125,9.860821723937988,0.5742774605751038,0.24167509377002716
1761333738730434300,9.679434326171876,9.899106979370117,0.5694918036460876,0.25363919138908386
1761333738749133800,9.6981337890625,9.877572059631348,0.576670229434967,0.24885354936122894
1761333738767833300,9.716833251953124,9.879964828491211,0.5599204897880554,0.2584248483181
1761333738786532900,9.735532958984376,9.884750366210938,0.5814558863639832,0.2584248483181
1761333738805232400,9.754232421875,9.877572059631348,0.576670229434967,0.2512463629245758
1761333738823932000,9.772931884765624,9.868000984191895,0.5790630578994751,0.2512463629245758
1761333738842631400,9.79163134765625,9.882357597351074,0.5862415432929993,0.24646073579788208
1761333738861331000,9.8103310546875,9.879964828491211,0.5742774605751038,0.2560320198535919
1761333738880030500,9.829030517578126,9.8871431350708,0.5886343717575073,0.2512463629245758
1761333738898730000,9.84772998046875,9.8871431350708,0.5814558863639832,0.26560330390930176
1761333738917429500,9.866429443359374,9.891928672790527,0.5814558863639832,0.28235307335853577
1761333738936129000,9.88512890625,9.882357597351074,0.576670229434967,0.2512463629245758
1761333738954828500,9.90382861328125,9.875179290771484,0.5838487148284912,0.2632105052471161
1761333738973528000,9.922528076171876,9.879964828491211,0.5838487148284912,0.2584248483181
1761333738992227600,9.9412275390625,9.891928672790527,0.5886343717575073,0.24646073579788208
1761333739010927000,9.959927001953124,9.889535903930664,0.5958128571510315,0.2727817893028259
1761333739029626600,9.978626708984375,9.868000984191895,0.5790630578994751,0.2632105052471161
1761333739048326000,9.997325927734375,9.882357597351074,0.576670229434967,0.2679961323738098
1761333739067025700,10.016025634765626,9.884750366210938,0.5718846321105957,0.2679961323738098
1761333739085725200,10.03472509765625,9.865608215332031,0.6029912829399109,0.25363919138908386
1761333739104424400,10.053424560546874,9.872786521911621,0.5623133182525635,0.26081767678260803
1761333739123124200,10.072124267578126,9.89432144165039,0.576670229434967,0.26081767678260803
1761333739141823500,10.090823486328125,9.872786521911621,0.550349235534668,0.2560320198535919
1761333739160523000,10.10952294921875,9.877572059631348,0.5670989751815796,0.2727817893028259
1761333739179222800,10.128222900390625,9.877572059631348,0.5670989751815796,0.26081767678260803
1761333739197922000,10.146922119140624,9.8871431350708,0.5718846321105957,0.27038896083831787
1761333739216621600,10.16562158203125,9.879964828491211,0.5886343717575073,0.25363919138908386
1761333739235321000,10.184321044921875,9.882357597351074,0.576670229434967,0.2584248483181
1761333739254020600,10.2030205078125,9.879964828491211,0.576670229434967,0.26560330390930176
1761333739272720100,10.22172021484375,9.875179290771484,0.5670989751815796,0.2560320198535919
1761333739291419600,10.240419677734375,9.89432144165039,0.576670229434967,0.2584248483181
1761333739310119200,10.259119140625,9.882357597351074,0.5790630578994751,0.2679961323738098
1761333739328818700,10.277818603515625,9.877572059631348,0.5742774605751038,0.2679961323738098
1761333739347518200,10.296518310546874,9.882357597351074,0.5718846321105957,0.26081767678260803
1761333739366217700,10.3152177734375,9.899106979370117,0.5742774605751038,0.26560330390930176
1761333739384917200,10.333917236328125,9.891928672790527,0.5886343717575073,0.27756741642951965
1761333739403616800,10.35261669921875,9.877572059631348,0.5886343717575073,0.24167509377002716
1761333739422316300,10.37131640625,9.891928672790527,0.5790630578994751,0.24885354936122894
1761333739441015800,10.390015869140624,9.884750366210938,0.5742774605751038,0.25363919138908386
1761333739459715300,10.40871533203125,9.877572059631348,0.5599204897880554,0.2727817893028259
1761333739478414800,10.427414794921875,9.884750366210938,0.6005984544754028,0.2679961323738098
1761333739497114400,10.4461142578125,9.882357597351074,0.5910272002220154,0.2632105052471161
1761333739515814000,10.46481396484375,9.89432144165039,0.5934200286865234,0.25363919138908386
1761333739534513400,10.483513427734374,9.896714210510254,0.5814558863639832,0.26081767678260803
1761333739553213000,10.502212890625,9.8871431350708,0.5886343717575073,0.24167509377002716
1761333739571912400,10.520912353515625,9.877572059631348,0.5838487148284912,0.2727817893028259
1761333739590611700,10.53961181640625,9.8871431350708,0.5862415432929993,0.2584248483181
1761333739609311500,10.5583115234375,9.872786521911621,0.5694918036460876,0.2512463629245758
1761333739628011000,10.577010986328125,9.884750366210938,0.5694918036460876,0.26081767678260803
1761333739646710300,10.595710205078126,9.877572059631348,0.5910272002220154,0.2584248483181
1761333739665410000,10.61441015625,9.879964828491211,0.5742774605751038,0.27038896083831787
1761333739684109600,10.633109619140624,9.8871431350708,0.5790630578994751,0.24646073579788208
1761333739702808800,10.651808837890625,9.875179290771484,0.5742774605751038,0.23449662327766418
1761333739721508400,10.67050830078125,9.870393753051758,0.5718846321105957,0.2512463629245758
1761333739740207900,10.689207763671876,9.879964828491211,0.5647061467170715,0.2560320198535919
1761333739758907400,10.707907470703125,9.872786521911621,0.576670229434967,0.26081767678260803
1761333739777607000,10.72660693359375,9.879964828491211,0.5790630578994751,0.2560320198535919
1761333739796306400,10.745306396484375,9.884750366210938,0.5599204897880554,0.2632105052471161
1761333739815006000,10.764005859375,9.8871431350708,0.5694918036460876,0.27038896083831787
1761333739833705500,10.78270556640625,9.879964828491211,0.5886343717575073,0.26560330390930176
1761333739852405000,10.801405029296875,9.879964828491211,0.5694918036460876,0.2584248483181
1761333739871104500,10.8201044921875,9.868000984191895,0.576670229434967,0.24646073579788208
1761333739889804000,10.838803955078125,9.89432144165039,0.5742774605751038,0.2560320198535919
1761333739908503600,10.857503662109375,9.877572059631348,0.5647061467170715,0.2632105052471161
1761333739927203000,10.876203125,9.882357597351074,0.607776939868927,0.27038896083831787
1761333739945902600,10.894902587890625,9.889535903930664,0.5814558863639832,0.25363919138908386
1761333739964602000,10.91360205078125,9.872786521911621,0.5838487148284912,0.23688943684101105
1761333739983301600,10.932301513671876,9.858428955078125,0.5910272002220154,0.24167509377002716
1761333740002001200,10.951001220703125,9.860821723937988,0.5742774605751038,0.2512463629245758
1761333740020700700,10.96970068359375,9.89432144165039,0.5718846321105957,0.24885354936122894
1761333740039400200,10.988400146484375,9.882357597351074,0.5670989751815796,0.2584248483181
1761333740058099700,11.007099609375,9.872786521911621,0.5718846321105957,0.26081767678260803
1761333740076799200,11.02579931640625,9.879964828491211,0.576670229434967,0.25363919138908386
1761333740095498800,11.044498779296875,9.889535903930664,0.5862415432929993,0.2679961323738098
1761333740114198300,11.0631982421875,9.889535903930664,0.5718846321105957,0.2584248483181
1761333740132897800,11.081897705078125,9.875179290771484,0.5790630578994751,0.2560320198535919
1761333740151597300,11.100597412109375,9.891928672790527,0.5742774605751038,0.25363919138908386
1761333740170296800,11.119296875,9.891928672790527,0.5694918036460876,0.25363919138908386
1761333740188996000,11.13799609375,9.882357597351074,0.6005984544754028,0.26560330390930176
1761333740207696000,11.15669580078125,9.896714210510254,0.5838487148284912,0.2560320198535919
1761333740226395400,11.1753955078125,9.872786521911621,0.5599204897880554,0.26081767678260803
1761333740245094700,11.1940947265625,9.889535903930664,0.5718846321105957,0.2584248483181
1761333740263794400,11.21279443359375,9.8871431350708,0.5647061467170715,0.2799602448940277
1761333740282493700,11.23149365234375,9.891928672790527,0.5790630578994751,0.25363919138908386
1761333740301193200,11.250193115234374,9.872786521911621,0.5934200286865234,0.2632105052471161
1761333740319893000,11.26889306640625,9.870393753051758,0.5694918036460876,0.25363919138908386
1761333740338592300,11.28759228515625,9.875179290771484,0.5790630578994751,0.2560320198535919
1761333740357291800,11.306291748046876,9.884750366210938,0.5814558863639832,0.24885354936122894
1761333740375991300,11.3249912109375,9.889535903930664,0.5742774605751038,0.2560320198535919
1761333740394690800,11.34369091796875,9.884750366210938,0.5790630578994751,0.24885354936122894
1761333740413390300,11.362390380859376,9.8871431350708,0.5718846321105957,0.24885354936122894
1761333740432089900,11.38108984375,9.872786521911621,0.576670229434967,0.2560320198535919
1761333740450789400,11.399789306640624,9.872786521911621,0.5814558863639832,0.26081767678260803
1761333740469489000,11.418489013671875,9.8871431350708,0.5790630578994751,0.2584248483181
1761333740488188400,11.4371884765625,9.870393753051758,0.5838487148284912,0.2584248483181
1761333740506888000,11.455887939453126,9.884750366210938,0.576670229434967,0.2727817893028259
1761333740525587500,11.47458740234375,9.882357597351074,0.5790630578994751,0.25363919138908386
1761333740544287000,11.493286865234374,9.889535903930664,0.5694918036460876,0.24406790733337402
1761333740562986500,11.511986572265625,9.877572059631348,0.5958128571510315,0.2560320198535919
1761333740581686000,11.53068603515625,9.884750366210938,0.5814558863639832,0.24406790733337402
1761333740600385500,11.549385498046876,9.891928672790527,0.607776939868927,0.2392822653055191
1761333740619085000,11.5680849609375,9.906285285949707,0.6125625967979431,0.2584248483181
1761333740637784600,11.58678466796875,9.865608215332031,0.5670989751815796,0.2560320198535919
1761333740656484000,11.605484130859375,9.923035621643066,0.6005984544754028,0.24406790733337402
