time,seconds_elapsed,z,y,x
1761333892429689600,0.062689697265625,-0.06716251373291016,0.0017540454864501953,-0.03464865684509277
1761333892457740000,0.090739990234375,-0.23603439331054688,-0.03986310958862305,-0.0602668821811676
1761333892476440000,0.109440185546875,0.1658344268798828,-0.18448948860168457,0.06500235199928284
1761333892495140400,0.128140380859375,0.14153671264648438,-0.19130921363830566,-0.1800791323184967
1761333892513840600,0.146840576171875,-0.1289358139038086,-0.1210789680480957,-0.45352086424827576
1761333892532541000,0.165541015625,-0.1472339630126953,-0.21005988121032715,-0.44320058822631836
1761333892551241000,0.184240966796875,-0.2703971862792969,-0.19885635375976562,-0.5316925048828125
1761333892569941200,0.202941162109375,-0.1639728546142578,-0.2057170867919922,-0.4425739049911499
1761333892588641500,0.2216416015625,0.0895090103149414,-0.24842309951782227,-0.35371947288513184
1761333892607341600,0.240341552734375,0.1759500503540039,-0.2365739345550537,-0.26508060097694397
1761333892626041900,0.259041748046875,0.08800315856933594,-0.21110165119171143,-0.087657630443573
1761333892644742100,0.2777421875,0.35649681091308594,-0.16089534759521484,0.3010218143463135
1761333892663442200,0.296442138671875,0.47282981872558594,-0.13848185539245605,0.41864198446273804
1761333892682142500,0.315142578125,0.19905948638916016,-0.16510272026062012,0.5217887759208679
1761333892700842800,0.3338427734375,-0.06869888305664062,0.09052062034606934,0.32632017135620117
1761333892719542800,0.352542724609375,-0.042591094970703125,0.28682899475097656,0.4407253861427307
1761333892738243000,0.3712431640625,0.11453723907470703,0.4846534729003906,0.519609808921814
1761333892756943400,0.389943359375,0.11067485809326172,0.5680491924285889,0.5109278559684753
1761333892775643600,0.4086435546875,-0.1855783462524414,0.6228847503662109,0.7120736837387085
1761333892794344000,0.427343994140625,-0.6573143005371094,0.3388099670410156,0.9420256018638611
1761333892813044000,0.4460439453125,-0.8263063430786133,0.03607773780822754,0.8892019987106323
1761333892831744300,0.464744140625,-0.7311553955078125,-0.19640755653381348,0.652540385723114
1761333892850444500,0.483444580078125,-0.23850440979003906,-0.5755679607391357,0.5262776017189026
1761333892869144600,0.50214453125,0.08033943176269531,-0.7386196851730347,0.6114993691444397
1761333892887844900,0.520844970703125,0.12427330017089844,-0.6272492408752441,0.5492031574249268
1761333892906545200,0.539545166015625,0.05333137512207031,-0.3235301971435547,0.4862855076789856
1761333892925245200,0.5582451171875,-0.06229209899902344,-0.046868085861206055,0.40651869773864746
1761333892943945500,0.576945556640625,-0.09643363952636719,0.09595847129821777,0.3362683057785034
1761333892962645800,0.595645751953125,-0.021287918090820312,0.2463514804840088,0.27086836099624634
1761333892981346000,0.614345947265625,0.2128152847290039,0.4230020046234131,0.25102561712265015
1761333893000046300,0.63304638671875,0.1921520233154297,0.4104032516479492,0.18041115999221802
1761333893018746400,0.651746337890625,0.05071449279785156,0.38628482818603516,0.2097340226173401
1761333893037446700,0.67044677734375,0.0527801513671875,0.29742980003356934,0.3165155053138733
1761333893056147000,0.68914697265625,0.1769704818725586,0.1378161907196045,0.38353264331817627
1761333893074847000,0.707846923828125,0.1182565689086914,-0.00969696044921875,0.3075861930847168
1761333893093547300,0.72654736328125,-0.021004676818847656,-0.22564196586608887,0.11919641494750977
1761333893112247600,0.74524755859375,-0.059538841247558594,-0.3747069835662842,-0.0022535324096679688
1761333893130947600,0.763947509765625,0.011551856994628906,-0.43648386001586914,-0.055304884910583496
1761333893149648000,0.78264794921875,-0.06812000274658203,-0.33890247344970703,-0.22731438279151917
1761333893168348200,0.80134814453125,-0.17666244506835938,-0.2807338237762451,-0.23985186219215393
1761333893187048200,0.820048095703125,-0.1688995361328125,-0.224257230758667,-0.13357633352279663
1761333893205748700,0.838748779296875,-0.18025875091552734,-0.12516260147094727,-0.18502432107925415
1761333893224448800,0.85744873046875,-0.1640472412109375,0.005564451217651367,-0.23710069060325623
1761333893243149000,0.876149169921875,-0.019667625427246094,0.04984927177429199,-0.1493598222732544
1761333893261849300,0.894849365234375,0.041820526123046875,0.06051492691040039,-0.08598434925079346
1761333893280549400,0.91354931640625,0.1024160385131836,0.012388229370117188,0.05368328094482422
1761333893299249700,0.932249755859375,0.30170536041259766,0.03479361534118652,0.17887073755264282
1761333893317950000,0.950949951171875,0.1864023208618164,-0.013130664825439453,0.19849944114685059
1761333893336650000,0.96964990234375,-0.03825664520263672,0.026569604873657227,0.10753166675567627
1761333893355350300,0.988350341796875,-0.11564826965332031,-0.02762460708618164,0.10171246528625488
1761333893374050600,1.007050537109375,-0.15300273895263672,-0.015167951583862305,0.10641109943389893
1761333893392750600,1.02575048828125,-0.1489124298095703,-0.03837752342224121,0.07307177782058716
1761333893411451000,1.044450927734375,-0.1805572509765625,-0.03968930244445801,0.04217582941055298
1761333893430151200,1.063151123046875,-0.19561767578125,-0.06080460548400879,-0.00936281681060791
1761333893448851500,1.0818515625,-0.11736679077148438,-0.08404922485351562,-0.03969651460647583
1761333893467551700,1.1005517578125,0.17023754119873047,-0.1256427764892578,-0.04585623741149902
1761333893486251800,1.119251708984375,0.26924610137939453,-0.08540773391723633,-0.012922167778015137
1761333893504952000,1.1379521484375,0.036803245544433594,-0.05765271186828613,-0.09569883346557617
1761333893523652400,1.15665234375,-0.11043548583984375,0.045007944107055664,-0.1912667155265808
1761333893542352400,1.175352294921875,-0.11599540710449219,0.05049610137939453,-0.12625426054000854
1761333893561052700,1.194052734375,-0.019037246704101562,0.07437849044799805,-0.051418840885162354
1761333893579753000,1.2127529296875,0.07630157470703125,0.027817964553833008,0.043523192405700684
1761333893598453000,1.231452880859375,0.0899953842163086,0.028177976608276367,0.040413737297058105
1761333893617153300,1.2501533203125,-0.05731010437011719,0.0730435848236084,0.010364949703216553
1761333893635853600,1.268853515625,-0.18839073181152344,0.05797147750854492,-0.029921889305114746
1761333893654553900,1.287553955078125,-0.14765453338623047,-0.006615400314331055,-0.006143808364868164
1761333893673254100,1.306254150390625,0.024064064025878906,-0.03520965576171875,0.06412827968597412
1761333893691954200,1.3249541015625,0.0893087387084961,-0.07218170166015625,0.0678514838218689
1761333893710654500,1.343654541015625,0.024707794189453125,-0.04838919639587402,0.021414220333099365
1761333893729354800,1.362354736328125,-0.031142234802246094,-0.032649993896484375,-0.0416259765625
1761333893748054800,1.3810546875,-0.0969400405883789,0.016061782836914062,-0.009016454219818115
1761333893766755000,1.399755126953125,-0.0654001235961914,0.04581403732299805,-0.11757898330688477
1761333893785455400,1.418455322265625,0.07227706909179688,-0.0007693767547607422,-0.040609657764434814
1761333893804155400,1.4371552734375,0.2574625015258789,0.009990692138671875,0.05912083387374878
1761333893822855700,1.455855712890625,0.1905498504638672,0.007225751876831055,-0.026253879070281982
1761333893841556000,1.474555908203125,-0.03659343719482422,0.07448697090148926,0.0052435994148254395
1761333893860256300,1.49325634765625,-0.0695505142211914,0.1027984619140625,-0.002932310104370117
1761333893878956500,1.51195654296875,0.04249858856201172,0.005815029144287109,0.07247692346572876
1761333893897656600,1.530656494140625,0.09094810485839844,-0.01602339744567871,0.2141159176826477
1761333893916356900,1.54935693359375,-0.014131546020507812,-0.011402130126953125,0.2516753077507019
1761333893935057200,1.56805712890625,-0.10517501831054688,0.056607723236083984,0.16912448406219482
1761333893953757200,1.586757080078125,-0.16501235961914062,0.020043611526489258,0.198838472366333
1761333893972457500,1.60545751953125,-0.2486867904663086,0.09426164627075195,0.019902348518371582
1761333893991157800,1.62415771484375,-0.16533470153808594,-0.03861403465270996,0.010616481304168701
1761333894009858000,1.642858154296875,-0.01952075958251953,-0.10388684272766113,-0.035404324531555176
1761333894028558000,1.66155810546875,0.2354745864868164,-0.20490312576293945,0.04792088270187378
1761333894047258400,1.68025830078125,0.2054433822631836,-0.09405326843261719,0.01366645097732544
1761333894065958700,1.698958740234375,0.053910255432128906,-0.0364689826965332,-0.0963515043258667
1761333894084659000,1.717658935546875,-0.1386699676513672,0.061490535736083984,-0.1228497326374054
1761333894103359000,1.73635888671875,-0.07640838623046875,0.10579729080200195,-0.0818428099155426
1761333894122059300,1.755059326171875,0.0999593734741211,0.042484283447265625,-0.0608178973197937
1761333894140759600,1.773759521484375,0.10837841033935547,0.02273249626159668,-0.09225118160247803
1761333894159459600,1.79245947265625,0.11310863494873047,0.022658824920654297,-0.03586757183074951
1761333894178159900,1.811159912109375,0.05907440185546875,0.006265878677368164,0.012420713901519775
1761333894196860200,1.829860107421875,-0.10234928131103516,0.039730072021484375,-0.018090486526489258
1761333894215560400,1.848560546875,0.01800060272216797,-0.002788543701171875,0.017715394496917725
1761333894234260500,1.867260498046875,0.0784454345703125,-0.014651298522949219,0.03367769718170166
1761333894252960800,1.885960693359375,0.046558380126953125,-0.01790618896484375,0.036707520484924316
1761333894271661000,1.9046611328125,-0.10978031158447266,0.00027632713317871094,-0.008738219738006592
1761333894290361300,1.923361328125,-0.25752925872802734,0.019054412841796875,-0.046679556369781494
1761333894309061400,1.942061279296875,-0.19747066497802734,0.05943703651428223,-0.025004148483276367
1761333894327761700,1.96076171875,-0.026866912841796875,-0.0012454986572265625,0.09762787818908691
1761333894346462000,1.9794619140625,-0.07610511779785156,0.08106255531311035,0.020784974098205566
1761333894365162200,1.998162353515625,0.12187480926513672,-0.009329557418823242,0.07377523183822632
1761333894383862300,2.0168623046875,0.3013591766357422,-0.012217998504638672,0.10875660181045532
1761333894402562600,2.0355625,0.18459606170654297,-0.020368576049804688,-0.0220109224319458
1761333894421262800,2.054262939453125,-0.09949493408203125,-0.016074180603027344,-0.10607513785362244
1761333894439963000,2.072962890625,-0.0999307632446289,-0.06628131866455078,-0.10061201453208923
1761333894458663200,2.0916630859375,-0.13683414459228516,-0.06941652297973633,-0.05957156419754028
1761333894477363500,2.110363525390625,-0.1346588134765625,-0.06788015365600586,-0.044573962688446045
1761333894496063700,2.129063720703125,0.06002616882324219,-0.07164525985717773,0.0578649640083313
1761333894514764000,2.147763916015625,0.00122833251953125,-0.02250981330871582,0.0490647554397583
1761333894533464000,2.166464111328125,-0.13443279266357422,0.025903701782226562,0.06141996383666992
1761333894552164400,2.185164306640625,-0.1383037567138672,0.08503556251525879,0.08092951774597168
1761333894570864600,2.20386474609375,0.057929039001464844,0.023130416870117188,0.017105579376220703
1761333894589564700,2.222564697265625,0.2899742126464844,-0.01900506019592285,0.0640454888343811
1761333894608265000,2.241264892578125,0.26602649688720703,-0.007239103317260742,0.056556105613708496
1761333894626965200,2.25996533203125,0.001605987548828125,0.03898358345031738,-0.03989988565444946
1761333894645665500,2.27866552734375,-0.1586160659790039,0.07913780212402344,-0.044491589069366455
1761333894664365800,2.29736572265625,-0.27975940704345703,0.1267092227935791,0.08870106935501099
1761333894683065900,2.31606591796875,-0.18839263916015625,0.08102226257324219,0.0832984447479248
1761333894701766100,2.33476611328125,0.024924278259277344,0.026578903198242188,0.005791664123535156
1761333894720466400,2.353466552734375,0.16803359985351562,-0.0016961097717285156,0.008455157279968262
1761333894739166500,2.37216650390625,0.28484630584716797,0.013172626495361328,0.03090459108352661
1761333894757866800,2.39086669921875,0.2900543212890625,0.004780769348144531,-0.002685725688934326
1761333894776567000,2.409567138671875,0.16107940673828125,0.014392375946044922,-0.111300528049469
1761333894795267300,2.428267333984375,-0.024166107177734375,-0.0037469863891601562,-0.13100716471672058
1761333894813967400,2.44696728515625,-0.12215042114257812,-0.040517330169677734,-0.10319340229034424
1761333894832667600,2.465667724609375,-0.0734720230102539,-0.05669999122619629,-0.031008422374725342
1761333894851368000,2.484367919921875,-0.0145416259765625,-0.0629124641418457,0.026360929012298584
1761333894870068200,2.503068115234375,-0.05014324188232422,-0.0496063232421875,0.011971533298492432
1761333894888768300,2.521768310546875,-0.09142112731933594,-0.02717733383178711,-0.021792352199554443
1761333894907468500,2.540468505859375,-0.12737464904785156,-0.01417088508605957,0.06159716844558716
1761333894926168800,2.5591689453125,-0.07642364501953125,-0.0062716007232666016,0.10964983701705933
1761333894944869000,2.577869140625,-0.008852958679199219,-0.02773451805114746,0.09329485893249512
1761333894963569200,2.596569091796875,0.021707534790039062,-0.045089006423950195,0.051590800285339355
1761333894982269400,2.61526953125,0.027863502502441406,-0.02360701560974121,-0.006797909736633301
1761333895000969700,2.6339697265625,-0.010162353515625,-0.03536486625671387,0.004160761833190918
1761333895019669800,2.652669677734375,-0.010001182556152344,-0.06118059158325195,0.0036349892616271973
1761333895038370000,2.6713701171875,-0.14789581298828125,-0.015667200088500977,-0.046647489070892334
1761333895057070300,2.6900703125,-0.010230064392089844,-0.030794143676757812,-0.08966553211212158
1761333895075770600,2.7087705078125,0.10809040069580078,-0.05671834945678711,0.025638341903686523
1761333895094471000,2.727470947265625,-0.05179595947265625,0.0499119758605957,-0.054815053939819336
1761333895113171000,2.7461708984375,-0.08828353881835938,0.03845810890197754,-0.03588747978210449
1761333895131871200,2.764871337890625,0.02301311492919922,0.022604942321777344,-0.06252306699752808
1761333895150571500,2.783571533203125,0.10933876037597656,-0.016590595245361328,-0.044823020696640015
1761333895169271600,2.802271484375,0.10333728790283203,0.00139617919921875,-0.017838716506958008
1761333895187971800,2.820971923828125,0.13694190979003906,-0.017874479293823242,0.008385658264160156
1761333895206672100,2.839672119140625,-0.02130413055419922,0.0520627498626709,-0.02915245294570923
1761333895225372400,2.858372314453125,-0.19515419006347656,0.10140371322631836,-0.021623969078063965
1761333895244072400,2.877072509765625,-0.14548683166503906,0.0663764476776123,0.058556556701660156
1761333895262772700,2.895772705078125,0.09346961975097656,0.025010347366333008,-0.005876898765563965
1761333895281473000,2.91447314453125,0.1895914077758789,0.028969526290893555,0.034389376640319824
1761333895300173300,2.93317333984375,0.1417369842529297,-0.00883626937866211,0.11427426338195801
1761333895318873600,2.95187353515625,0.1308269500732422,-0.005348682403564453,-0.017024457454681396
1761333895337573600,2.97057373046875,0.07436561584472656,0.0032994747161865234,-0.12687551975250244
1761333895356274000,2.98927392578125,0.03172111511230469,-0.061838388442993164,-0.06606030464172363
1761333895374974200,3.00797412109375,-0.054381370544433594,-0.08698678016662598,-0.02983325719833374
1761333895393674200,3.02667431640625,-0.12791824340820312,-0.0683903694152832,-0.016719520092010498
1761333895412374500,3.04537451171875,-0.18134593963623047,-0.030356168746948242,0.08461380004882812
1761333895431074800,3.06407470703125,-0.15180397033691406,0.03677940368652344,0.06486314535140991
1761333895449775000,3.082775146484375,-0.014439582824707031,0.03242087364196777,0.11107224225997925
1761333895468475400,3.101475341796875,0.06672096252441406,0.014090299606323242,0.1708858609199524
1761333895487175400,3.120175537109375,0.08339786529541016,0.041269540786743164,0.15807420015335083
1761333895505875700,3.138875732421875,0.026613235473632812,-0.01462864875793457,0.05746817588806152
1761333895524576000,3.157575927734375,0.07792282104492188,0.030942201614379883,-0.06747278571128845
1761333895543276300,3.1762763671875,0.15299129486083984,-0.06983518600463867,0.010110914707183838
1761333895561976300,3.194976318359375,0.11880874633789062,-0.06197476387023926,-0.10900694131851196
1761333895580676600,3.213676513671875,-0.09627342224121094,-0.05390501022338867,-0.11544156074523926
1761333895599377000,3.232376953125,-0.1027078628540039,-0.012416839599609375,-0.08569958806037903
1761333895618077000,3.251076904296875,0.02211284637451172,-0.10490679740905762,0.06470972299575806
1761333895636777200,3.269777099609375,-0.06685161590576172,0.03281259536743164,-0.04723411798477173
1761333895655477500,3.2884775390625,-0.22502422332763672,0.03350472450256348,-0.010902166366577148
1761333895674177800,3.307177734375,-0.10631656646728516,0.049718618392944336,-0.012170910835266113
1761333895692878000,3.325878173828125,0.17756175994873047,-0.03571605682373047,0.03967297077178955
1761333895711578000,3.344578125,0.3741436004638672,-0.05374956130981445,0.03437680006027222
1761333895730278400,3.3632783203125,0.3402557373046875,-0.08848166465759277,0.09182047843933105
1761333895748978700,3.381978759765625,0.04509925842285156,-0.004060506820678711,-0.0027459263801574707
1761333895767679000,3.400678955078125,-0.35700130462646484,0.0423886775970459,-0.0955207347869873
1761333895786379300,3.419379150390625,-0.4252634048461914,0.07883310317993164,-0.08210426568984985
1761333895805079300,3.438079345703125,-0.160064697265625,0.011134624481201172,0.03536045551300049
1761333895823779600,3.456779541015625,-0.039521217346191406,0.007502555847167969,0.023188471794128418
1761333895842479900,3.47547998046875,-0.0019969940185546875,0.026312828063964844,0.04351133108139038
1761333895861180000,3.494179931640625,0.025110244750976562,0.04058337211608887,0.022759199142456055
1761333895879880200,3.512880126953125,0.07209110260009766,0.01420736312866211,0.002667844295501709
1761333895898580500,3.53158056640625,0.08784294128417969,-0.002170085906982422,-0.04181426763534546
1761333895917280800,3.55028076171875,0.02900981903076172,-0.03920578956604004,-0.0710439682006836
1761333895935980800,3.568980712890625,0.09374046325683594,-0.050588369369506836,-0.1298970878124237
1761333895954681000,3.58768115234375,0.1239175796508789,-0.029011249542236328,-0.1401677429676056
1761333895973381400,3.60638134765625,0.036759376525878906,0.0017964839935302734,-0.143125981092453
1761333895992081700,3.62508154296875,-0.02397632598876953,-0.025838136672973633,-0.0910552442073822
1761333896010782000,3.643781982421875,-0.017461776733398438,-0.04205894470214844,-0.026631534099578857
1761333896029482000,3.66248193359375,-0.11652851104736328,-0.021323204040527344,-0.06286680698394775
1761333896048182300,3.681182373046875,-0.08656883239746094,0.042387962341308594,0.041963666677474976
1761333896066882600,3.699882568359375,-0.03271961212158203,0.04948234558105469,0.1089332103729248
1761333896085582800,3.718582763671875,0.0828399658203125,0.00021076202392578125,0.08727267384529114
1761333896104283000,3.737282958984375,0.05967521667480469,0.005838632583618164,0.10128456354141235
1761333896122983200,3.755983154296875,0.0026874542236328125,0.01931285858154297,0.07003512978553772
1761333896141683500,3.774683349609375,-0.11304092407226562,0.057807207107543945,0.07254397869110107
1761333896160383700,3.7933837890625,-0.052608489990234375,0.006100654602050781,0.06419509649276733
1761333896179084000,3.812083984375,0.10350799560546875,0.0017528533935546875,0.07585084438323975
1761333896197784000,3.8307841796875,0.024095535278320312,0.06393218040466309,0.05402642488479614
1761333896216484400,3.849484375,-0.12480926513671875,0.119720458984375,0.05636316537857056
1761333896235184600,3.8681845703125,-0.1316823959350586,0.06891822814941406,-0.004462242126464844
1761333896253885000,3.886885009765625,0.03344535827636719,-0.025161266326904297,-0.020743519067764282
1761333896272585000,3.9055849609375,0.08371543884277344,-0.0832364559173584,-0.003539562225341797
1761333896291285200,3.92428515625,0.037400245666503906,-0.08775949478149414,-0.01229029893875122
1761333896309985500,3.942985595703125,-0.0891408920288086,-0.04004406929016113,-0.09249085187911987
1761333896328685800,3.961685791015625,-0.057861328125,0.0018155574798583984,0.008510768413543701
1761333896347386000,3.98038623046875,0.027957916259765625,0.0768289566040039,0.08341783285140991
1761333896366086100,3.999086181640625,0.09258556365966797,0.13965821266174316,0.10513556003570557
1761333896384786400,4.017786376953125,0.025254249572753906,0.1542835235595703,0.028684556484222412
1761333896403486700,4.03648681640625,0.013536453247070312,0.046161651611328125,0.02459949254989624
1761333896422186800,4.055186767578125,0.023021697998046875,-0.03577613830566406,0.050385892391204834
1761333896440887000,4.073886962890625,-0.08166027069091797,-0.04478645324707031,-0.05125528573989868
1761333896459587300,4.09258740234375,-0.05472850799560547,-0.07658100128173828,-0.028355181217193604
1761333896478287600,4.11128759765625,0.0993804931640625,-0.09310054779052734,0.06765085458755493
1761333896496988000,4.12998779296875,0.04286384582519531,-0.04992556571960449,0.07651501893997192
1761333896515688000,4.14868798828125,-0.09282493591308594,0.029088973999023438,0.05331617593765259
1761333896534388200,4.16738818359375,-0.124114990234375,0.020308494567871094,-0.00033271312713623047
1761333896553088500,4.186088623046875,-0.07348251342773438,0.02776360511779785,-0.024713337421417236
1761333896571788800,4.204788818359375,-0.06911563873291016,0.025925397872924805,0.00017565488815307617
1761333896590488800,4.22348876953125,-0.114288330078125,0.0280911922454834,0.03241652250289917
1761333896609189000,4.242189208984375,-0.0631561279296875,-0.006784677505493164,-0.01613396406173706
1761333896627889400,4.260889404296875,-0.044333457946777344,-0.009386539459228516,-0.05076846480369568
1761333896646589700,4.279589599609375,0.19969844818115234,-0.01704549789428711,0.05014646053314209
1761333896665290000,4.2982900390625,0.26212215423583984,-0.002252817153930664,0.015818357467651367
1761333896683990000,4.316989990234375,0.11173725128173828,0.023930072784423828,-0.05494174361228943
1761333896702690300,4.335690185546875,0.06497764587402344,0.04924416542053223,-0.01383298635482788
1761333896721390600,4.354390625,0.032749176025390625,-0.03058910369873047,-0.0010309219360351562
1761333896740091000,4.3730908203125,-0.04755592346191406,-0.045363426208496094,-0.06786465644836426
1761333896758791000,4.391791015625,-0.15041255950927734,-0.0920107364654541,-0.10770648717880249
1761333896777491200,4.4104912109375,-0.307159423828125,-0.05011773109436035,-0.1380755603313446
1761333896796191500,4.42919140625,-0.4594888687133789,-0.011089324951171875,-0.19950997829437256
1761333896814891800,4.447891845703125,-0.2726154327392578,-0.016238689422607422,-0.16800454258918762
1761333896833592000,4.466592041015625,0.05881023406982422,-0.02178049087524414,0.011041700839996338
1761333896852292400,4.485292236328125,0.18851470947265625,0.01990056037902832,0.12061852216720581
1761333896870992400,4.503992431640625,-0.03686046600341797,0.09634137153625488,0.04634130001068115
1761333896889692700,4.522692626953125,-0.24256134033203125,0.14562678337097168,-0.002360612154006958
1761333896908393000,4.54139306640625,-0.05068206787109375,0.11578178405761719,-0.040838658809661865
1761333896927093000,4.560093017578125,0.24527549743652344,-0.0065479278564453125,-0.03801298141479492
1761333896945793500,4.57879345703125,0.4690074920654297,-0.0006222724914550781,-0.06705883145332336
1761333896964493600,4.59749365234375,0.49854087829589844,0.04001903533935547,-0.06043350696563721
1761333896983193900,4.61619384765625,0.2752666473388672,0.01181173324584961,-0.02918073534965515
1761333897001894100,4.63489404296875,-0.011810302734375,0.10138988494873047,-0.038024187088012695
1761333897020594400,4.653594482421875,-0.1706838607788086,0.08139300346374512,0.00517001748085022
1761333897039294500,4.67229443359375,-0.211700439453125,0.0008561611175537109,0.07793408632278442
1761333897057994800,4.690994873046875,-0.1215524673461914,-0.06552696228027344,0.06345435976982117
1761333897076695000,4.709695068359375,-0.07940196990966797,-0.0996861457824707,0.0009217262268066406
1761333897095395300,4.728395263671875,-0.08714580535888672,-0.07740521430969238,-0.01919114589691162
1761333897114095600,4.747095703125,-0.11345291137695312,-0.07071375846862793,0.018390536308288574
1761333897132795600,4.765795654296875,-0.006552696228027344,-0.02332758903503418,0.0934397280216217
1761333897151496000,4.784495849609375,0.11835289001464844,0.02594923973083496,0.09615129232406616
1761333897170196200,4.8031962890625,0.17176342010498047,0.03581404685974121,0.10492801666259766
1761333897188896500,4.821896484375,0.15667438507080078,0.033154964447021484,0.020556271076202393
1761333897207596500,4.840596435546875,0.03729724884033203,0.011082649230957031,0.015477538108825684
1761333897226296800,4.859296875,0.010550498962402344,0.004100322723388672,-0.04206538200378418
1761333897244997000,4.8779970703125,0.014679908752441406,-0.039711952209472656,-0.05989906191825867
1761333897263697400,4.896697509765625,0.11234474182128906,-0.02314591407775879,-0.04643958806991577
1761333897282397700,4.915397705078125,0.14231014251708984,-0.03313040733337402,0.04611527919769287
1761333897301098000,4.934097900390625,0.10425758361816406,-0.02935314178466797,0.0581817626953125
1761333897319798000,4.952798095703125,0.07053852081298828,-0.008833646774291992,0.09353691339492798
1761333897338498300,4.971498291015625,0.03296947479248047,-0.020421981811523438,0.15754318237304688
1761333897357198600,4.990198486328125,-0.0079498291015625,-0.004559040069580078,0.14185088872909546
1761333897375899000,5.00889892578125,0.11408805847167969,-0.058271169662475586,0.033308982849121094
1761333897394599000,5.027598876953125,0.4962005615234375,-0.12882041931152344,0.09563541412353516
1761333897413299200,5.04629931640625,0.6479768753051758,-0.18735694885253906,0.17134404182434082
1761333897431999500,5.06499951171875,0.523834228515625,-0.13528847694396973,0.0628926157951355
1761333897450699800,5.08369970703125,-0.07520008087158203,-0.08716034889221191,0.046067774295806885
1761333897469400000,5.102400146484375,-0.7736883163452148,-0.04327988624572754,0.02894604206085205
1761333897488100000,5.12110009765625,-1.0497941970825195,0.03874778747558594,-0.023289620876312256
1761333897506800400,5.13980029296875,-1.090165138244629,0.11845803260803223,0.13390755653381348
1761333897525500700,5.158500732421875,-0.8320884704589844,0.1631760597229004,0.010280370712280273
1761333897544201000,5.177200927734375,-0.3736753463745117,0.13258600234985352,-0.022750794887542725
1761333897562901200,5.1959013671875,0.08521270751953125,0.060068607330322266,-0.1444321870803833
1761333897581601500,5.2146015625,0.42760372161865234,0.0010616779327392578,-0.3093520402908325
1761333897600301600,5.233301513671875,0.5998210906982422,-0.12647247314453125,-0.4336322546005249
1761333897619001900,5.252001953125,0.49738502502441406,-0.1937577724456787,-0.47287479043006897
1761333897637702100,5.2707021484375,0.2671537399291992,-0.167616605758667,-0.5969429016113281
1761333897656402400,5.28940234375,0.0681467056274414,-0.15440940856933594,-0.703133761882782
1761333897675102500,5.3081025390625,0.07611751556396484,-0.13582706451416016,-0.49801093339920044
1761333897693803000,5.326802978515625,0.050820350646972656,-0.11821722984313965,-0.43235206604003906
1761333897712503000,5.3455029296875,-0.09068870544433594,-0.1258399486541748,-0.39574193954467773
1761333897731203300,5.364203369140625,-0.09708118438720703,-0.1546459197998047,-0.2518141269683838
1761333897749903600,5.382903564453125,-0.11951065063476562,-0.1212618350982666,-0.03607410192489624
1761333897768604000,5.40160400390625,-0.19320201873779297,-0.021012067794799805,0.15871965885162354
1761333897787304000,5.420303955078125,-0.13987159729003906,0.08993053436279297,0.33673393726348877
1761333897806004200,5.439004150390625,-0.023200035095214844,0.18403291702270508,0.4150879979133606
1761333897824704500,5.45770458984375,0.06864547729492188,0.29521679878234863,0.5447627902030945
1761333897843404800,5.47640478515625,0.13742542266845703,0.37120676040649414,0.47427046298980713
1761333897862105000,5.49510498046875,0.23830699920654297,0.3731968402862549,0.3788158893585205
1761333897880805400,5.513805419921875,0.31879615783691406,0.32706379890441895,0.21196824312210083
1761333897899505400,5.53250537109375,0.49260807037353516,0.3675537109375,0.1452518105506897
1761333897918205700,5.551205810546875,0.7602949142456055,0.1376805305480957,0.2350718379020691
1761333897936906000,5.569906005859375,0.7507381439208984,-0.16181182861328125,0.3242654800415039
1761333897955606300,5.588606201171875,0.1012582778930664,-0.2149345874786377,0.10721582174301147
1761333897974306600,5.607306640625,-0.6229143142700195,-0.21909713745117188,-0.08487915992736816
1761333897993006800,5.6260068359375,-0.7130565643310547,-0.2501974105834961,0.11337751150131226
1761333898011707000,5.644706787109375,-0.2505531311035156,-0.27346086502075195,0.4258711338043213
1761333898030407200,5.6634072265625,0.041604042053222656,-0.2922637462615967,0.6316108703613281
1761333898049107500,5.682107421875,-0.15266132354736328,-0.1671454906463623,0.6961392164230347
1761333898067807700,5.700807861328125,-0.5131120681762695,0.11392498016357422,0.55262291431427
1761333898086508000,5.719508056640625,-0.5305261611938477,0.24135732650756836,0.3793673515319824
1761333898105208300,5.738208251953125,-0.23427867889404297,0.10046100616455078,0.36052924394607544
1761333898123908400,5.756908447265625,-0.054594993591308594,0.02015376091003418,0.057298481464385986
1761333898142608600,5.775608642578125,-0.10376644134521484,0.012712478637695312,-0.35662490129470825
1761333898161309000,5.794308837890625,-0.07402992248535156,-0.04342842102050781,-0.5611183643341064
1761333898180009200,5.81300927734375,0.06873798370361328,-0.0941019058227539,-0.556678831577301
1761333898198709500,5.83170947265625,0.23080158233642578,-0.06759357452392578,-0.479391872882843
1761333898217409500,5.850409423828125,0.292327880859375,-0.021774768829345703,-0.3390427827835083
1761333898236109800,5.86910986328125,0.30176448822021484,-0.011399030685424805,-0.2358214259147644
1761333898254810000,5.88781005859375,0.25586986541748047,-0.014590024948120117,-0.1262890100479126
1761333898273510400,5.906510498046875,0.03487110137939453,-0.00905919075012207,-0.11285650730133057
1761333898292210700,5.925210693359375,-0.1864166259765625,-0.03112626075744629,-0.14266479015350342
1761333898310911000,5.943910888671875,-0.2499685287475586,-0.0772256851196289,-0.20384064316749573
1761333898329611000,5.962611083984375,-0.195770263671875,-0.10313272476196289,-0.28752678632736206
1761333898348311600,5.9813115234375,-0.12791824340820312,-0.1269550323486328,-0.32694241404533386
1761333898367011600,6.000011474609375,-0.0417633056640625,-0.1471564769744873,-0.26749294996261597
1761333898385711900,6.0187119140625,0.07659912109375,-0.13212943077087402,-0.2542951703071594
1761333898404412200,6.037412109375,0.1101675033569336,0.01891469955444336,-0.1615518033504486
1761333898423112400,6.056112548828125,0.15470504760742188,0.08451223373413086,0.056548237800598145
1761333898441812700,6.074812744140625,0.09102630615234375,0.11863112449645996,0.15620273351669312
1761333898460512800,6.0935126953125,-0.027886390686035156,0.23505878448486328,0.17400068044662476
1761333898479213000,6.112213134765625,-0.14993858337402344,0.2681698799133301,0.2213677167892456
1761333898497913300,6.130913330078125,-0.14288043975830078,0.24824953079223633,0.260287880897522
1761333898516613600,6.149613525390625,-0.08506584167480469,0.18624615669250488,0.21303027868270874
1761333898535314000,6.16831396484375,-0.0737905502319336,0.1559009552001953,0.10231876373291016
1761333898554014200,6.18701416015625,-0.02839183807373047,0.13138079643249512,-0.08093219995498657
1761333898572714200,6.20571435546875,0.09699058532714844,0.038382530212402344,-0.1945955753326416
1761333898591414800,6.224414794921875,0.0832977294921875,-0.050223350524902344,-0.3252960443496704
1761333898610114800,6.24311474609375,-0.12332725524902344,-0.10455107688903809,-0.4466208219528198
1761333898628815000,6.261815185546875,-0.19508647918701172,-0.09845972061157227,-0.47926703095436096
1761333898647515400,6.280515380859375,-0.008385658264160156,-0.08896064758300781,-0.41363582015037537
1761333898666215700,6.299215576171875,0.2820301055908203,-0.16266798973083496,-0.2890850901603699
1761333898684916000,6.317916015625,0.4687767028808594,-0.169386625289917,-0.0677480697631836
1761333898703616000,6.336615966796875,0.3998441696166992,-0.08881378173828125,0.23165124654769897
1761333898722316500,6.355316650390625,0.22301769256591797,-0.049314022064208984,0.39731311798095703
1761333898741016600,6.3740166015625,0.02676868438720703,0.03395724296569824,0.5565008521080017
1761333898759716900,6.392716796875,-0.16811084747314453,0.06506085395812988,0.6245274543762207
1761333898778417200,6.411417236328125,-0.3798484802246094,0.10162019729614258,0.5425630807876587
1761333898797117400,6.430117431640625,-0.5067253112792969,0.13624811172485352,0.3337717652320862
1761333898815817700,6.448817626953125,-0.40978336334228516,0.05713009834289551,0.2018529176712036
1761333898834518000,6.46751806640625,-0.20187091827392578,-0.048992156982421875,0.07570880651473999
1761333898853218300,6.48621826171875,-0.0033140182495117188,-0.10050058364868164,-0.0967511534690857
1761333898871918300,6.50491845703125,0.2007312774658203,-0.17464566230773926,-0.17963534593582153
1761333898890618600,6.52361865234375,0.29376220703125,-0.2290668487548828,-0.187046080827713
1761333898909319000,6.54231884765625,0.13469505310058594,-0.22248458862304688,-0.1756868064403534
1761333898928019200,6.561019287109375,-0.18006515502929688,-0.0028345584869384766,-0.12445288896560669
1761333898946719500,6.579719482421875,-0.09040069580078125,0.047144412994384766,-0.11196693778038025
1761333898965419800,6.598419677734375,0.12224674224853516,-0.0016374588012695312,-0.04646652936935425
1761333898984120000,6.6171201171875,0.02926158905029297,-0.005794048309326172,0.0022196173667907715
1761333899002820000,6.635820068359375,-0.21679401397705078,0.07949566841125488,-0.09520900249481201
1761333899021520400,6.654520263671875,-0.35078907012939453,0.03694605827331543,-0.07519572973251343
1761333899040220700,6.673220703125,-0.1195831298828125,-0.0019230842590332031,-0.06702059507369995
1761333899058921000,6.6919208984375,0.20513916015625,-0.08143019676208496,0.11309754848480225
1761333899077621200,6.710621337890625,0.25967979431152344,-0.048864126205444336,0.2121526002883911
1761333899096321500,6.729321533203125,0.1577596664428711,0.0006620883941650391,0.3340986371040344
1761333899115021800,6.748021728515625,0.05530261993408203,0.11264181137084961,0.46317052841186523
1761333899133721900,6.766721923828125,-0.14412498474121094,0.19619369506835938,0.5214441418647766
1761333899152422100,6.785422119140625,-0.24653053283691406,0.20254302024841309,0.47085171937942505
1761333899171122400,6.804122314453125,-0.2867565155029297,0.18851351737976074,0.3864448666572571
1761333899189822700,6.82282275390625,-0.1919269561767578,0.1569361686706543,0.10133534669876099
1761333899208523000,6.84152294921875,0.010763168334960938,0.10404777526855469,-0.1642845869064331
1761333899227223300,6.860223388671875,0.30686283111572266,0.09657168388366699,-0.27875590324401855
1761333899245923600,6.878923583984375,0.4548006057739258,0.023958444595336914,-0.331398069858551
1761333899264623900,6.897623779296875,0.583949089050293,0.018398046493530273,-0.30761203169822693
1761333899283324200,6.91632421875,0.3726978302001953,-0.04135894775390625,-0.2709391117095947
1761333899302024400,6.9350244140625,0.059986114501953125,-0.07962465286254883,-0.3244209587574005
1761333899320724500,6.953724365234375,-0.2023611068725586,-0.07646656036376953,-0.2358887493610382
1761333899339424800,6.9724248046875,-0.2595357894897461,-0.07307100296020508,-0.18490058183670044
1761333899358125000,6.991125,-0.24445056915283203,-0.06182861328125,0.019258707761764526
1761333899376825300,7.009825439453125,-0.2771577835083008,-0.040342092514038086,0.1757524609565735
1761333899395525600,7.028525634765625,-0.12782764434814453,-0.059400081634521484,0.3186802268028259
1761333899414226000,7.047225830078125,0.0780324935913086,-0.09711289405822754,0.38402074575424194
1761333899432926200,7.06592626953125,0.13883304595947266,-0.10420370101928711,0.5454071760177612
1761333899451626500,7.08462646484375,0.04623603820800781,-0.10580825805664062,0.37631160020828247
1761333899470326500,7.103326416015625,0.02703571319580078,-0.09842991828918457,0.09770464897155762
1761333899489027000,7.122027099609375,0.19700908660888672,-0.0983426570892334,-0.06129288673400879
1761333899507727000,7.14072705078125,0.2497243881225586,-0.1127164363861084,-0.017036795616149902
1761333899526427400,7.159427490234375,0.12391948699951172,-0.10790467262268066,0.01032257080078125
1761333899545127700,7.178127685546875,-0.07312679290771484,-0.13047146797180176,-0.11837360262870789
1761333899563828000,7.196827880859375,-0.20745086669921875,-0.12813973426818848,-0.17981266975402832
1761333899582528300,7.2155283203125,-0.29421424865722656,-0.08466911315917969,-0.3658144772052765
1761333899601228500,7.234228515625,-0.32073307037353516,-0.01920795440673828,-0.43915969133377075
1761333899619928800,7.2529287109375,-0.13645076751708984,0.07909536361694336,-0.4615534543991089
1761333899638629000,7.271629150390625,0.09915447235107422,0.04598402976989746,-0.41181570291519165
1761333899657329400,7.290329345703125,0.22768115997314453,0.08527207374572754,-0.3921593427658081
1761333899676029400,7.309029541015625,0.30928516387939453,0.0888667106628418,-0.4731263220310211
1761333899694730000,7.32772998046875,0.38988780975341797,0.08223962783813477,-0.4075741171836853
1761333899713430000,7.346429931640625,0.47856807708740234,0.026194334030151367,-0.16398438811302185
1761333899732130300,7.36513037109375,0.4555854797363281,-0.05192995071411133,0.04030418395996094
1761333899750830600,7.38383056640625,0.28722667694091797,-0.057877540588378906,0.1415712833404541
1761333899769531000,7.40253076171875,-0.032212257385253906,-0.03181028366088867,0.1152348518371582
1761333899788231200,7.421231201171875,-0.3673105239868164,0.04603862762451172,0.03069138526916504
1761333899806931500,7.439931396484375,-0.5387401580810547,0.11741828918457031,-0.032447606325149536
1761333899825631700,7.4586318359375,-0.4497642517089844,0.20207595825195312,-0.11149674654006958
1761333899844332000,7.47733203125,-0.19826030731201172,0.2594261169433594,-0.1418881118297577
1761333899863032300,7.4960322265625,0.02957439422607422,0.2622404098510742,-0.1122063398361206
1761333899881732400,7.514732421875,0.2749776840209961,0.2082662582397461,0.019302666187286377
1761333899900433000,7.533432861328125,0.45598697662353516,0.06678199768066406,0.1399543285369873
1761333899919133000,7.5521328125,0.456939697265625,-0.07742762565612793,0.22880876064300537
1761333899937833200,7.570833251953125,0.4027748107910156,-0.16171860694885254,0.3042064905166626
1761333899956533500,7.589533447265625,0.09577274322509766,-0.19714713096618652,0.3778788447380066
1761333899975233800,7.60823388671875,-0.39513301849365234,-0.12344813346862793,0.16226601600646973
1761333899993934000,7.62693408203125,-0.6987180709838867,-0.0643301010131836,-0.013614356517791748
1761333900012634400,7.64563427734375,-0.6818399429321289,0.0017938613891601562,-0.03943952918052673
1761333900031334700,7.664334716796875,-0.5713396072387695,0.06387639045715332,-0.014597475528717041
1761333900050035000,7.683034912109375,-0.4733085632324219,0.040843963623046875,-0.11859241127967834
1761333900068735200,7.7017353515625,-0.3632354736328125,0.032190799713134766,-0.19488734006881714
1761333900087435500,7.720435546875,0.043288230895996094,-0.11683058738708496,-0.18960273265838623
1761333900106135800,7.7391357421875,0.6028852462768555,-0.2435135841369629,-0.08260756731033325
1761333900124836000,7.757836181640625,0.7668142318725586,-0.3704502582550049,0.016081511974334717
1761333900143536400,7.776536376953125,0.4662637710571289,-0.2930185794830322,-0.15366271138191223
1761333900162236400,7.795236328125,0.12253189086914062,-0.2936246395111084,-0.06638455390930176
1761333900180936700,7.813936767578125,-0.19087791442871094,-0.29479050636291504,-0.10265651345252991
1761333900199637000,7.832636962890625,-0.03418445587158203,-0.0771481990814209,0.12752774357795715
1761333900218337300,7.851337158203125,0.05330085754394531,0.024669408798217773,0.21963882446289062
1761333900237037600,7.87003759765625,-0.00286102294921875,0.3727712631225586,-0.29484957456588745
1761333900255737900,7.88873779296875,0.055014610290527344,0.1328897476196289,0.1196642816066742
1761333900274438100,7.907438232421875,0.3888845443725586,0.1788475513458252,0.18118363618850708
1761333900293138400,7.926138427734375,0.5022687911987305,0.21812653541564941,0.39599737524986267
1761333900311838700,7.944838623046875,0.3895072937011719,0.21450138092041016,0.4153251647949219
1761333900330539000,7.9635390625,0.11193466186523438,0.11105823516845703,0.3710770010948181
1761333900349239300,7.9822392578125,-0.22748851776123047,0.08682990074157715,0.19980326294898987
1761333900367939600,8.000939697265625,-0.6897430419921875,0.024149656295776367,0.1930634081363678
1761333900386640000,8.019639892578125,-0.7228260040283203,0.062027692794799805,0.11898772418498993
1761333900405340200,8.038340087890624,-0.6552009582519531,0.01333928108215332,0.08576391637325287
1761333900424040400,8.05704052734375,-0.5998830795288086,-0.0612185001373291,-0.07775149494409561
1761333900442740700,8.07574072265625,-0.5323505401611328,-0.09642601013183594,-0.15406805276870728
1761333900461441000,8.09444091796875,-0.3444337844848633,-0.02657794952392578,-0.20117373764514923
1761333900480141300,8.113141357421876,-0.04135417938232422,0.08292198181152344,-0.14746493101119995
1761333900498841600,8.131841552734375,0.09529685974121094,-0.038590192794799805,-0.00926421582698822
1761333900517542000,8.1505419921875,0.2066059112548828,0.07457709312438965,-0.03294868767261505
1761333900536242200,8.1692421875,0.3979625701904297,0.22472357749938965,-0.12021401524543762
1761333900554942500,8.1879423828125,0.4470195770263672,0.20004606246948242,-0.18591274321079254
1761333900573642800,8.206642822265625,0.47457408905029297,0.12166547775268555,-0.06514659523963928
1761333900592342800,8.2253427734375,0.44863224029541016,0.05767059326171875,-0.00698581337928772
1761333900611043300,8.244043212890626,0.40811824798583984,-0.011201620101928711,0.05554860830307007
1761333900629743600,8.26274365234375,0.35135364532470703,-0.11318039894104004,0.061639100313186646
1761333900648444000,8.28144384765625,0.08197498321533203,-0.15191435813903809,0.17169000208377838
1761333900667144000,8.30014404296875,-0.2082233428955078,-0.08232736587524414,0.1458284854888916
1761333900685844200,8.31884423828125,-0.3567972183227539,-0.021521806716918945,0.02838180959224701
1761333900704544800,8.337544677734375,-0.24950408935546875,-0.005415201187133789,0.08864420652389526
1761333900723244800,8.356244873046874,-0.1492166519165039,0.03360414505004883,0.04982006549835205
1761333900741945000,8.374945068359375,-0.013821601867675781,0.004755735397338867,0.09691458940505981
1761333900760645400,8.393645263671875,0.009236335754394531,0.010812044143676758,-0.032840996980667114
1761333900779346000,8.412345947265624,-0.05234336853027344,0.02182316780090332,-0.12187433242797852
1761333900798046000,8.4310458984375,-0.04049205780029297,-0.05296802520751953,-0.15557923913002014
1761333900816746200,8.449746337890625,-0.039031028747558594,-0.055702924728393555,-0.3124406635761261
1761333900835446500,8.468446533203124,-0.04401588439941406,-0.058896541595458984,-0.3235156834125519
1761333900854146800,8.487146728515626,0.10021305084228516,-0.0512082576751709,-0.20615366101264954
1761333900872847000,8.50584716796875,0.08133602142333984,-0.08175444602966309,-0.18503639101982117
1761333900891547400,8.52454736328125,0.045470237731933594,-0.014644622802734375,-0.22120048105716705
1761333900910247700,8.54324755859375,0.1343822479248047,0.033510446548461914,-0.1790006309747696
1761333900928948000,8.561947998046875,0.08706474304199219,0.005757808685302734,-0.0704716295003891
1761333900947648300,8.580648193359375,0.07611083984375,-0.0026216506958007812,-0.05023828148841858
1761333900966348500,8.5993486328125,0.11438369750976562,-0.015336990356445312,-0.09691426157951355
1761333900985048800,8.618048828125,0.16175460815429688,-0.07265090942382812,0.003007456660270691
1761333901003749000,8.6367490234375,0.05623817443847656,-0.09504151344299316,0.08864450454711914
1761333901022449400,8.655449462890624,-0.27000904083251953,-0.035150766372680664,-0.015660464763641357
1761333901041149700,8.674149658203126,-0.4420490264892578,0.07014703750610352,-0.07192319631576538
1761333901059850000,8.69285009765625,-0.3374977111816406,0.0919198989868164,-0.02651555836200714
1761333901078550300,8.71155029296875,-0.1039590835571289,0.08312582969665527,0.051390230655670166
1761333901097250600,8.73025048828125,0.04766368865966797,0.15424537658691406,0.03798922896385193
1761333901115950800,8.748950927734375,0.13637351989746094,0.24495673179626465,-0.0334642231464386
1761333901134651100,8.767651123046875,0.1699533462524414,0.1935427188873291,-0.10171175003051758
1761333901153351400,8.786351318359374,0.24346256256103516,0.0927889347076416,-0.03086569905281067
1761333901172051700,8.8050517578125,0.28531360626220703,0.0026895999908447266,0.03145298361778259
1761333901190752000,8.823751953125,0.2988557815551758,-0.10236978530883789,0.15478679537773132
1761333901209452300,8.842452392578124,0.2119455337524414,-0.18822288513183594,0.2377541959285736
1761333901228152600,8.861152587890626,0.038918495178222656,-0.21084856986999512,0.24805060029029846
1761333901246852900,8.879852783203125,-0.16321086883544922,-0.17792844772338867,0.24268469214439392
1761333901265553200,8.89855322265625,-0.41381072998046875,-0.14333772659301758,0.1736449897289276
1761333901284253400,8.91725341796875,-0.6185712814331055,-0.07842850685119629,0.06937256455421448
1761333901302953700,8.93595361328125,-0.5374069213867188,-0.0028069019317626953,0.06900599598884583
1761333901321654000,8.954654052734375,-0.17929649353027344,0.006346225738525391,0.11909982562065125
1761333901340354600,8.9733544921875,0.05254077911376953,0.03728008270263672,-0.01608031988143921
1761333901359054800,8.992054931640626,0.22013568878173828,0.0659494400024414,-0.17757251858711243
1761333901377755000,9.0107548828125,0.24463558197021484,0.005677700042724609,-0.16640645265579224
1761333901396455200,9.029455078125,0.2746152877807617,-0.0692148208618164,-0.11731207370758057
1761333901415155700,9.04815576171875,0.18952655792236328,-0.1405024528503418,-0.11659634113311768
1761333901433856000,9.06685595703125,0.13550472259521484,-0.15479612350463867,-0.10363292694091797
1761333901452556300,9.085556396484375,0.1521768569946289,-0.15340590476989746,-0.016706496477127075
1761333901471256600,9.104256591796876,0.10781288146972656,-0.10454130172729492,0.04925665259361267
1761333901489956900,9.122956787109375,-0.030735015869140625,-0.06782197952270508,0.07129567861557007
1761333901508657200,9.1416572265625,-0.23057937622070312,0.025205135345458984,0.07488489151000977
1761333901527357400,9.160357421875,-0.4242887496948242,0.13532209396362305,0.008315622806549072
1761333901546057700,9.1790576171875,-0.26053428649902344,0.16539573669433594,0.059189945459365845
1761333901564758000,9.197758056640625,0.05421638488769531,0.1150360107421875,0.1416304111480713
1761333901583458300,9.216458251953124,0.18200302124023438,0.06766533851623535,0.06658929586410522
1761333901602158600,9.23515869140625,0.19527816772460938,0.08243560791015625,-0.06140521168708801
1761333901620859000,9.25385888671875,0.15972232818603516,0.0753335952758789,-0.01732426881790161
1761333901639559200,9.27255908203125,0.05060768127441406,0.042980194091796875,0.010788440704345703
1761333901658259500,9.291259521484376,-0.0040912628173828125,0.04545998573303223,-0.07469278573989868
1761333901676959700,9.309959716796875,0.19741535186767578,-0.04576873779296875,0.017801523208618164
1761333901695660000,9.328659912109375,0.4168071746826172,-0.07341122627258301,0.15140974521636963
1761333901714360300,9.3473603515625,0.4254608154296875,-0.10303521156311035,0.18869739770889282
1761333901733060600,9.366060546875,0.18361854553222656,-0.08233833312988281,0.1263917088508606
1761333901751761000,9.384760986328125,-0.12897014617919922,0.023972272872924805,-0.020208120346069336
1761333901770461200,9.403461181640624,-0.2592782974243164,0.0856785774230957,-0.05226099491119385
1761333901789161500,9.422161376953126,-0.1365070343017578,0.14947819709777832,-0.06122392416000366
1761333901807861800,9.44086181640625,0.18278121948242188,0.16824626922607422,0.01934605836868286
1761333901826562000,9.45956201171875,0.33344268798828125,0.09386301040649414,0.10725986957550049
1761333901845262600,9.4782626953125,0.2297382354736328,0.02701258659362793,0.11104196310043335
1761333901863963000,9.496962890625,-0.03936767578125,0.04844307899475098,0.04402780532836914
1761333901882663200,9.5156630859375,-0.2457113265991211,0.04935312271118164,-0.1235266923904419
1761333901901363500,9.534363525390624,-0.1898479461669922,-0.03607892990112305,-0.1469208300113678
1761333901920063700,9.553063720703125,0.11307239532470703,-0.13860058784484863,-0.005742013454437256
1761333901938764000,9.571763916015625,0.2619037628173828,-0.22838997840881348,0.1447845697402954
1761333901957464300,9.59046435546875,-0.007976531982421875,-0.11705422401428223,0.04339158535003662
1761333901976164600,9.60916455078125,-0.24067974090576172,-0.10575008392333984,-0.10707682371139526
1761333901994865000,9.627864990234375,-0.24136829376220703,-0.15314483642578125,-0.044077277183532715
1761333902013565200,9.646565185546875,-0.1596050262451172,-0.1437211036682129,0.021706104278564453
1761333902032265500,9.665265380859376,-0.18381881713867188,-0.09052038192749023,0.008374154567718506
1761333902050965800,9.6839658203125,-0.14650630950927734,-0.11240148544311523,0.036367714405059814
1761333902069666000,9.702666015625,-0.17269611358642578,-0.13220715522766113,0.12780946493148804
1761333902088366300,9.721366455078124,-0.31837940216064453,-0.11313390731811523,0.10562282800674438
1761333902107066600,9.740066650390625,-0.3890876770019531,-0.09886431694030762,-0.03311353921890259
1761333902125767000,9.758766845703125,-0.3330698013305664,-0.10406327247619629,-0.13450127840042114
1761333902144467500,9.777467529296874,-0.18642044067382812,-0.1354832649230957,-0.07379758358001709
1761333902163167700,9.796167724609376,-0.0786294937133789,-0.1546192169189453,-0.09323340654373169
1761333902181868000,9.814867919921875,-0.1098470687866211,-0.044512271881103516,-0.09433305263519287
1761333902200568300,9.833568359375,-0.18447208404541016,0.055138587951660156,-0.2119121253490448
1761333902219268600,9.8522685546875,-0.06314277648925781,0.08378243446350098,-0.2825659513473511
1761333902237969000,9.870968994140625,0.09409523010253906,0.10170960426330566,-0.25108399987220764
1761333902256669200,9.889669189453125,0.33749866485595703,0.07098007202148438,-0.11280912160873413
1761333902275369500,9.908369384765624,0.5632896423339844,0.041712284088134766,0.06104785203933716
1761333902294069800,9.92706982421875,0.5455684661865234,0.09911918640136719,0.09341168403625488
1761333902312770000,9.94577001953125,0.23047447204589844,0.14464378356933594,0.03864496946334839
1761333902331470300,9.96447021484375,-0.10805892944335938,0.17770886421203613,-0.03440713882446289
1761333902350170600,9.983170654296876,-0.21177387237548828,0.19608521461486816,-0.03677648305892944
1761333902368871000,10.001870849609375,-0.056484222412109375,0.18525934219360352,0.019597172737121582
1761333902387571200,10.0205712890625,0.18468475341796875,0.16203951835632324,0.14498794078826904
1761333902406271700,10.039271728515626,0.4616270065307617,0.046419382095336914,0.3643116354942322
1761333902424972000,10.057971923828125,0.3803520202636719,-0.00812983512878418,0.4578462839126587
1761333902443672300,10.07667236328125,-0.014011383056640625,0.06142568588256836,0.24459749460220337
1761333902462372600,10.09537255859375,-0.25767993927001953,0.022713422775268555,0.03544539213180542
1761333902481073000,10.114072998046876,-0.29169368743896484,-0.03644847869873047,0.01534968614578247
1761333902499773200,10.132773193359375,-0.3193531036376953,-0.08777117729187012,-0.02745687961578369
1761333902518473500,10.151473388671874,-0.38729000091552734,-0.037702083587646484,-0.12397098541259766
1761333902537173800,10.170173828125,-0.3485698699951172,-0.014076948165893555,-0.25913411378860474
1761333902555874000,10.1888740234375,-0.15749359130859375,-0.04572176933288574,-0.25235307216644287
1761333902574574300,10.20757421875,0.12290382385253906,-0.04709625244140625,-0.13803362846374512
1761333902593275000,10.22627490234375,0.34070587158203125,-0.05576753616333008,-0.03435474634170532
1761333902611975200,10.24497509765625,0.2795677185058594,-0.033481597900390625,-0.06550353765487671
1761333902630675500,10.263675537109375,0.16324806213378906,0.016637563705444336,-0.07980382442474365
1761333902649375700,10.282375732421874,0.18169689178466797,0.028238534927368164,-0.09754866361618042
1761333902668076000,10.301075927734376,0.2136669158935547,0.0019478797912597656,-0.033432722091674805
1761333902686776300,10.3197763671875,0.1188974380493164,-0.009277105331420898,0.09472596645355225
1761333902705476900,10.338476806640625,-0.12363815307617188,-0.005200386047363281,0.11752951145172119
1761333902724177000,10.357177001953126,-0.3168354034423828,0.003844738006591797,0.09670180082321167
1761333902742877400,10.37587744140625,-0.32328128814697266,-0.017108917236328125,0.054814696311950684
1761333902761577700,10.39457763671875,-0.13236331939697266,-0.029211759567260742,0.08755970001220703
1761333902780278000,10.413278076171874,-0.0320587158203125,-0.008223295211791992,0.11727315187454224
1761333902798978300,10.431978271484375,-0.021724700927734375,0.08832907676696777,0.08339011669158936
1761333902817678600,10.4506787109375,-0.023316383361816406,0.12154006958007812,-0.02023184299468994
1761333902836379000,10.46937890625,-0.024956703186035156,0.14588642120361328,-0.05192708969116211
1761333902855079200,10.4880791015625,-0.019018173217773438,0.10653400421142578,-0.1358722448348999
1761333902873779500,10.506779541015625,0.05026721954345703,0.09701228141784668,-0.12421572208404541
1761333902892479700,10.525479736328125,0.21717453002929688,0.01807117462158203,-0.031674861907958984
1761333902911180300,10.54418017578125,0.2935342788696289,-0.04092121124267578,-0.006292223930358887
1761333902929880600,10.562880615234375,0.29315853118896484,-0.07459378242492676,-0.025285720825195312
1761333902948580900,10.581580810546875,0.2809429168701172,-0.057884931564331055,0.022381305694580078
1761333902967281200,10.60028125,0.04822254180908203,-0.0023202896118164062,0.020244479179382324
1761333902985981400,10.6189814453125,-0.19749927520751953,0.06822538375854492,0.04282581806182861
1761333903004681700,10.637681640625,-0.37308597564697266,0.11185240745544434,0.07813405990600586
1761333903023382300,10.65638232421875,-0.3391227722167969,0.10136985778808594,0.07951664924621582
1761333903042082600,10.67508251953125,-0.05807209014892578,0.05605459213256836,0.10126888751983643
1761333903060782800,10.693782958984375,0.17099666595458984,-0.012919187545776367,0.09523624181747437
1761333903079483100,10.712483154296875,0.10633087158203125,-0.008336067199707031,0.04719144105911255
1761333903098183400,10.731183349609376,0.23254966735839844,-0.009043455123901367,-0.01767343282699585
1761333903116883700,10.7498837890625,0.2580242156982422,-0.10082149505615234,-0.023746490478515625
1761333903135584000,10.768583984375,0.19739723205566406,-0.19192051887512207,0.021791815757751465
1761333903154284300,10.7872841796875,-0.1140594482421875,-0.14193177223205566,-0.05698353052139282
1761333903172984800,10.80598486328125,-0.3180055618286133,-0.0830693244934082,-0.17334440350532532
1761333903191685000,10.82468505859375,-0.22146892547607422,-0.09833455085754395,-0.18801742792129517
1761333903210385400,10.843385498046874,-0.05316734313964844,-0.18251442909240723,-0.04775732755661011
1761333903229085700,10.862085693359376,-0.10900306701660156,-0.1186223030090332,-0.040429890155792236
1761333903247786000,10.880785888671875,-0.18025970458984375,-0.07673263549804688,0.010671377182006836
1761333903266486300,10.899486328125,-0.12946701049804688,0.01680612564086914,0.010071337223052979
1761333903285186600,10.9181865234375,-0.05184650421142578,0.08165645599365234,0.08298057317733765
1761333903303886800,10.936886962890625,-0.01798725128173828,0.08526134490966797,-0.023096084594726562
1761333903322587400,10.95558740234375,-0.033509254455566406,0.06629061698913574,-0.14375358819961548
1761333903341287700,10.97428759765625,-0.08097648620605469,0.10128355026245117,-0.14828592538833618
1761333903359988000,10.992988037109376,0.05931377410888672,0.09388017654418945,-0.06025475263595581
1761333903378688300,11.011688232421875,0.03730487823486328,0.035207271575927734,0.0500909686088562
1761333903397388500,11.030388427734374,0.13464832305908203,0.046622276306152344,0.08578532934188843
1761333903416088800,11.0490888671875,0.11256217956542969,-0.008733510971069336,0.10609197616577148
1761333903434789000,11.0677890625,0.022009849548339844,0.03600144386291504,-0.11352062225341797
1761333903453489700,11.08648974609375,-0.006808280944824219,-0.03770709037780762,-0.01705467700958252
1761333903472190000,11.10518994140625,-0.055957794189453125,0.029658794403076172,0.12117892503738403
1761333903490890200,11.12389013671875,-0.014031410217285156,0.07256674766540527,0.3541484475135803
1761333903509590500,11.142590576171875,0.10414409637451172,0.0016829967498779297,0.176172137260437
1761333903528290800,11.161290771484374,-0.30153560638427734,-0.08429288864135742,-0.10779377818107605
1761333903546991000,11.1799912109375,-0.5950889587402344,0.12252306938171387,-0.14682424068450928
1761333903565691600,11.198691650390625,-0.3517932891845703,-0.04738736152648926,-0.021564185619354248
1761333903584392000,11.217391845703125,0.2940807342529297,-0.08777022361755371,-0.5638709664344788
1761333903603092200,11.23609228515625,-0.14873886108398438,-0.04709362983703613,-0.44694235920906067
1761333903621792500,11.25479248046875,0.009076118469238281,0.06017494201660156,0.21513605117797852
1761333903640492800,11.273492919921875,0.7590856552124023,0.21660208702087402,0.49140113592147827
1761333903659193000,11.292193115234374,1.4033594131469727,0.15152668952941895,0.4796138405799866
