time,seconds_elapsed,z,y,x
1761315655613681400,0.063681396484375,-0.8626251220703125,-0.4763946533203125,0.1565093994140625
1761315655623728400,0.073728271484375,-0.859954833984375,-0.473785400390625,0.1588897705078125
1761315655633776400,0.0837763671875,-0.8604278564453125,-0.4697265625,0.156982421875
1761315655643823400,0.0938232421875,-0.871856689453125,-0.46661376953125,0.15087890625
1761315655653870300,0.103870361328125,-0.8929901123046875,-0.4634246826171875,0.1558990478515625
1761315655663918600,0.113918701171875,-0.8699493408203125,-0.461517333984375,0.155609130859375
1761315655673965600,0.123965576171875,-0.8762359619140625,-0.47113037109375,0.1475372314453125
1761315655684012300,0.13401220703125,-0.89117431640625,-0.4759063720703125,0.1253509521484375
1761315655694060300,0.144060302734375,-0.8763275146484375,-0.4698333740234375,0.1107025146484375
1761315655704107300,0.154107177734375,-0.8853607177734375,-0.4529266357421875,0.0840606689453125
1761315655714154500,0.164154541015625,-0.9568328857421875,-0.461669921875,0.1145477294921875
1761315655724202800,0.17420263671875,-0.9156646728515625,-0.504791259765625,0.1745147705078125
1761315655734249500,0.18424951171875,-0.8812713623046875,-0.4976959228515625,0.1505279541015625
1761315655744296400,0.19429638671875,-0.87823486328125,-0.4656524658203125,0.1237640380859375
1761315655754343700,0.20434375,-0.7921295166015625,-0.4456787109375,0.1006927490234375
1761315655764391700,0.2143916015625,-0.7346954345703125,-0.4146728515625,0.1167144775390625
1761315655774438700,0.224438720703125,-0.806488037109375,-0.40728759765625,0.1473846435546875
1761315655784485600,0.234485595703125,-0.92242431640625,-0.4452056884765625,0.1855316162109375
1761315655794533600,0.24453369140625,-0.92864990234375,-0.47320556640625,0.2344970703125
1761315655804580600,0.25458056640625,-0.893157958984375,-0.4909515380859375,0.218231201171875
1761315655814627600,0.264627685546875,-0.844390869140625,-0.476470947265625,0.1883544921875
1761315655824675600,0.274675537109375,-0.767852783203125,-0.4705657958984375,0.1678009033203125
1761315655834722600,0.28472265625,-0.7462921142578125,-0.4712982177734375,0.1025238037109375
1761315655844769800,0.294769775390625,-0.6441650390625,-0.5204620361328125,0.115936279296875
1761315655854817500,0.304817626953125,-0.50250244140625,-0.496368408203125,0.1554718017578125
1761315655864864500,0.314864501953125,-0.4789886474609375,-0.48162841796875,0.1606292724609375
1761315655874911500,0.324911376953125,-0.513641357421875,-0.5201416015625,0.1546783447265625
1761315655884958700,0.334958740234375,-0.5338134765625,-0.5540771484375,0.0858917236328125
1761315655895006700,0.3450068359375,-0.5778961181640625,-0.4806365966796875,-0.0040740966796875
1761315655905053700,0.3550537109375,-0.6131591796875,-0.3752288818359375,-0.01300048828125
1761315655915100700,0.3651005859375,-0.6240997314453125,-0.3206329345703125,-0.024932861328125
1761315655925148700,0.375148681640625,-0.683074951171875,-0.4257354736328125,-0.141876220703125
1761315655935195600,0.385195556640625,-0.7131195068359375,-0.3718109130859375,-0.0594329833984375
1761315655945242600,0.39524267578125,-0.4761962890625,-0.3948516845703125,-0.0830078125
1761315655955290600,0.40529052734375,-0.5817718505859375,-0.407958984375,-0.0621337890625
1761315655965337900,0.415337890625,-0.739593505859375,-0.436859130859375,0.0378875732421875
1761315655975384800,0.425384765625,-0.8265838623046875,-0.46240234375,0.0803375244140625
1761315655985432600,0.4354326171875,-0.8974761962890625,-0.434539794921875,0.0924835205078125
1761315655995479600,0.4454794921875,-0.98992919921875,-0.390655517578125,0.019012451171875
1761315656005526500,0.455526611328125,-0.99310302734375,-0.335235595703125,-0.0490264892578125
1761315656015574800,0.46557470703125,-0.9418792724609375,-0.3036346435546875,-0.06280517578125
1761315656025621800,0.475621826171875,-1.00787353515625,-0.299652099609375,-0.03326416015625
1761315656035668700,0.485668701171875,-1.1593017578125,-0.3270111083984375,0.0609283447265625
1761315656045715500,0.495715576171875,-1.1447906494140625,-0.353759765625,0.1708984375
1761315656055763700,0.505763671875,-1.1569366455078125,-0.35247802734375,0.225433349609375
1761315656065810700,0.515810791015625,-1.092803955078125,-0.36016845703125,0.22076416015625
1761315656075857700,0.525857666015625,-1.051513671875,-0.3902587890625,0.219818115234375
1761315656085905700,0.53590576171875,-1.10198974609375,-0.430572509765625,0.2150421142578125
1761315656095952600,0.54595263671875,-1.1448211669921875,-0.464630126953125,0.2062835693359375
1761315656105999600,0.55599951171875,-1.15179443359375,-0.475799560546875,0.1841888427734375
1761315656116047600,0.566047607421875,-1.1098480224609375,-0.4421234130859375,0.2000732421875
1761315656126094600,0.576094482421875,-1.0929412841796875,-0.3862457275390625,0.21630859375
1761315656136141600,0.5861416015625,-1.1323394775390625,-0.356536865234375,0.23028564453125
1761315656146189600,0.596189453125,-1.1164703369140625,-0.336151123046875,0.264129638671875
1761315656156236500,0.606236572265625,-1.1082611083984375,-0.3177337646484375,0.2991485595703125
1761315656166283500,0.616283447265625,-1.125091552734375,-0.29833984375,0.326324462890625
1761315656176330500,0.62633056640625,-1.1296539306640625,-0.2902374267578125,0.3341827392578125
1761315656186378800,0.636378662109375,-1.0836029052734375,-0.3358917236328125,0.3431396484375
1761315656196425700,0.64642578125,-1.0260162353515625,-0.3417816162109375,0.3197174072265625
1761315656206472700,0.65647265625,-0.9886932373046875,-0.338165283203125,0.27752685546875
1761315656216520400,0.6665205078125,-0.9316864013671875,-0.3218994140625,0.25042724609375
1761315656226567700,0.676567626953125,-0.8859100341796875,-0.33154296875,0.2479705810546875
1761315656236614700,0.68661474609375,-0.857513427734375,-0.334442138671875,0.2322235107421875
1761315656246662700,0.69666259765625,-0.842010498046875,-0.341033935546875,0.2308807373046875
1761315656256709600,0.706709716796875,-0.826568603515625,-0.3223876953125,0.2407379150390625
1761315656266756600,0.716756591796875,-0.8213653564453125,-0.3017425537109375,0.2284698486328125
1761315656276804600,0.7268046875,-0.8103179931640625,-0.300872802734375,0.2157135009765625
1761315656286851600,0.7368515625,-0.78961181640625,-0.330291748046875,0.2232818603515625
1761315656296898600,0.746898681640625,-0.800323486328125,-0.3771514892578125,0.2923126220703125
1761315656306946800,0.75694677734375,-0.94659423828125,-0.4629669189453125,0.319671630859375
1761315656316993800,0.766993896484375,-0.8764495849609375,-0.486785888671875,0.2994537353515625
1761315656327040800,0.777040771484375,-0.81158447265625,-0.4195556640625,0.2732696533203125
1761315656337087700,0.787087646484375,-0.794281005859375,-0.3951568603515625,0.2377777099609375
1761315656347135500,0.797135498046875,-0.8001861572265625,-0.4311981201171875,0.24554443359375
1761315656357182700,0.8071826171875,-0.7978973388671875,-0.441131591796875,0.277862548828125
1761315656367229700,0.817229736328125,-0.8096160888671875,-0.432373046875,0.2680816650390625
1761315656377277700,0.827277587890625,-0.8119659423828125,-0.43829345703125,0.277252197265625
1761315656387324700,0.83732470703125,-0.825927734375,-0.459686279296875,0.2836151123046875
1761315656397371600,0.84737158203125,-0.8455047607421875,-0.46600341796875,0.282318115234375
1761315656407419600,0.857419677734375,-0.875335693359375,-0.4581451416015625,0.276763916015625
1761315656417466600,0.867466552734375,-0.9338226318359375,-0.451934814453125,0.2706298828125
1761315656427513600,0.877513671875,-0.988250732421875,-0.4134979248046875,0.261962890625
1761315656437561900,0.887561767578125,-1.00311279296875,-0.5148773193359375,0.247833251953125
1761315656447608800,0.89760888671875,-1.08740234375,-0.66485595703125,0.233917236328125
1761315656457655600,0.907655517578125,-1.253021240234375,-0.7392425537109375,0.2234344482421875
1761315656467703600,0.91770361328125,-1.394134521484375,-0.7349395751953125,0.2503814697265625
1761315656477750500,0.92775048828125,-1.46484375,-0.7403411865234375,0.206512451171875
1761315656487797800,0.9377978515625,-1.52935791015625,-0.7854461669921875,0.1085662841796875
1761315656497844700,0.9478447265625,-1.569000244140625,-0.8154754638671875,0.0609588623046875
1761315656507892700,0.957892822265625,-1.5384368896484375,-0.734466552734375,0.05279541015625
1761315656517939500,0.967939453125,-1.4387054443359375,-0.5637054443359375,0.07220458984375
1761315656527986400,0.977986328125,-1.403076171875,-0.527923583984375,0.1226959228515625
1761315656538034700,0.98803466796875,-1.3096466064453125,-0.59539794921875,0.127197265625
1761315656548081700,0.99808154296875,-1.0832061767578125,-0.7218017578125,0.1211700439453125
1761315656558128600,1.008128662109375,-0.9983978271484375,-0.8201446533203125,0.09173583984375
1761315656568176600,1.0181767578125,-1.175506591796875,-0.8677520751953125,0.11517333984375
1761315656578223600,1.0282236328125,-1.2794342041015625,-0.818603515625,0.17205810546875
1761315656588270600,1.0382705078125,-1.12530517578125,-0.707977294921875,0.1373748779296875
1761315656598318600,1.048318603515625,-1.0432281494140625,-0.6374359130859375,0.0977935791015625
1761315656608365600,1.058365478515625,-1.088165283203125,-0.5911102294921875,0.053924560546875
1761315656618412800,1.068412841796875,-1.09698486328125,-0.5504913330078125,0.0187225341796875
1761315656628460500,1.07846044921875,-0.988494873046875,-0.4587249755859375,0.049530029296875
1761315656638507500,1.088507568359375,-0.91876220703125,-0.370513916015625,0.0168609619140625
1761315656648554500,1.098554443359375,-0.686279296875,-0.2747039794921875,0.0354461669921875
1761315656658602800,1.108602783203125,-0.62939453125,-0.202667236328125,-0.007110595703125
1761315656668649700,1.118649658203125,-0.57989501953125,-0.1689300537109375,-0.1287841796875
1761315656678696700,1.12869677734375,-0.429962158203125,-0.1343994140625,-0.152618408203125
1761315656688743700,1.13874365234375,-0.285614013671875,-0.12457275390625,-0.154144287109375
1761315656698791700,1.148791748046875,-0.1713714599609375,-0.1188507080078125,-0.1603240966796875
1761315656708838700,1.158838623046875,-0.081512451171875,-0.096923828125,-0.1559295654296875
1761315656718885600,1.1688857421875,-0.0151519775390625,-0.048370361328125,-0.1359405517578125
1761315656728934000,1.178933837890625,0.0084686279296875,-0.00225830078125,-0.11614990234375
1761315656738980900,1.18898095703125,0.0424346923828125,0.0607757568359375,-0.08837890625
1761315656749027800,1.19902783203125,0.0993194580078125,0.109527587890625,-0.02349853515625
1761315656759075800,1.209075927734375,0.0884552001953125,0.0977630615234375,0.03399658203125
1761315656769122800,1.219122802734375,0.1417999267578125,0.094268798828125,0.0969085693359375
1761315656779169800,1.229169677734375,0.1914520263671875,0.11529541015625,0.1291961669921875
1761315656789218000,1.239218017578125,0.234771728515625,0.1394805908203125,0.155120849609375
1761315656799265000,1.24926513671875,0.251953125,0.1214447021484375,0.1621551513671875
1761315656809311700,1.259311767578125,0.2942352294921875,0.0947723388671875,0.147735595703125
1761315656819359700,1.26935986328125,0.366729736328125,0.1146697998046875,0.140380859375
1761315656829407000,1.279406982421875,0.3813934326171875,0.124176025390625,0.1226959228515625
1761315656839454000,1.289453857421875,0.3618011474609375,0.0898590087890625,0.1492919921875
1761315656849502000,1.299501953125,0.2878570556640625,0.0691680908203125,0.1887664794921875
1761315656859549000,1.309548828125,0.1955413818359375,0.0717620849609375,0.1980133056640625
1761315656869596000,1.319595947265625,0.0503692626953125,0.0594482421875,0.1936187744140625
1761315656879643000,1.329642822265625,-0.193267822265625,-0.0239105224609375,0.2021331787109375
1761315656889691000,1.33969091796875,-0.4861602783203125,-0.1916961669921875,0.2119293212890625
1761315656899737900,1.34973779296875,-0.7965087890625,-0.3401031494140625,0.16021728515625
1761315656909784800,1.359784912109375,-1.1673126220703125,-0.4068756103515625,0.012451171875
1761315656919832800,1.369832763671875,-1.6107330322265625,-0.395477294921875,-0.2191925048828125
1761315656929879800,1.3798798828125,-2.0674285888671875,-0.3538970947265625,-0.4518585205078125
1761315656939926800,1.3899267578125,-2.575714111328125,-0.3084716796875,-0.6153564453125
1761315656949974800,1.399974853515625,-3.093048095703125,-0.3382720947265625,-0.705474853515625
1761315656960022000,1.41002197265625,-3.574127197265625,-0.348876953125,-0.779296875
1761315656970069000,1.420069091796875,-3.8288726806640625,-0.27764892578125,-0.90496826171875
1761315656980116700,1.43011669921875,-3.8644256591796875,-0.195892333984375,-1.026397705078125
1761315656990163700,1.440163818359375,-3.788848876953125,-0.12738037109375,-1.08624267578125
1761315657000211000,1.4502109375,-3.636932373046875,-0.0829315185546875,-1.0556182861328125
1761315657010259000,1.460259033203125,-3.4057464599609375,-0.0882110595703125,-0.9704132080078125
1761315657020306000,1.470305908203125,-3.0952606201171875,-0.0902862548828125,-0.8659515380859375
1761315657030353000,1.480352783203125,-2.7672271728515625,-0.1107025146484375,-0.760162353515625
1761315657040401000,1.49040087890625,-2.4115142822265625,-0.123870849609375,-0.680145263671875
1761315657050448000,1.50044775390625,-2.0674591064453125,-0.1220703125,-0.6136474609375
1761315657060494800,1.510494873046875,-1.7642059326171875,-0.1154327392578125,-0.538116455078125
1761315657070541800,1.520541748046875,-1.496673583984375,-0.1178741455078125,-0.4695587158203125
1761315657080589800,1.53058984375,-1.24993896484375,-0.117919921875,-0.3989715576171875
1761315657090637000,1.540636962890625,-1.0462799072265625,-0.112762451171875,-0.3358154296875
1761315657100684000,1.55068408203125,-0.8781280517578125,-0.1080169677734375,-0.2823333740234375
1761315657110731800,1.560731689453125,-0.7317352294921875,-0.10369873046875,-0.2378692626953125
1761315657120778800,1.57077880859375,-0.6149749755859375,-0.11297607421875,-0.1871337890625
1761315657130826000,1.580825927734375,-0.5049896240234375,-0.146820068359375,-0.1500701904296875
1761315657140874000,1.5908740234375,-0.415313720703125,-0.1654815673828125,-0.122222900390625
1761315657150921000,1.6009208984375,-0.3832855224609375,-0.1307373046875,-0.096160888671875
1761315657160968000,1.610968017578125,-0.3387451171875,-0.054046630859375,-0.0908966064453125
1761315657171016000,1.621015869140625,-0.224456787109375,0.0231781005859375,-0.076385498046875
1761315657181063000,1.63106298828125,-0.0420074462890625,0.0517730712890625,-0.0677642822265625
1761315657191110000,1.64110986328125,0.059722900390625,0.079193115234375,-0.059234619140625
1761315657201158000,1.651157958984375,0.1668853759765625,0.097076416015625,0.0095367431640625
1761315657211205000,1.661205078125,0.2624969482421875,0.10211181640625,0.0795440673828125
1761315657221251800,1.671251953125,0.3349456787109375,0.099334716796875,0.1477813720703125
1761315657231299800,1.6812998046875,0.385772705078125,0.08978271484375,0.20294189453125
1761315657241346800,1.691346923828125,0.413665771484375,0.0775604248046875,0.2425994873046875
1761315657251393800,1.701393798828125,0.4459075927734375,0.0814666748046875,0.26654052734375
1761315657261441000,1.71144091796875,0.4655303955078125,0.0937652587890625,0.2784423828125
1761315657271489000,1.721489013671875,0.48394775390625,0.09503173828125,0.2989044189453125
1761315657281535700,1.73153564453125,0.4967193603515625,0.0970916748046875,0.31011962890625
1761315657291582700,1.741582763671875,0.5025177001953125,0.1010894775390625,0.313262939453125
1761315657301631000,1.751630859375,0.47515869140625,0.10748291015625,0.309051513671875
1761315657311678000,1.761677978515625,0.422698974609375,0.1121368408203125,0.3047943115234375
1761315657321725000,1.771724853515625,0.36334228515625,0.1038665771484375,0.3042144775390625
1761315657331773000,1.78177294921875,0.302215576171875,0.08685302734375,0.3050537109375
1761315657341820000,1.79181982421875,0.24591064453125,0.08428955078125,0.2989959716796875
1761315657351867000,1.801866943359375,0.19842529296875,0.08526611328125,0.2846527099609375
1761315657361915000,1.811914794921875,0.150634765625,0.088165283203125,0.264434814453125
1761315657371961900,1.8219619140625,0.1180572509765625,0.0848846435546875,0.238494873046875
1761315657382008800,1.8320087890625,0.0951080322265625,0.0870208740234375,0.2247772216796875
1761315657392056800,1.842056884765625,0.0651092529296875,0.0779876708984375,0.208709716796875
1761315657402103800,1.852103759765625,0.0446624755859375,0.049346923828125,0.1682586669921875
1761315657412150800,1.86215087890625,0.0067138671875,0.0136871337890625,0.100677490234375
1761315657422198800,1.87219873046875,-0.0607147216796875,-0.048919677734375,0.0264434814453125
1761315657432246000,1.88224609375,-0.1744537353515625,-0.146697998046875,-0.0507049560546875
1761315657442293000,1.89229296875,-0.3861236572265625,-0.2362060546875,-0.1559906005859375
1761315657452340700,1.9023408203125,-0.7032012939453125,-0.2735443115234375,-0.302337646484375
1761315657462387700,1.9123876953125,-1.0908660888671875,-0.3271026611328125,-0.4944000244140625
1761315657472435000,1.92243505859375,-1.6003570556640625,-0.3818206787109375,-0.6919708251953125
1761315657482483000,1.93248291015625,-2.1708984375,-0.4150848388671875,-0.922760009765625
1761315657492530000,1.942530029296875,-2.66949462890625,-0.4447784423828125,-1.11126708984375
1761315657502577000,1.952576904296875,-3.1778717041015625,-0.5228271484375,-1.2263031005859375
1761315657512623900,1.962623779296875,-3.5404052734375,-0.6015472412109375,-1.293792724609375
1761315657522671900,1.972671875,-3.7455291748046875,-0.6436920166015625,-1.2999725341796875
1761315657532718800,1.98271875,-3.8731536865234375,-0.6766510009765625,-1.2371826171875
1761315657542765800,1.992765869140625,-3.887054443359375,-0.6670379638671875,-1.14959716796875
1761315657552813800,2.002813720703125,-3.8112030029296875,-0.6517333984375,-1.0234222412109375
1761315657562861000,2.012861083984375,-3.6111907958984375,-0.627838134765625,-0.8849639892578125
1761315657572908000,2.022907958984375,-3.3040924072265625,-0.58880615234375,-0.7533721923828125
1761315657582955800,2.032955810546875,-2.9420013427734375,-0.5450592041015625,-0.639495849609375
1761315657593002800,2.043002685546875,-2.5561065673828125,-0.505584716796875,-0.5372467041015625
1761315657603050000,2.053050048828125,-2.1908111572265625,-0.4781951904296875,-0.438262939453125
1761315657613098000,2.063097900390625,-1.878021240234375,-0.44244384765625,-0.3525848388671875
1761315657623145000,2.07314501953125,-1.62969970703125,-0.410430908203125,-0.2754974365234375
1761315657633192000,2.08319189453125,-1.4210052490234375,-0.3740692138671875,-0.2291259765625
1761315657643240000,2.093239990234375,-1.2297210693359375,-0.324676513671875,-0.2154083251953125
1761315657653287000,2.103286865234375,-1.04315185546875,-0.2639312744140625,-0.214263916015625
1761315657663334000,2.113333984375,-0.8663787841796875,-0.213134765625,-0.196319580078125
1761315657673382000,2.1233818359375,-0.7127532958984375,-0.1793670654296875,-0.171234130859375
1761315657683429000,2.13342919921875,-0.5642242431640625,-0.141357421875,-0.1349334716796875
1761315657693475800,2.143475830078125,-0.432861328125,-0.1111602783203125,-0.0864410400390625
1761315657703523800,2.15352392578125,-0.321563720703125,-0.0891265869140625,-0.049652099609375
1761315657713570800,2.16357080078125,-0.2053680419921875,-0.0669708251953125,-0.021820068359375
1761315657723617000,2.173616943359375,-0.106781005859375,-0.04376220703125,0.012481689453125
1761315657733664000,2.1836640625,-0.028228759765625,-0.03582763671875,0.0473175048828125
1761315657743712300,2.193712158203125,0.05517578125,-0.031463623046875,0.0863037109375
1761315657753759200,2.20375927734375,0.1338043212890625,-0.03009033203125,0.123992919921875
1761315657763806200,2.21380615234375,0.204376220703125,-0.02734375,0.1500244140625
1761315657773854200,2.223854248046875,0.2618408203125,-0.01483154296875,0.1624755859375
1761315657783901200,2.233901123046875,0.3141937255859375,0.007354736328125,0.1666107177734375
1761315657793948200,2.2439482421875,0.350738525390625,0.0263519287109375,0.16357421875
1761315657803996200,2.25399609375,0.371826171875,0.0359344482421875,0.1550140380859375
1761315657814043100,2.264043212890625,0.386505126953125,0.0440673828125,0.140289306640625
1761315657824090400,2.27409033203125,0.3910064697265625,0.0673980712890625,0.1353912353515625
1761315657834138000,2.28413818359375,0.3883514404296875,0.0833740234375,0.1362762451171875
1761315657844185000,2.29418505859375,0.397552490234375,0.081573486328125,0.143585205078125
1761315657854232000,2.304232177734375,0.3928375244140625,0.0800628662109375,0.1517486572265625
1761315657864280300,2.3142802734375,0.3748931884765625,0.0724029541015625,0.1670379638671875
1761315657874327300,2.324327392578125,0.36895751953125,0.0502777099609375,0.1933135986328125
1761315657884374000,2.3343740234375,0.35296630859375,0.03485107421875,0.2115325927734375
1761315657894422000,2.344422119140625,0.33740234375,0.018341064453125,0.2246856689453125
1761315657904469200,2.35446923828125,0.3210906982421875,-0.011688232421875,0.2289886474609375
1761315657914516200,2.36451611328125,0.3029937744140625,-0.040191650390625,0.2209930419921875
1761315657924564200,2.374564208984375,0.2850494384765625,-0.0537872314453125,0.203369140625
1761315657934611200,2.384611083984375,0.2501068115234375,-0.052642822265625,0.1448822021484375
1761315657944658000,2.394657958984375,0.219879150390625,-0.064300537109375,0.065399169921875
1761315657954706200,2.4047060546875,0.217315673828125,-0.09075927734375,0.011505126953125
1761315657964753200,2.414753173828125,0.14447021484375,-0.1252899169921875,-0.001708984375
1761315657974800100,2.424800048828125,-0.0096282958984375,-0.1592864990234375,-0.001434326171875
1761315657984847000,2.43484716796875,-0.197113037109375,-0.1734466552734375,0.0003509521484375
1761315657994895000,2.44489501953125,-0.482666015625,-0.2087554931640625,0.01690673828125
1761315658004942000,2.454942138671875,-0.8085784912109375,-0.2584228515625,0.0218963623046875
1761315658014989000,2.464989013671875,-1.1134490966796875,-0.283050537109375,-0.0738677978515625
1761315658025037000,2.475037109375,-1.4574737548828125,-0.2637481689453125,-0.2681884765625
1761315658035084300,2.485084228515625,-1.8567352294921875,-0.2501373291015625,-0.507598876953125
1761315658045131300,2.49513134765625,-2.3241424560546875,-0.235015869140625,-0.7507476806640625
1761315658055179000,2.505178955078125,-2.8080902099609375,-0.233489990234375,-0.914459228515625
1761315658065226000,2.51522607421875,-3.243621826171875,-0.283294677734375,-0.9840240478515625
1761315658075273000,2.52527294921875,-3.62860107421875,-0.334991455078125,-0.9798736572265625
1761315658085321200,2.5353212890625,-3.891021728515625,-0.3795013427734375,-0.918243408203125
1761315658095368200,2.5453681640625,-4.012237548828125,-0.4609832763671875,-0.8203125
1761315658105415200,2.555415283203125,-3.964935302734375,-0.543914794921875,-0.7386322021484375
1761315658115463000,2.565462890625,-3.747406005859375,-0.6128082275390625,-0.6675262451171875
1761315658125510100,2.57551025390625,-3.4169158935546875,-0.6804046630859375,-0.634613037109375
1761315658135557000,2.58555712890625,-3.0071258544921875,-0.7121734619140625,-0.62841796875
1761315658145605000,2.595605224609375,-2.5779571533203125,-0.7235260009765625,-0.61578369140625
1761315658155652000,2.605652099609375,-2.185546875,-0.7175750732421875,-0.5717620849609375
1761315658165699300,2.61569921875,-1.8831634521484375,-0.67816162109375,-0.5044708251953125
1761315658175747000,2.6257470703125,-1.6898040771484375,-0.6063995361328125,-0.42626953125
1761315658185794000,2.6357939453125,-1.568511962890625,-0.5328216552734375,-0.349853515625
1761315658195841000,2.645841064453125,-1.4739990234375,-0.457427978515625,-0.2974853515625
1761315658205888000,2.655887939453125,-1.375732421875,-0.364288330078125,-0.2650299072265625
1761315658215936300,2.665936279296875,-1.24700927734375,-0.281982421875,-0.2408599853515625
1761315658225983200,2.675983154296875,-1.0835113525390625,-0.2158966064453125,-0.2158660888671875
1761315658236030200,2.6860302734375,-0.8729248046875,-0.1750640869140625,-0.200469970703125
1761315658246078200,2.696078125,-0.6357421875,-0.1584930419921875,-0.20501708984375
1761315658256125200,2.706125244140625,-0.425323486328125,-0.13818359375,-0.204559326171875
1761315658266172200,2.716172119140625,-0.236968994140625,-0.117828369140625,-0.18218994140625
1761315658276220200,2.72622021484375,-0.0850677490234375,-0.0914764404296875,-0.142822265625
1761315658286267100,2.73626708984375,0.0306854248046875,-0.055633544921875,-0.0920562744140625
1761315658296314000,2.746314208984375,0.1194000244140625,-0.0237274169921875,-0.0391693115234375
1761315658306362000,2.756362060546875,0.1898956298828125,-0.00152587890625,0.009552001953125
1761315658316409000,2.7664091796875,0.2451324462890625,0.006744384765625,0.0472259521484375
1761315658326456000,2.7764560546875,0.29217529296875,0.008148193359375,0.0623321533203125
1761315658336504300,2.78650439453125,0.335601806640625,0.0175933837890625,0.067474365234375
1761315658346551300,2.79655126953125,0.3881072998046875,0.028167724609375,0.072723388671875
1761315658356598000,2.806597900390625,0.42828369140625,0.0318145751953125,0.0797271728515625
1761315658366646000,2.81664599609375,0.4446258544921875,0.034820556640625,0.092315673828125
1761315658376693200,2.826693359375,0.4547119140625,0.037506103515625,0.1102142333984375
1761315658386740200,2.836740234375,0.448211669921875,0.0382537841796875,0.135986328125
1761315658396788200,2.846788330078125,0.4321441650390625,0.030487060546875,0.172332763671875
1761315658406835200,2.856835205078125,0.4010162353515625,0.015655517578125,0.21514892578125
1761315658416882000,2.8668818359375,0.3615264892578125,-0.0054931640625,0.2515869140625
1761315658426930200,2.87693017578125,0.32989501953125,-0.0310516357421875,0.273956298828125
1761315658436977200,2.88697705078125,0.32025146484375,-0.0569915771484375,0.2862548828125
1761315658447024000,2.897024169921875,0.3300628662109375,-0.0799713134765625,0.2852935791015625
1761315658457071000,2.907071044921875,0.343048095703125,-0.1054534912109375,0.2828826904296875
1761315658467119000,2.917119140625,0.3521575927734375,-0.1264495849609375,0.27850341796875
1761315658477166000,2.927166015625,0.348846435546875,-0.1328582763671875,0.2629547119140625
1761315658487213000,2.937213134765625,0.327392578125,-0.1302032470703125,0.246734619140625
1761315658497261000,2.947260986328125,0.2900238037109375,-0.1407012939453125,0.2442626953125
1761315658507308300,2.957308349609375,0.26171875,-0.158843994140625,0.2438201904296875
1761315658517355300,2.967355224609375,0.2327880859375,-0.1656646728515625,0.2481231689453125
1761315658527403000,2.977403076171875,0.199462890625,-0.1699981689453125,0.244354248046875
1761315658537450000,2.987449951171875,0.1468658447265625,-0.149993896484375,0.2058258056640625
1761315658547497000,2.9974970703125,0.0526123046875,-0.085601806640625,0.153656005859375
1761315658557545200,3.007545166015625,-0.142547607421875,-0.022674560546875,0.0994720458984375
1761315658567592200,3.01759228515625,-0.40753173828125,0.014923095703125,0.0167694091796875
1761315658577639200,3.02763916015625,-0.7243194580078125,0.0491790771484375,-0.101165771484375
1761315658587687200,3.037687255859375,-1.1361236572265625,0.0486602783203125,-0.219451904296875
1761315658597734100,3.047734130859375,-1.609619140625,0.0310211181640625,-0.40252685546875
1761315658607781000,3.057781005859375,-2.0513763427734375,0.0175018310546875,-0.6478118896484375
1761315658617829000,3.0678291015625,-2.41192626953125,-0.0517425537109375,-0.8878631591796875
1761315658627876000,3.0778759765625,-2.7080078125,-0.19305419921875,-1.0746917724609375
1761315658637923300,3.08792333984375,-2.9317474365234375,-0.3636474609375,-1.1979217529296875
1761315658647971000,3.09797119140625,-3.1090087890625,-0.4891510009765625,-1.3011322021484375
1761315658658018000,3.10801806640625,-3.3387451171875,-0.5395660400390625,-1.4011688232421875
1761315658668065000,3.11806494140625,-3.5583648681640625,-0.575225830078125,-1.4435882568359375
1761315658678113300,3.12811328125,-3.6515350341796875,-0.6060943603515625,-1.424224853515625
1761315658688160300,3.13816015625,-3.5847320556640625,-0.629669189453125,-1.3422698974609375
1761315658698207200,3.148207275390625,-3.39520263671875,-0.6645660400390625,-1.202850341796875
1761315658708254200,3.158254150390625,-3.1260223388671875,-0.6804046630859375,-1.0493316650390625
1761315658718302200,3.16830224609375,-2.8283843994140625,-0.650115966796875,-0.905059814453125
1761315658728349200,3.17834912109375,-2.52752685546875,-0.6042938232421875,-0.77545166015625
1761315658738396200,3.188396240234375,-2.245880126953125,-0.53216552734375,-0.66583251953125
1761315658748444200,3.198444091796875,-2.007110595703125,-0.4425201416015625,-0.57257080078125
1761315658758491100,3.2084912109375,-1.797821044921875,-0.355224609375,-0.4911346435546875
1761315658768538000,3.2185380859375,-1.6236724853515625,-0.28424072265625,-0.4176177978515625
1761315658778586000,3.228586181640625,-1.4577789306640625,-0.2186431884765625,-0.3492431640625
1761315658788633000,3.238633056640625,-1.2794952392578125,-0.1558990478515625,-0.290008544921875
1761315658798680000,3.24868017578125,-1.0859527587890625,-0.1086273193359375,-0.238311767578125
1761315658808728300,3.258728271484375,-0.8814849853515625,-0.0735015869140625,-0.1906280517578125
1761315658818775300,3.268775390625,-0.677947998046875,-0.0548553466796875,-0.1553497314453125
1761315658828822000,3.278822021484375,-0.4960174560546875,-0.0429840087890625,-0.1212921142578125
1761315658838870000,3.2888701171875,-0.329681396484375,-0.0318603515625,-0.094207763671875
1761315658848917200,3.298917236328125,-0.1695556640625,-0.0243072509765625,-0.0655059814453125
1761315658858964200,3.308964111328125,-0.0315093994140625,-0.0233917236328125,-0.0347442626953125
1761315658869011200,3.31901123046875,0.0780029296875,-0.0272064208984375,-0.0045623779296875
1761315658879059200,3.32905908203125,0.1636810302734375,-0.02581787109375,0.0325469970703125
1761315658889106000,3.33910595703125,0.2318572998046875,-0.0301513671875,0.0730133056640625
1761315658899153200,3.349153076171875,0.28558349609375,-0.029541015625,0.1084442138671875
1761315658909201200,3.359201171875,0.325286865234375,-0.014251708984375,0.1348876953125
1761315658919248100,3.369248046875,0.3592376708984375,0.0006103515625,0.1546173095703125
1761315658929295000,3.379295166015625,0.371795654296875,0.0120391845703125,0.1682586669921875
1761315658939343000,3.389343017578125,0.3613433837890625,0.027801513671875,0.1647186279296875
1761315658949390000,3.39939013671875,0.392181396484375,0.0511016845703125,0.167633056640625
1761315658959437000,3.40943701171875,0.4162750244140625,0.0657196044921875,0.1900634765625
1761315658969485000,3.419485107421875,0.40277099609375,0.063079833984375,0.17974853515625
1761315658979532300,3.4295322265625,0.4145355224609375,0.066925048828125,0.1738128662109375
1761315658989579300,3.439579345703125,0.4131011962890625,0.094635009765625,0.142333984375
1761315658999627000,3.449626953125,0.392608642578125,0.1165008544921875,0.1201934814453125
1761315659009674000,3.459674072265625,0.32916259765625,0.1136322021484375,0.10272216796875
1761315659019721000,3.469720947265625,0.268096923828125,0.1011810302734375,0.082916259765625
1761315659029769200,3.479769287109375,0.209381103515625,0.08349609375,0.0700225830078125
1761315659039816200,3.489816162109375,0.154876708984375,0.064788818359375,0.060455322265625
1761315659049863200,3.49986328125,0.1027679443359375,0.061370849609375,0.037994384765625
1761315659059911200,3.5099111328125,0.0283966064453125,0.0594329833984375,0.019561767578125
1761315659069958100,3.519958251953125,-0.0014190673828125,0.0874786376953125,0.0012054443359375
1761315659080005000,3.530005126953125,-0.0935516357421875,0.13909912109375,-0.014801025390625
1761315659090052000,3.540052001953125,-0.19000244140625,0.15643310546875,-0.0341339111328125
1761315659100100000,3.55010009765625,-0.260467529296875,0.1324005126953125,-0.051361083984375
1761315659110147300,3.560147216796875,-0.3676300048828125,0.106201171875,-0.055633544921875
1761315659120194300,3.5701943359375,-0.5092315673828125,0.076812744140625,-0.0547332763671875
1761315659130242000,3.580241943359375,-0.679046630859375,0.0124053955078125,-0.0186614990234375
1761315659140289000,3.5902890625,-0.9073944091796875,-0.0929718017578125,0.056610107421875
1761315659150336000,3.6003359375,-1.250213623046875,-0.21490478515625,0.0773162841796875
1761315659160384300,3.61038427734375,-1.6266021728515625,-0.2850341796875,-0.0597381591796875
1761315659170431200,3.62043115234375,-2.0252685546875,-0.2591552734375,-0.3801727294921875
1761315659180478200,3.630478271484375,-2.45672607421875,-0.19146728515625,-0.8082427978515625
1761315659190526200,3.640526123046875,-2.798187255859375,-0.1572723388671875,-1.212158203125
1761315659200573200,3.6505732421875,-3.21795654296875,-0.1531982421875,-1.45294189453125
1761315659210620200,3.6606201171875,-3.6374969482421875,-0.18206787109375,-1.50738525390625
1761315659220668200,3.670668212890625,-3.9003143310546875,-0.0999755859375,-1.4987030029296875
1761315659230715100,3.680715087890625,-4.00604248046875,-0.2974395751953125,-1.3671875
1761315659240762000,3.69076220703125,-3.8511505126953125,-0.378997802734375,-1.30047607421875
1761315659250810000,3.70081005859375,-3.5456085205078125,-0.390716552734375,-1.266693115234375
1761315659260857000,3.710857177734375,-3.190032958984375,-0.4255523681640625,-1.1994476318359375
1761315659270904000,3.720904052734375,-2.8273773193359375,-0.405548095703125,-1.1076202392578125
1761315659280951000,3.730950927734375,-2.492523193359375,-0.37786865234375,-0.9750823974609375
1761315659290999300,3.740999267578125,-2.1813507080078125,-0.3394317626953125,-0.82391357421875
1761315659301046000,3.7510458984375,-1.9091949462890625,-0.2868804931640625,-0.687164306640625
1761315659311093000,3.761093017578125,-1.6837158203125,-0.2197418212890625,-0.5712127685546875
1761315659321141200,3.771141357421875,-1.5086212158203125,-0.159423828125,-0.4617767333984375
1761315659331188200,3.781188232421875,-1.3643798828125,-0.1025848388671875,-0.3653564453125
1761315659341235200,3.791235107421875,-1.219207763671875,-0.04443359375,-0.291717529296875
1761315659351283200,3.801283203125,-1.0220184326171875,-0.001922607421875,-0.2711944580078125
1761315659361330000,3.811329833984375,-0.7796630859375,0.015228271484375,-0.290496826171875
1761315659371377200,3.821377197265625,-0.542694091796875,0.0186614990234375,-0.2882843017578125
1761315659381425200,3.831425048828125,-0.2988128662109375,0.0225830078125,-0.2705841064453125
1761315659391472000,3.84147216796875,-0.118682861328125,0.0204010009765625,-0.22576904296875
1761315659401519000,3.85151904296875,0.010101318359375,0.0133514404296875,-0.1534423828125
1761315659411567000,3.861567138671875,0.0959320068359375,0.0239715576171875,-0.0944671630859375
1761315659421614000,3.871614013671875,0.1611480712890625,0.046478271484375,-0.0426025390625
1761315659431661000,3.8816611328125,0.194244384765625,0.0571136474609375,0.019989013671875
1761315659441709000,3.891708984375,0.2118988037109375,0.06011962890625,0.0684967041015625
1761315659451756300,3.90175634765625,0.2357635498046875,0.0764617919921875,0.095062255859375
1761315659461803300,3.91180322265625,0.2581634521484375,0.0983428955078125,0.1106719970703125
1761315659471850200,3.921850341796875,0.2701568603515625,0.1129913330078125,0.1250152587890625
1761315659481898000,3.93189794921875,0.2807769775390625,0.1168975830078125,0.1319122314453125
1761315659491945000,3.941945068359375,0.297454833984375,0.1205902099609375,0.127410888671875
1761315659501992200,3.9519921875,0.3126068115234375,0.12371826171875,0.122039794921875
1761315659512040200,3.962040283203125,0.321044921875,0.1121826171875,0.1340484619140625
1761315659522087200,3.972087158203125,0.30291748046875,0.0822601318359375,0.149871826171875
1761315659532134100,3.982134033203125,0.297210693359375,0.0599365234375,0.1583251953125
1761315659542182100,3.99218212890625,0.2883453369140625,0.048736572265625,0.1588134765625
1761315659552229000,4.00222900390625,0.266204833984375,0.040802001953125,0.152618408203125
1761315659562276000,4.012276123046875,0.2520294189453125,0.03558349609375,0.136810302734375
1761315659572324000,4.022323974609375,0.2304840087890625,0.03472900390625,0.1139068603515625
1761315659582371300,4.032371337890625,0.205657958984375,0.0308074951171875,0.09661865234375
1761315659592418300,4.042418212890625,0.166412353515625,0.0250396728515625,0.088165283203125
1761315659602466000,4.052466064453125,0.1114959716796875,0.01611328125,0.087432861328125
1761315659612513000,4.062512939453125,0.05224609375,0.0146331787109375,0.0796356201171875
1761315659622560000,4.07256005859375,0.0000152587890625,0.01837158203125,0.0576171875
1761315659632608300,4.082608154296875,-0.054931640625,0.032440185546875,0.0149688720703125
1761315659642655200,4.0926552734375,-0.1052703857421875,0.0678863525390625,-0.04949951171875
1761315659652702200,4.1027021484375,-0.1707305908203125,0.1093902587890625,-0.087371826171875
1761315659662749000,4.1127490234375,-0.2795867919921875,0.138702392578125,-0.094451904296875
1761315659672797200,4.122797119140625,-0.4490509033203125,0.16748046875,-0.0947113037109375
1761315659682844200,4.13284423828125,-0.6773529052734375,0.1864013671875,-0.1398162841796875
1761315659692891100,4.14289111328125,-0.9416351318359375,0.198089599609375,-0.2400054931640625
1761315659702939100,4.152939208984375,-1.31591796875,0.2564849853515625,-0.3403778076171875
1761315659712986000,4.162986083984375,-1.81561279296875,0.3365325927734375,-0.40301513671875
1761315659723033000,4.173033203125,-2.3806610107421875,0.3811187744140625,-0.4140167236328125
1761315659733078300,4.183078369140625,-2.98956298828125,0.3130035400390625,-0.3533172607421875
1761315659743125200,4.193125244140625,-3.50970458984375,0.169921875,-0.3123779296875
1761315659753172200,4.203172119140625,-3.827789306640625,0.0377655029296875,-0.337066650390625
1761315659763220000,4.213219970703125,-3.9235382080078125,-0.1123504638671875,-0.41412353515625
1761315659773267200,4.22326708984375,-3.8597564697265625,-0.2555084228515625,-0.531158447265625
1761315659783314200,4.233314208984375,-3.6850128173828125,-0.345306396484375,-0.681304931640625
1761315659793362200,4.243362060546875,-3.464935302734375,-0.392425537109375,-0.821868896484375
1761315659803409200,4.2534091796875,-3.232421875,-0.4154510498046875,-0.881072998046875
1761315659813456400,4.263456298828125,-3.0526580810546875,-0.4188385009765625,-0.856842041015625
1761315659823503400,4.27350341796875,-2.8734283447265625,-0.360809326171875,-0.7734527587890625
1761315659833551000,4.283551025390625,-2.6740875244140625,-0.2698822021484375,-0.66741943359375
1761315659843598000,4.29359814453125,-2.470733642578125,-0.1714630126953125,-0.56689453125
1761315659853645000,4.30364501953125,-2.218505859375,-0.0847015380859375,-0.4997711181640625
1761315659863693300,4.313693359375,-1.9609832763671875,-0.001861572265625,-0.45416259765625
1761315659873740300,4.323740234375,-1.72869873046875,0.0555572509765625,-0.3989105224609375
1761315659883787300,4.333787353515625,-1.49749755859375,0.0947418212890625,-0.3468780517578125
1761315659893835000,4.3438349609375,-1.287628173828125,0.1282958984375,-0.2902374267578125
1761315659903882200,4.35388232421875,-1.1009368896484375,0.144805908203125,-0.2396087646484375
1761315659913929200,4.36392919921875,-0.9310302734375,0.1458740234375,-0.1873931884765625
1761315659923977200,4.373977294921875,-0.791046142578125,0.13818359375,-0.1399383544921875
1761315659934024200,4.384024169921875,-0.6602783203125,0.1365814208984375,-0.0995330810546875
1761315659944071200,4.3940712890625,-0.53466796875,0.13189697265625,-0.0533447265625
1761315659954119200,4.404119140625,-0.3985137939453125,0.1223297119140625,-0.01446533203125
1761315659964166100,4.414166259765625,-0.2623748779296875,0.10809326171875,0.0117340087890625
1761315659974213000,4.424213134765625,-0.120452880859375,0.0875091552734375,0.02166748046875
1761315659984261400,4.434261474609375,0.00653076171875,0.0626068115234375,0.033843994140625
1761315659994308400,4.444308349609375,0.1043548583984375,0.0422210693359375,0.04888916015625
1761315660004355000,4.45435498046875,0.2009429931640625,0.0190277099609375,0.0674285888671875
1761315660014402000,4.464402099609375,0.2841339111328125,-0.0109710693359375,0.0836181640625
1761315660024450000,4.474449951171875,0.3311614990234375,-0.0492095947265625,0.109832763671875
1761315660034497300,4.484497314453125,0.3479156494140625,-0.0864715576171875,0.14447021484375
1761315660044544300,4.494544189453125,0.36932373046875,-0.110015869140625,0.153961181640625
1761315660054592300,4.50459228515625,0.3984832763671875,-0.09393310546875,0.158905029296875
1761315660064639000,4.514638916015625,0.40728759765625,-0.101898193359375,0.15283203125
1761315660074686200,4.524686279296875,0.4038238525390625,-0.113861083984375,0.1556243896484375
1761315660084734200,4.534734130859375,0.416656494140625,-0.1075592041015625,0.1624908447265625
1761315660094781200,4.54478125,0.4519805908203125,-0.0903472900390625,0.1536712646484375
1761315660104828200,4.554828125,0.4323883056640625,-0.0927276611328125,0.1338043212890625
1761315660114876200,4.564876220703125,0.4058990478515625,-0.102020263671875,0.119293212890625
1761315660124923100,4.574923095703125,0.39154052734375,-0.112884521484375,0.1116180419921875
1761315660134970000,4.58497021484375,0.3608856201171875,-0.116241455078125,0.10723876953125
1761315660145018000,4.59501806640625,0.3199920654296875,-0.114471435546875,0.1090087890625
1761315660155065000,4.605065185546875,0.3011627197265625,-0.1180877685546875,0.1149749755859375
1761315660165112300,4.6151123046875,0.269195556640625,-0.12054443359375,0.105865478515625
1761315660175159300,4.6251591796875,0.173736572265625,-0.1014556884765625,0.0863189697265625
1761315660185207000,4.63520703125,0.1067962646484375,-0.0624847412109375,0.0615692138671875
1761315660195254000,4.64525390625,0.0465545654296875,-0.0234222412109375,0.0081939697265625
1761315660205301200,4.65530126953125,-0.1117401123046875,-0.003997802734375,-0.0524444580078125
1761315660215349200,4.665349365234375,-0.24493408203125,-0.0374603271484375,-0.119171142578125
1761315660225396200,4.675396240234375,-0.4752197265625,-0.0402374267578125,-0.1131439208984375
1761315660235443200,4.685443115234375,-0.650360107421875,-0.041595458984375,-0.1205596923828125
1761315660245491200,4.6954912109375,-0.8267364501953125,-0.0560302734375,-0.138885498046875
1761315660255538200,4.7055380859375,-1.043212890625,-0.0968170166015625,-0.18701171875
1761315660265585200,4.715585205078125,-1.2449951171875,-0.167877197265625,-0.2628021240234375
1761315660275633200,4.725633056640625,-1.50830078125,-0.214141845703125,-0.3472442626953125
1761315660285680400,4.735680419921875,-1.809356689453125,-0.2569122314453125,-0.4448394775390625
1761315660295727400,4.745727294921875,-2.126495361328125,-0.302398681640625,-0.5391998291015625
1761315660305774300,4.7557744140625,-2.4498443603515625,-0.3577880859375,-0.5954742431640625
1761315660315822000,4.765822021484375,-2.7653045654296875,-0.43206787109375,-0.6334991455078125
1761315660325869000,4.775869140625,-3.0361175537109375,-0.4813690185546875,-0.683746337890625
1761315660335916300,4.785916259765625,-3.1654510498046875,-0.5020751953125,-0.7495880126953125
1761315660345964300,4.79596435546875,-3.2271881103515625,-0.500701904296875,-0.822509765625
1761315660356011300,4.80601123046875,-3.22479248046875,-0.4952850341796875,-0.87823486328125
1761315660366058000,4.81605810546875,-3.1399383544921875,-0.4686431884765625,-0.9158477783203125
1761315660376103200,4.826103271484375,-3.0030975341796875,-0.4177703857421875,-0.92498779296875
1761315660386150100,4.836150146484375,-2.800628662109375,-0.39764404296875,-0.88348388671875
1761315660396198400,4.846198486328125,-2.5503997802734375,-0.3714752197265625,-0.82421875
1761315660406245000,4.8562451171875,-2.2522430419921875,-0.3310699462890625,-0.7397613525390625
1761315660416292000,4.8662919921875,-1.9383087158203125,-0.2985992431640625,-0.6458587646484375
1761315660426339000,4.876339111328125,-1.6348876953125,-0.26324462890625,-0.5499725341796875
1761315660436387000,4.886386962890625,-1.374298095703125,-0.2266998291015625,-0.4580078125
1761315660446434300,4.896434326171875,-1.164306640625,-0.191864013671875,-0.36932373046875
1761315660456481300,4.906481201171875,-1.00341796875,-0.1591796875,-0.29376220703125
1761315660466529000,4.916529052734375,-0.8720550537109375,-0.131439208984375,-0.2251129150390625
1761315660476576000,4.926575927734375,-0.75164794921875,-0.1128997802734375,-0.1612701416015625
1761315660486623200,4.936623291015625,-0.6347808837890625,-0.0925445556640625,-0.1176605224609375
1761315660496671200,4.946671142578125,-0.510650634765625,-0.055816650390625,-0.08843994140625
1761315660506718200,4.95671826171875,-0.379486083984375,-0.0132293701171875,-0.064178466796875
1761315660516765200,4.96676513671875,-0.264892578125,-0.0002593994140625,-0.0251617431640625
1761315660526813200,4.976813232421875,-0.169189453125,-0.0088653564453125,0.0290069580078125
1761315660536860200,4.986860107421875,-0.093505859375,-0.0258331298828125,0.0919952392578125
1761315660546907100,4.9969072265625,-0.021881103515625,-0.052642822265625,0.142059326171875
1761315660556954000,5.0069541015625,0.0617523193359375,-0.058502197265625,0.1696929931640625
1761315660567002400,5.01700244140625,0.1480560302734375,-0.0598602294921875,0.1768341064453125
1761315660577049300,5.02704931640625,0.2190093994140625,-0.0648040771484375,0.1811065673828125
1761315660587096300,5.037096435546875,0.2682952880859375,-0.070068359375,0.182830810546875
1761315660597144000,5.04714404296875,0.3096771240234375,-0.0765228271484375,0.179412841796875
1761315660607191000,5.05719091796875,0.33380126953125,-0.0903167724609375,0.171783447265625
1761315660617238300,5.06723828125,0.341949462890625,-0.1062774658203125,0.1703643798828125
1761315660627286300,5.077286376953125,0.3449554443359375,-0.115875244140625,0.1713409423828125
1761315660637333200,5.087333251953125,0.325927734375,-0.1215057373046875,0.15966796875
1761315660647380200,5.097380126953125,0.3145751953125,-0.130523681640625,0.142852783203125
1761315660657428200,5.10742822265625,0.2995758056640625,-0.134674072265625,0.1284637451171875
1761315660667475200,5.11747509765625,0.26959228515625,-0.1333465576171875,0.115478515625
1761315660677522200,5.127522216796875,0.227447509765625,-0.1365509033203125,0.103240966796875
1761315660687570200,5.137570068359375,0.204803466796875,-0.141632080078125,0.08056640625
1761315660697617400,5.147617431640625,0.21697998046875,-0.1346282958984375,0.0554656982421875
1761315660707664100,5.1576640625,0.2197418212890625,-0.1244049072265625,0.023468017578125
1761315660717712100,5.167712158203125,0.2274932861328125,-0.1214141845703125,-0.0235595703125
1761315660727759000,5.177759033203125,0.211639404296875,-0.116424560546875,-0.0904693603515625
1761315660737806600,5.187806640625,0.1746063232421875,-0.1229705810546875,-0.162322998046875
1761315660747853600,5.197853515625,0.0676422119140625,-0.1102142333984375,-0.22906494140625
1761315660757901600,5.207901611328125,-0.1595458984375,-0.0731048583984375,-0.284759521484375
1761315660767948500,5.217948486328125,-0.4819183349609375,-0.0255279541015625,-0.3676910400390625
1761315660777995500,5.22799560546875,-0.8423309326171875,0.0570220947265625,-0.493377685546875
1761315660788043500,5.23804345703125,-1.227386474609375,0.15777587890625,-0.6038818359375
1761315660798090500,5.248090576171875,-1.67144775390625,0.2346954345703125,-0.7058868408203125
1761315660808137700,5.2581376953125,-2.193450927734375,0.3006744384765625,-0.808258056640625
1761315660818185500,5.268185546875,-2.6766357421875,0.3361053466796875,-0.895263671875
1761315660828232400,5.278232421875,-3.076141357421875,0.34722900390625,-0.9224395751953125
1761315660838279400,5.288279541015625,-3.336334228515625,0.3097076416015625,-0.884063720703125
1761315660848326400,5.298326416015625,-3.4613037109375,0.19873046875,-0.7460479736328125
1761315660858374700,5.308374755859375,-3.4588165283203125,0.137237548828125,-0.61248779296875
1761315660868421600,5.318421630859375,-3.31964111328125,0.0750274658203125,-0.5376434326171875
1761315660878468600,5.328468505859375,-3.0830078125,0.0085296630859375,-0.488525390625
1761315660888516600,5.3385166015625,-2.7736358642578125,-0.06146240234375,-0.46044921875
1761315660898563600,5.3485634765625,-2.433929443359375,-0.1538848876953125,-0.427978515625
1761315660908610600,5.358610595703125,-2.1045989990234375,-0.23095703125,-0.3984832763671875
1761315660918658600,5.368658447265625,-1.843902587890625,-0.2867431640625,-0.3607177734375
1761315660928705500,5.37870556640625,-1.6532135009765625,-0.31683349609375,-0.326141357421875
1761315660938752800,5.388752685546875,-1.5220184326171875,-0.3085479736328125,-0.3090057373046875
1761315660948800500,5.398800537109375,-1.4353485107421875,-0.30218505859375,-0.284423828125
1761315660958847500,5.408847412109375,-1.41412353515625,-0.290374755859375,-0.236328125
1761315660968894500,5.41889453125,-1.3616790771484375,-0.225921630859375,-0.2391815185546875
1761315660978942700,5.428942626953125,-1.2908172607421875,-0.1700439453125,-0.2212677001953125
1761315660988989700,5.43898974609375,-1.215057373046875,-0.1558990478515625,-0.2137908935546875
1761315660999036700,5.44903662109375,-1.07696533203125,-0.14129638671875,-0.2012176513671875
1761315661009086700,5.459086669921875,-0.8919525146484375,-0.1319122314453125,-0.1868896484375
1761315661019133400,5.469133544921875,-0.7073211669921875,-0.1230926513671875,-0.1625823974609375
1761315661029181400,5.479181396484375,-0.5316314697265625,-0.118560791015625,-0.124786376953125
1761315661039228400,5.489228515625,-0.3815460205078125,-0.1481170654296875,-0.07379150390625
1761315661049275600,5.499275634765625,-0.2401123046875,-0.1856536865234375,-0.0331573486328125
1761315661059323600,5.50932373046875,-0.1017608642578125,-0.198394775390625,-0.004974365234375
1761315661069370600,5.51937060546875,-0.0067596435546875,-0.2082366943359375,0.010589599609375
1761315661079417300,5.529417236328125,0.0605010986328125,-0.2218780517578125,0.006011962890625
1761315661089465600,5.539465576171875,0.114776611328125,-0.2230682373046875,-0.012298583984375
1761315661099512600,5.5495126953125,0.1517181396484375,-0.217010498046875,-0.021820068359375
1761315661109559600,5.5595595703125,0.1750640869140625,-0.2041168212890625,-0.003509521484375
1761315661119607600,5.569607666015625,0.191314697265625,-0.191009521484375,0.0292205810546875
1761315661129654500,5.579654541015625,0.1938629150390625,-0.1747589111328125,0.05474853515625
1761315661139701500,5.589701416015625,0.192474365234375,-0.152252197265625,0.08111572265625
1761315661149748500,5.59974853515625,0.190155029296875,-0.1329193115234375,0.1035919189453125
1761315661159796500,5.60979638671875,0.159698486328125,-0.11334228515625,0.1214447021484375
1761315661169843500,5.619843505859375,0.1136932373046875,-0.0970306396484375,0.1277618408203125
1761315661179890700,5.629890625,0.0908050537109375,-0.0858306884765625,0.121551513671875
1761315661189938400,5.6399384765625,0.0644683837890625,-0.065185546875,0.107421875
1761315661199985400,5.6499853515625,0.038330078125,-0.04266357421875,0.073455810546875
1761315661210032400,5.660032470703125,0.0283050537109375,-0.0164794921875,0.0237579345703125
1761315661220080600,5.67008056640625,-0.0177001953125,0.02386474609375,-0.028228759765625
1761315661230127600,5.680127685546875,-0.099700927734375,0.0658721923828125,-0.087127685546875
1761315661240174600,5.690174560546875,-0.2239227294921875,0.1087646484375,-0.1448974609375
1761315661250222300,5.700222412109375,-0.4264678955078125,0.160186767578125,-0.2097015380859375
1761315661260269600,5.71026953125,-0.648834228515625,0.2049407958984375,-0.29754638671875
1761315661270316500,5.720316650390625,-0.788665771484375,0.216705322265625,-0.34271240234375
1761315661280364500,5.730364501953125,-0.896514892578125,0.1832275390625,-0.335479736328125
1761315661290411500,5.74041162109375,-0.98236083984375,0.055267333984375,-0.3026885986328125
1761315661300458800,5.750458740234375,-1.0647735595703125,-0.095489501953125,-0.2570343017578125
1761315661310505700,5.760505615234375,-1.1417694091796875,-0.2020111083984375,-0.2429351806640625
1761315661320553500,5.770553466796875,-1.2386016845703125,-0.29010009765625,-0.264984130859375
1761315661330600400,5.780600341796875,-1.3778533935546875,-0.408599853515625,-0.316558837890625
1761315661340647400,5.7906474609375,-1.5368804931640625,-0.519500732421875,-0.4039154052734375
1761315661350695700,5.80069580078125,-1.741668701171875,-0.61041259765625,-0.5056304931640625
1761315661360742700,5.81074267578125,-1.9569244384765625,-0.7014923095703125,-0.57720947265625
1761315661370789600,5.82078955078125,-2.2148284912109375,-0.76806640625,-0.6207122802734375
1761315661380837400,5.83083740234375,-2.4893798828125,-0.8076324462890625,-0.6220703125
1761315661390884600,5.840884521484375,-2.7399444580078125,-0.8248138427734375,-0.612579345703125
1761315661400931600,5.850931640625,-2.9203643798828125,-0.7930908203125,-0.639801025390625
1761315661410978600,5.860978515625,-3.009735107421875,-0.734893798828125,-0.708526611328125
1761315661421026600,5.871026611328125,-2.9955291748046875,-0.6389923095703125,-0.7772064208984375
1761315661431073800,5.88107373046875,-2.9306640625,-0.55426025390625,-0.8028717041015625
1761315661441120500,5.89112060546875,-2.7796783447265625,-0.510498046875,-0.7837677001953125
1761315661451168500,5.90116845703125,-2.5755462646484375,-0.460906982421875,-0.7454376220703125
1761315661461215500,5.911215576171875,-2.322113037109375,-0.4087982177734375,-0.706024169921875
1761315661471262500,5.921262451171875,-2.070159912109375,-0.3498382568359375,-0.6689453125
1761315661481310700,5.931310791015625,-1.8394012451171875,-0.3013763427734375,-0.61968994140625
1761315661491357400,5.941357421875,-1.6393280029296875,-0.2496490478515625,-0.5719451904296875
1761315661501404400,5.951404296875,-1.4725494384765625,-0.19293212890625,-0.5209808349609375
1761315661511452400,5.961452392578125,-1.3119659423828125,-0.1479034423828125,-0.4525299072265625
1761315661521499600,5.971499755859375,-1.1596527099609375,-0.1012115478515625,-0.38775634765625
1761315661531546600,5.981546630859375,-1.013702392578125,-0.0520172119140625,-0.330291748046875
1761315661541593600,5.991593505859375,-0.8629913330078125,-0.024688720703125,-0.2792510986328125
1761315661551641300,6.001641357421875,-0.7004241943359375,-0.0057525634765625,-0.2385406494140625
1761315661561688600,6.0116884765625,-0.5213775634765625,0.013427734375,-0.2034759521484375
1761315661571735600,6.021735595703125,-0.3355560302734375,0.023651123046875,-0.164459228515625
1761315661581783600,6.031783447265625,-0.1672821044921875,0.0131072998046875,-0.112518310546875
1761315661591830500,6.04183056640625,-0.0390472412109375,-0.0118560791015625,-0.0536041259765625
1761315661601877500,6.05187744140625,0.0630645751953125,-0.0333404541015625,-0.00848388671875
1761315661611925500,6.061925537109375,0.1467132568359375,-0.0425262451171875,0.024261474609375
1761315661621972500,6.071972412109375,0.2051849365234375,-0.05517578125,0.0523529052734375
1761315661632019500,6.08201953125,0.2494659423828125,-0.0690460205078125,0.07806396484375
1761315661642067700,6.092067626953125,0.2740325927734375,-0.0737457275390625,0.094207763671875
1761315661652114700,6.10211474609375,0.2853546142578125,-0.0725860595703125,0.11297607421875
1761315661662161700,6.11216162109375,0.2814178466796875,-0.0742950439453125,0.13189697265625
1761315661672209400,6.12220947265625,0.2767791748046875,-0.0795745849609375,0.137542724609375
1761315661682256400,6.13225634765625,0.2832489013671875,-0.079010009765625,0.13720703125
1761315661692303600,6.1423037109375,0.277496337890625,-0.0748291015625,0.141387939453125
1761315661702350600,6.1523505859375,0.26849365234375,-0.07574462890625,0.1514434814453125
1761315661712398600,6.162398681640625,0.2681732177734375,-0.0847930908203125,0.17230224609375
1761315661722445600,6.172445556640625,0.252410888671875,-0.0894622802734375,0.1732177734375
1761315661732492800,6.182492919921875,0.244354248046875,-0.1048583984375,0.1707611083984375
1761315661742540800,6.192540771484375,0.250335693359375,-0.116485595703125,0.182037353515625
1761315661752587800,6.202587890625,0.245574951171875,-0.12139892578125,0.1718597412109375
1761315661762634800,6.212634765625,0.2411041259765625,-0.12188720703125,0.135528564453125
1761315661772683000,6.22268310546875,0.2337646484375,-0.115875244140625,0.104217529296875
1761315661782730000,6.23272998046875,0.2244415283203125,-0.1053314208984375,0.09356689453125
1761315661792776700,6.242776611328125,0.2154541015625,-0.0904998779296875,0.073760986328125
1761315661802823700,6.25282373046875,0.16143798828125,-0.057373046875,0.070709228515625
1761315661812871700,6.26287158203125,0.1234893798828125,-0.041595458984375,0.0424041748046875
1761315661822919000,6.2729189453125,0.054901123046875,-0.025421142578125,0.0211181640625
1761315661832966000,6.2829658203125,-0.04144287109375,-0.0060882568359375,-0.00885009765625
1761315661843014000,6.293013916015625,-0.1253814697265625,0.024993896484375,-0.043304443359375
1761315661853060600,6.303060546875,-0.2607421875,0.075592041015625,-0.065704345703125
1761315661863107800,6.31310791015625,-0.443084716796875,0.09893798828125,-0.08856201171875
1761315661873155800,6.32315576171875,-0.633544921875,0.0933685302734375,-0.1534271240234375
1761315661883202800,6.333202880859375,-0.821044921875,0.1070709228515625,-0.247406005859375
1761315661893249800,6.343249755859375,-0.9846343994140625,0.1623077392578125,-0.4112091064453125
1761315661903297800,6.3532978515625,-1.1552276611328125,0.2352752685546875,-0.612335205078125
1761315661913344800,6.3633447265625,-1.4167938232421875,0.2525634765625,-0.7700653076171875
1761315661923391700,6.373391845703125,-1.7825164794921875,0.247650146484375,-0.924163818359375
1761315661933439700,6.383439697265625,-2.12261962890625,0.2534332275390625,-1.0790557861328125
1761315661943486700,6.39348681640625,-2.4412841796875,0.207061767578125,-1.1735687255859375
1761315661953534000,6.403533935546875,-2.754547119140625,0.0996551513671875,-1.158233642578125
1761315661963581000,6.413580810546875,-2.9865264892578125,0.0001983642578125,-1.1016082763671875
1761315661973628700,6.423628662109375,-3.171112060546875,-0.045654296875,-1.0404815673828125
1761315661983675600,6.433675537109375,-3.343170166015625,-0.0994873046875,-0.9551849365234375
1761315661993723000,6.443722900390625,-3.432342529296875,-0.1004180908203125,-0.8961029052734375
1761315662003771000,6.45377099609375,-3.403472900390625,-0.0907440185546875,-0.8356475830078125
1761315662013817900,6.46381787109375,-3.2984466552734375,-0.1248931884765625,-0.7406768798828125
1761315662023864800,6.47386474609375,-3.1089630126953125,-0.1738739013671875,-0.6408538818359375
1761315662033912800,6.483912841796875,-2.848236083984375,-0.2049713134765625,-0.5606536865234375
1761315662043959800,6.493959716796875,-2.5797119140625,-0.2270355224609375,-0.5007781982421875
1761315662054006800,6.5040068359375,-2.316314697265625,-0.2216949462890625,-0.4788055419921875
1761315662064053800,6.5140537109375,-2.0658111572265625,-0.1929473876953125,-0.481231689453125
1761315662074101800,6.524101806640625,-1.885162353515625,-0.134368896484375,-0.4930419921875
1761315662084149000,6.53414892578125,-1.74896240234375,-0.076080322265625,-0.5055389404296875
1761315662094196000,6.544196044921875,-1.625030517578125,-0.0311126708984375,-0.5018310546875
1761315662104243700,6.55424365234375,-1.5161590576171875,-0.0092620849609375,-0.4659271240234375
1761315662114290700,6.564290771484375,-1.39776611328125,0.018280029296875,-0.4162750244140625
1761315662124338000,6.574337890625,-1.277740478515625,0.049468994140625,-0.3655548095703125
1761315662134386000,6.584385986328125,-1.1381683349609375,0.0621185302734375,-0.3049468994140625
1761315662144433000,6.594432861328125,-0.994171142578125,0.0733795166015625,-0.249725341796875
1761315662154479600,6.604479736328125,-0.8451385498046875,0.08642578125,-0.203704833984375
1761315662164527900,6.61452783203125,-0.691741943359375,0.089996337890625,-0.16156005859375
1761315662174574800,6.624574951171875,-0.5516510009765625,0.0886688232421875,-0.12322998046875
1761315662184621800,6.634621826171875,-0.413848876953125,0.0877685546875,-0.0882568359375
1761315662194668800,6.644668701171875,-0.2959442138671875,0.0839385986328125,-0.0546417236328125
1761315662204716800,6.654716796875,-0.1919403076171875,0.068145751953125,-0.021881103515625
1761315662214763800,6.664763671875,-0.0908660888671875,0.056365966796875,0.00689697265625
1761315662224810800,6.674810791015625,-0.0086212158203125,0.04461669921875,0.0292816162109375
1761315662234858800,6.684858642578125,0.0514984130859375,0.0253448486328125,0.0554962158203125
1761315662244905700,6.69490576171875,0.097808837890625,0.00604248046875,0.0805206298828125
1761315662254953000,6.704952880859375,0.1363677978515625,-0.012115478515625,0.0991363525390625
1761315662265000700,6.715000732421875,0.1702880859375,-0.0248260498046875,0.1124114990234375
1761315662275047700,6.725047607421875,0.185516357421875,-0.0313873291015625,0.119537353515625
1761315662285094700,6.7350947265625,0.1908416748046875,-0.0375823974609375,0.1216278076171875
1761315662295143000,6.745142822265625,0.1931915283203125,-0.0382843017578125,0.1145782470703125
1761315662305190000,6.75518994140625,0.1857147216796875,-0.0366668701171875,0.111724853515625
1761315662315236900,6.76523681640625,0.174591064453125,-0.04400634765625,0.1165771484375
1761315662325283800,6.775283935546875,0.1609649658203125,-0.0579376220703125,0.127227783203125
1761315662335331800,6.785331787109375,0.1443023681640625,-0.070159912109375,0.143524169921875
1761315662345378800,6.79537890625,0.1211395263671875,-0.088531494140625,0.15667724609375
1761315662355425800,6.80542578125,0.0971221923828125,-0.1190643310546875,0.1753692626953125
1761315662365473800,6.815473876953125,0.0827484130859375,-0.139190673828125,0.1854400634765625
1761315662375520800,6.825520751953125,0.074676513671875,-0.1395416259765625,0.175811767578125
1761315662385568000,6.835568115234375,0.084228515625,-0.086639404296875,0.1686859130859375
1761315662395615700,6.84561572265625,0.07025146484375,-0.082733154296875,0.1512603759765625
1761315662405662700,6.855662841796875,0.064605712890625,-0.1016693115234375,0.146636962890625
1761315662415709700,6.865709716796875,0.052581787109375,-0.094268798828125,0.129241943359375
1761315662425758000,6.875758056640625,0.0159454345703125,-0.0813446044921875,0.0987396240234375
1761315662435805000,6.885804931640625,-0.0027313232421875,-0.078460693359375,0.0725555419921875
1761315662445852000,6.895851806640625,-0.0338897705078125,-0.086456298828125,0.0477294921875
1761315662455899000,6.90589892578125,-0.0779266357421875,-0.099365234375,0.0087127685546875
1761315662465947000,6.91594677734375,-0.1417236328125,-0.101806640625,-0.0225677490234375
1761315662475993900,6.925993896484375,-0.2587738037109375,-0.11492919921875,-0.0364990234375
1761315662486040800,6.936040771484375,-0.4013671875,-0.14520263671875,-0.0827484130859375
1761315662496088800,6.9460888671875,-0.5392608642578125,-0.1623687744140625,-0.1483917236328125
1761315662506135800,6.9561357421875,-0.699981689453125,-0.1455230712890625,-0.225738525390625
1761315662516182800,6.966182861328125,-0.9203033447265625,-0.0884857177734375,-0.2863922119140625
1761315662526230800,6.976230712890625,-1.25286865234375,-0.0450439453125,-0.352142333984375
1761315662536277800,6.98627783203125,-1.688232421875,-0.037017822265625,-0.43890380859375
1761315662546324700,6.99632470703125,-2.1087646484375,-0.060455322265625,-0.5467681884765625
1761315662556373000,7.006373046875,-2.410186767578125,-0.1099395751953125,-0.6722869873046875
1761315662566419700,7.016419677734375,-2.628936767578125,-0.1677398681640625,-0.7540130615234375
1761315662576466700,7.026466796875,-2.8011627197265625,-0.2656707763671875,-0.7799530029296875
1761315662586513700,7.036513671875,-2.929595947265625,-0.3516998291015625,-0.794158935546875
1761315662596562000,7.04656201171875,-3.00225830078125,-0.413909912109375,-0.8207855224609375
1761315662606609000,7.05660888671875,-3.06915283203125,-0.450103759765625,-0.8565826416015625
1761315662616656000,7.06665576171875,-3.076568603515625,-0.4933624267578125,-0.875518798828125
1761315662626703600,7.07670361328125,-3.002410888671875,-0.537445068359375,-0.882965087890625
1761315662636750600,7.08675048828125,-2.8823394775390625,-0.5453338623046875,-0.8739471435546875
1761315662646797800,7.0967978515625,-2.72833251953125,-0.530303955078125,-0.827117919921875
1761315662656845800,7.106845703125,-2.54901123046875,-0.5102386474609375,-0.7282867431640625
1761315662666892800,7.116892822265625,-2.36822509765625,-0.4844970703125,-0.616943359375
1761315662676939800,7.126939697265625,-2.1919403076171875,-0.4424285888671875,-0.5194549560546875
1761315662686986800,7.13698681640625,-2.0252838134765625,-0.4023284912109375,-0.4480743408203125
1761315662697034800,7.14703466796875,-1.8711395263671875,-0.346771240234375,-0.4213714599609375
1761315662707081700,7.157081787109375,-1.7384185791015625,-0.2653961181640625,-0.4243927001953125
1761315662717128700,7.167128662109375,-1.6189117431640625,-0.189239501953125,-0.411834716796875
1761315662727176400,7.177176513671875,-1.497100830078125,-0.13409423828125,-0.3797607421875
1761315662737223400,7.187223388671875,-1.3470458984375,-0.0808258056640625,-0.3447723388671875
1761315662747270400,7.1972705078125,-1.1740264892578125,-0.0430450439453125,-0.299346923828125
1761315662757318400,7.207318359375,-1.004302978515625,-0.0311279296875,-0.2485198974609375
1761315662767365400,7.217365478515625,-0.8468017578125,-0.02349853515625,-0.19317626953125
1761315662777412400,7.227412353515625,-0.69873046875,-0.0110931396484375,-0.139678955078125
1761315662787460400,7.23746044921875,-0.5609283447265625,0.006317138671875,-0.0997467041015625
1761315662797507300,7.24750732421875,-0.4189605712890625,0.022857666015625,-0.0638885498046875
1761315662807554600,7.257554443359375,-0.2782745361328125,0.0343475341796875,-0.0355072021484375
1761315662817601500,7.2676015625,-0.1529388427734375,0.035797119140625,-0.0028228759765625
1761315662827649300,7.277649169921875,-0.0489654541015625,0.021759033203125,0.0295257568359375
1761315662837696300,7.2876962890625,0.0379486083984375,-0.0010223388671875,0.062652587890625
1761315662847743200,7.2977431640625,0.1060943603515625,-0.0198822021484375,0.092041015625
1761315662857791500,7.30779150390625,0.1656036376953125,-0.0308837890625,0.1127471923828125
1761315662867838500,7.31783837890625,0.194793701171875,-0.02947998046875,0.1273193359375
1761315662877885400,7.327885498046875,0.203704833984375,-0.0237274169921875,0.1443328857421875
1761315662887933400,7.337933349609375,0.2136688232421875,-0.0227203369140625,0.1590728759765625
1761315662897980400,7.34798046875,0.2258453369140625,-0.0119171142578125,0.1735992431640625
1761315662908027400,7.35802734375,0.2182159423828125,-0.0069580078125,0.1824493408203125
1761315662918075400,7.368075439453125,0.209381103515625,-0.0151214599609375,0.1846466064453125
1761315662928122400,7.378122314453125,0.1941986083984375,-0.024169921875,0.1716461181640625
1761315662938169600,7.388169677734375,0.192901611328125,-0.0484771728515625,0.1674346923828125
1761315662948216300,7.39821630859375,0.178619384765625,-0.0824737548828125,0.1676788330078125
1761315662958264300,7.408264404296875,0.1517181396484375,-0.114227294921875,0.1707000732421875
1761315662968311300,7.418311279296875,0.138031005859375,-0.1522064208984375,0.1788177490234375
1761315662978358300,7.428358154296875,0.140716552734375,-0.1737518310546875,0.18353271484375
1761315662988406500,7.438406494140625,0.1432647705078125,-0.1637725830078125,0.179443359375
1761315662998453500,7.44845361328125,0.151336669921875,-0.1408233642578125,0.1650543212890625
1761315663008500200,7.458500244140625,0.1685333251953125,-0.1249542236328125,0.1486968994140625
1761315663018548500,7.468548583984375,0.182373046875,-0.1252288818359375,0.13690185546875
1761315663028595500,7.478595458984375,0.184844970703125,-0.1333770751953125,0.1406402587890625
1761315663038642400,7.488642333984375,0.1533203125,-0.1493988037109375,0.1223907470703125
1761315663048690400,7.4986904296875,0.118988037109375,-0.1669158935546875,0.098419189453125
1761315663058737200,7.508737060546875,0.0859832763671875,-0.1876678466796875,0.067962646484375
1761315663068784400,7.518784423828125,0.0342254638671875,-0.2032470703125,0.0096282958984375
1761315663078831400,7.528831298828125,-0.0235748291015625,-0.2155303955078125,-0.0599212646484375
1761315663088879400,7.53887939453125,-0.13531494140625,-0.2126007080078125,-0.129730224609375
1761315663098926300,7.54892626953125,-0.345733642578125,-0.174407958984375,-0.18780517578125
1761315663108973600,7.5589736328125,-0.644683837890625,-0.107666015625,-0.2860107421875
1761315663119021300,7.569021240234375,-1.0151519775390625,-0.080352783203125,-0.407684326171875
1761315663129068300,7.579068359375,-1.4258880615234375,-0.0912933349609375,-0.4961395263671875
1761315663139115300,7.589115234375,-1.9258880615234375,-0.1446990966796875,-0.6015777587890625
1761315663149163500,7.59916357421875,-2.37225341796875,-0.255462646484375,-0.686370849609375
1761315663159210500,7.60921044921875,-2.6610565185546875,-0.423370361328125,-0.7837066650390625
1761315663169257500,7.619257568359375,-2.823089599609375,-0.5458221435546875,-0.884246826171875
1761315663179305200,7.62930517578125,-2.9572906494140625,-0.6405181884765625,-0.9197845458984375
1761315663189352200,7.639352294921875,-3.090423583984375,-0.7432861328125,-0.9535369873046875
1761315663199399400,7.6493994140625,-3.19635009765625,-0.7600860595703125,-0.9683990478515625
1761315663209446400,7.6594462890625,-3.2610931396484375,-0.783203125,-0.9221954345703125
1761315663219494400,7.669494384765625,-3.2445220947265625,-0.8153839111328125,-0.955230712890625
1761315663229541400,7.679541259765625,-2.9919586181640625,-0.8212738037109375,-1.0114593505859375
1761315663239588600,7.689588623046875,-2.6547698974609375,-0.824249267578125,-0.9934234619140625
1761315663249636400,7.69963623046875,-2.3684844970703125,-0.82196044921875,-0.901824951171875
1761315663259683300,7.709683349609375,-2.1260528564453125,-0.79931640625,-0.758758544921875
1761315663269730300,7.719730224609375,-1.9533538818359375,-0.73809814453125,-0.6229400634765625
1761315663279778600,7.729778564453125,-1.8314666748046875,-0.6515045166015625,-0.5253143310546875
1761315663289825500,7.739825439453125,-1.7484588623046875,-0.5578765869140625,-0.4483642578125
1761315663299872500,7.74987255859375,-1.660797119140625,-0.47015380859375,-0.3735504150390625
1761315663309919200,7.759919189453125,-1.558013916015625,-0.3770294189453125,-0.3068084716796875
1761315663319967200,7.76996728515625,-1.4448699951171875,-0.29034423828125,-0.2333526611328125
1761315663330014500,7.780014404296875,-1.322357177734375,-0.2203521728515625,-0.162811279296875
1761315663340061400,7.7900615234375,-1.19439697265625,-0.16162109375,-0.0995330810546875
1761315663350109400,7.800109375,-1.05718994140625,-0.1034088134765625,-0.0470428466796875
1761315663360156400,7.810156494140625,-0.9165191650390625,-0.04705810546875,-0.0158233642578125
1761315663370203400,7.820203369140625,-0.7731475830078125,0.0009307861328125,0.005706787109375
1761315663380251400,7.83025146484375,-0.6304473876953125,0.03802490234375,0.021575927734375
1761315663390298400,7.84029833984375,-0.5030059814453125,0.0635986328125,0.03436279296875
1761315663400345300,7.850345458984375,-0.3889007568359375,0.086822509765625,0.041351318359375
1761315663410392300,7.860392333984375,-0.26885986328125,0.1016693115234375,0.0319671630859375
1761315663420440300,7.8704404296875,-0.145751953125,0.097900390625,0.0359039306640625
1761315663430487300,7.8804873046875,-0.0509185791015625,0.0863189697265625,0.051025390625
1761315663440534300,7.8905341796875,0.0208282470703125,0.0730133056640625,0.072723388671875
1761315663450582500,7.90058251953125,0.07904052734375,0.0534210205078125,0.096160888671875
1761315663460629500,7.91062939453125,0.116180419921875,0.027557373046875,0.1176300048828125
1761315663470676500,7.920676513671875,0.149017333984375,0.003631591796875,0.1360931396484375
1761315663480724200,7.93072412109375,0.18798828125,-0.00274658203125,0.143707275390625
1761315663490771200,7.940771240234375,0.2202911376953125,0.00152587890625,0.1433563232421875
1761315663500818400,7.950818359375,0.242584228515625,-0.0001373291015625,0.153045654296875
1761315663510866400,7.960866455078125,0.24920654296875,-0.0147552490234375,0.164581298828125
1761315663520913400,7.970913330078125,0.264068603515625,-0.024627685546875,0.1709747314453125
1761315663530960400,7.98096044921875,0.2772979736328125,-0.0276947021484375,0.173583984375
1761315663541007400,7.99100732421875,0.278167724609375,-0.040069580078125,0.180145263671875
1761315663551055400,8.001055419921874,0.257171630859375,-0.054168701171875,0.1793060302734375
1761315663561102300,8.011102294921875,0.24444580078125,-0.0581207275390625,0.1707000732421875
1761315663571149300,8.0211494140625,0.2354736328125,-0.0566253662109375,0.1569061279296875
1761315663581197600,8.031197509765626,0.20440673828125,-0.0560455322265625,0.1473846435546875
1761315663591244500,8.04124462890625,0.1679840087890625,-0.0574493408203125,0.1383514404296875
1761315663601291500,8.05129150390625,0.128082275390625,-0.0499420166015625,0.127960205078125
1761315663611339300,8.06133935546875,0.08953857421875,-0.0430755615234375,0.1091461181640625
1761315663621386200,8.07138623046875,0.0513763427734375,-0.0390777587890625,0.083282470703125
1761315663631433500,8.08143359375,0.0035552978515625,-0.039886474609375,0.04443359375
1761315663641481500,8.0914814453125,-0.0517730712890625,-0.0482940673828125,-0.0060882568359375
1761315663651528400,8.101528564453124,-0.13818359375,-0.0495147705078125,-0.0745697021484375
1761315663661575400,8.111575439453125,-0.257110595703125,-0.048187255859375,-0.145355224609375
1761315663671622400,8.121622314453125,-0.4098052978515625,-0.0440521240234375,-0.1856842041015625
1761315663681670400,8.13167041015625,-0.6199798583984375,-0.0305633544921875,-0.224456787109375
1761315663691717400,8.14171728515625,-0.87554931640625,-0.0328826904296875,-0.2928619384765625
1761315663701764400,8.151764404296875,-1.1311492919921875,-0.0751953125,-0.4019317626953125
1761315663711812600,8.1618125,-1.386138916015625,-0.11932373046875,-0.5323333740234375
1761315663721859300,8.171859375,-1.6460723876953125,-0.1442413330078125,-0.6266021728515625
1761315663731905500,8.181905517578125,-1.92626953125,-0.15093994140625,-0.6872406005859375
1761315663741953300,8.191953369140625,-2.2691650390625,-0.1768646240234375,-0.720428466796875
1761315663752000300,8.202000244140624,-2.6172332763671875,-0.1928863525390625,-0.74310302734375
1761315663762047200,8.212047119140625,-2.8896636962890625,-0.205810546875,-0.7684478759765625
1761315663772095500,8.222095458984375,-3.0341644287109375,-0.2418212890625,-0.81512451171875
1761315663782142500,8.232142578125,-3.027374267578125,-0.2729339599609375,-0.842864990234375
1761315663792189400,8.242189453125,-2.953277587890625,-0.3173065185546875,-0.8267059326171875
1761315663802236400,8.252236328125,-2.8603363037109375,-0.36474609375,-0.785736083984375
1761315663812284400,8.262284423828126,-2.7418670654296875,-0.3962249755859375,-0.718048095703125
1761315663822331400,8.272331298828124,-2.60650634765625,-0.401123046875,-0.655853271484375
1761315663832378400,8.28237841796875,-2.4445037841796875,-0.379486083984375,-0.6136627197265625
1761315663842426400,8.29242626953125,-2.250091552734375,-0.357025146484375,-0.5729217529296875
1761315663852473600,8.3024736328125,-2.0672607421875,-0.3264312744140625,-0.53192138671875
1761315663862520600,8.3125205078125,-1.909027099609375,-0.284393310546875,-0.4900360107421875
1761315663872568300,8.322568359375,-1.7674560546875,-0.242431640625,-0.4432830810546875
1761315663882615300,8.332615234375,-1.631683349609375,-0.217254638671875,-0.3938446044921875
1761315663892662300,8.342662353515625,-1.5099639892578125,-0.1950836181640625,-0.3509368896484375
1761315663902709500,8.35270947265625,-1.3954315185546875,-0.1711273193359375,-0.3214874267578125
1761315663912757500,8.362757568359376,-1.2816009521484375,-0.1373443603515625,-0.2980804443359375
1761315663922804500,8.372804443359374,-1.1583251953125,-0.11279296875,-0.27215576171875
1761315663932851200,8.382851318359375,-1.045196533203125,-0.0904388427734375,-0.248504638671875
1761315663942899500,8.3928994140625,-0.94183349609375,-0.0624237060546875,-0.2250518798828125
1761315663952946400,8.402946533203124,-0.820526123046875,-0.04888916015625,-0.2103424072265625
1761315663962993400,8.412993408203125,-0.689239501953125,-0.043731689453125,-0.1944122314453125
1761315663973041400,8.42304150390625,-0.575653076171875,-0.0417022705078125,-0.164794921875
1761315663983088400,8.43308837890625,-0.4859771728515625,-0.0396881103515625,-0.1331329345703125
1761315663993135400,8.44313525390625,-0.4098358154296875,-0.0385284423828125,-0.094573974609375
1761315664003182300,8.453182373046875,-0.33428955078125,-0.0445556640625,-0.057098388671875
1761315664013230300,8.463230224609376,-0.2628326416015625,-0.04766845703125,-0.0260009765625
1761315664023277300,8.47327734375,-0.1991424560546875,-0.05096435546875,-0.00640869140625
1761315664033324500,8.483324462890625,-0.136871337890625,-0.0544281005859375,0.0042572021484375
1761315664043372300,8.493372314453126,-0.0863800048828125,-0.0650634765625,0.011993408203125
1761315664053419300,8.503419189453124,-0.0453338623046875,-0.077880859375,0.0165557861328125
1761315664063466200,8.51346630859375,0.000335693359375,-0.0929412841796875,0.0192108154296875
1761315664073514500,8.523514404296876,0.039520263671875,-0.1154632568359375,0.0253753662109375
1761315664083561500,8.5335615234375,0.0756988525390625,-0.1344757080078125,0.033660888671875
1761315664093608400,8.5436083984375,0.111724853515625,-0.150543212890625,0.04071044921875
1761315664103656200,8.55365625,0.140625,-0.1689300537109375,0.038787841796875
1761315664113703400,8.563703369140624,0.1378936767578125,-0.1729583740234375,0.029052734375
1761315664123750400,8.57375048828125,0.1057586669921875,-0.1721343994140625,0.0312347412109375
1761315664133797400,8.58379736328125,0.021148681640625,-0.1982879638671875,0.04229736328125
1761315664143845400,8.593845458984376,-0.080078125,-0.241729736328125,0.0460662841796875
1761315664153892400,8.603892333984374,-0.171142578125,-0.274078369140625,0.0410614013671875
1761315664163939600,8.613939697265625,-0.2720794677734375,-0.2950897216796875,0.0183868408203125
1761315664173987300,8.6239873046875,-0.36077880859375,-0.3087615966796875,-0.0079193115234375
1761315664184034300,8.634034423828124,-0.44146728515625,-0.325592041015625,-0.0390625
1761315664194081300,8.644081298828125,-0.538299560546875,-0.3334503173828125,-0.0667724609375
1761315664204129500,8.654129638671876,-0.622802734375,-0.3361968994140625,-0.08404541015625
1761315664214176500,8.664176513671874,-0.7020263671875,-0.3535919189453125,-0.0917510986328125
1761315664224223500,8.674223388671875,-0.8022308349609375,-0.37646484375,-0.097076416015625
1761315664234270200,8.684270263671875,-0.90869140625,-0.4060211181640625,-0.10650634765625
1761315664244318500,8.694318359375,-0.9845428466796875,-0.4249267578125,-0.130157470703125
1761315664254365400,8.704365478515625,-1.046966552734375,-0.41632080078125,-0.1541748046875
1761315664264412400,8.714412353515625,-1.133819580078125,-0.3873138427734375,-0.180572509765625
1761315664274460400,8.72446044921875,-1.2863006591796875,-0.36395263671875,-0.187713623046875
1761315664284507400,8.73450732421875,-1.4520263671875,-0.3594512939453125,-0.194000244140625
1761315664294554400,8.744554443359375,-1.5819091796875,-0.347503662109375,-0.2283172607421875
1761315664304602400,8.754602294921876,-1.6608734130859375,-0.3555145263671875,-0.266510009765625
1761315664314649300,8.7646494140625,-1.7122039794921875,-0.364532470703125,-0.2740478515625
1761315664324696300,8.7746962890625,-1.7806549072265625,-0.3762969970703125,-0.2621002197265625
1761315664334743600,8.78474365234375,-1.81475830078125,-0.42535400390625,-0.27972412109375
1761315664344791300,8.794791259765624,-1.8159027099609375,-0.4275360107421875,-0.2855682373046875
1761315664354838300,8.80483837890625,-1.7892303466796875,-0.4148101806640625,-0.2985992431640625
1761315664364885200,8.81488525390625,-1.7352142333984375,-0.4035491943359375,-0.3101806640625
1761315664374930400,8.824930419921875,-1.6633453369140625,-0.4023895263671875,-0.301605224609375
1761315664384977400,8.834977294921876,-1.58111572265625,-0.406646728515625,-0.271026611328125
1761315664395025400,8.845025390625,-1.4949188232421875,-0.4106597900390625,-0.2352752685546875
1761315664405072400,8.855072265625,-1.394927978515625,-0.4034423828125,-0.2025604248046875
1761315664415119400,8.865119384765626,-1.3053131103515625,-0.394622802734375,-0.179168701171875
1761315664425166300,8.875166259765624,-1.2177734375,-0.377685546875,-0.1533660888671875
1761315664435214300,8.88521435546875,-1.1489410400390625,-0.3598480224609375,-0.1263275146484375
1761315664445261600,8.895261474609375,-1.0718231201171875,-0.349365234375,-0.0982666015625
1761315664455308500,8.90530859375,-0.967864990234375,-0.346282958984375,-0.0709686279296875
1761315664465356300,8.915356201171875,-0.8790283203125,-0.345458984375,-0.060943603515625
1761315664475403300,8.9254033203125,-0.7939605712890625,-0.3245697021484375,-0.061370849609375
1761315664485450200,8.9354501953125,-0.7313995361328125,-0.2935333251953125,-0.0792083740234375
1761315664495498500,8.94549853515625,-0.7031097412109375,-0.269683837890625,-0.0976715087890625
1761315664505545500,8.95554541015625,-0.68536376953125,-0.2649383544921875,-0.1065216064453125
1761315664515592400,8.965592529296876,-0.681915283203125,-0.26544189453125,-0.1035308837890625
1761315664525640400,8.975640380859375,-0.663787841796875,-0.2658233642578125,-0.086456298828125
1761315664535687400,8.9856875,-0.636810302734375,-0.2619781494140625,-0.0690155029296875
1761315664545734400,8.995734375,-0.567474365234375,-0.2534027099609375,-0.0592193603515625
1761315664555781400,9.005781494140624,-0.514617919921875,-0.237548828125,-0.04034423828125
1761315664565829400,9.015829345703125,-0.607574462890625,-0.212860107421875,-0.0206298828125
1761315664575876400,9.02587646484375,-0.570770263671875,-0.2425384521484375,-0.015838623046875
1761315664585923300,9.03592333984375,-0.497467041015625,-0.2566375732421875,0.00946044921875
1761315664595971300,9.045971435546875,-0.4662322998046875,-0.2480010986328125,0.021881103515625
1761315664606018300,9.056018310546875,-0.44122314453125,-0.222869873046875,0.0084686279296875
1761315664616065500,9.0660654296875,-0.4178314208984375,-0.2022705078125,-0.011474609375
1761315664626113500,9.076113525390625,-0.4135894775390625,-0.196319580078125,-0.027618408203125
1761315664636160300,9.08616015625,-0.4322357177734375,-0.197113037109375,-0.0283050537109375
1761315664646207200,9.096207275390626,-0.439056396484375,-0.201507568359375,-0.029754638671875
1761315664656254200,9.106254150390624,-0.4387359619140625,-0.20208740234375,-0.034454345703125
1761315664666302500,9.116302490234375,-0.44476318359375,-0.191436767578125,-0.0387115478515625
1761315664676349400,9.126349365234375,-0.44268798828125,-0.1758270263671875,-0.05126953125
1761315664686396400,9.136396484375,-0.4417724609375,-0.1673431396484375,-0.06201171875
1761315664696444200,9.146444091796875,-0.4630584716796875,-0.173492431640625,-0.061279296875
1761315664706491400,9.156491455078125,-0.4742431640625,-0.1701812744140625,-0.0725250244140625
1761315664716538400,9.166538330078126,-0.4696807861328125,-0.1711883544921875,-0.09466552734375
1761315664726586400,9.17658642578125,-0.475830078125,-0.1617431640625,-0.1065673828125
1761315664736633900,9.1866337890625,-0.50390625,-0.1451873779296875,-0.117523193359375
1761315664746680800,9.196680908203126,-0.538177490234375,-0.1545562744140625,-0.1266021728515625
1761315664756727800,9.206727783203124,-0.5979766845703125,-0.1891632080078125,-0.129974365234375
1761315664766775800,9.21677587890625,-0.6690216064453125,-0.2382659912109375,-0.1248779296875
1761315664776822800,9.22682275390625,-0.7634124755859375,-0.3003692626953125,-0.0936737060546875
1761315664786869800,9.236869873046874,-0.894439697265625,-0.3489837646484375,-0.067657470703125
1761315664796917800,9.246917724609375,-1.0353851318359375,-0.3844451904296875,-0.073089599609375
1761315664806965000,9.256965087890626,-1.200958251953125,-0.41864013671875,-0.1078948974609375
1761315664817011700,9.26701171875,-1.377777099609375,-0.455963134765625,-0.1565093994140625
1761315664827059700,9.277059814453125,-1.535491943359375,-0.49560546875,-0.2199859619140625
1761315664837106700,9.287106689453125,-1.8095703125,-0.5079498291015625,-0.30255126953125
1761315664847153700,9.297153564453126,-2.1017303466796875,-0.484130859375,-0.4232025146484375
1761315664857201000,9.307200927734375,-2.3425445556640625,-0.4185638427734375,-0.5448455810546875
1761315664867249000,9.317248779296875,-2.55157470703125,-0.3678741455078125,-0.58349609375
1761315664877295600,9.327295654296876,-2.7337493896484375,-0.38525390625,-0.59759521484375
1761315664887342600,9.337342529296874,-2.86041259765625,-0.4011383056640625,-0.616241455078125
1761315664897390800,9.347390869140625,-2.8284759521484375,-0.36151123046875,-0.6259613037109375
1761315664907437800,9.357437744140626,-2.683502197265625,-0.332244873046875,-0.6208038330078125
1761315664917484800,9.36748486328125,-2.508087158203125,-0.3450164794921875,-0.5835418701171875
1761315664927532800,9.37753271484375,-2.2689666748046875,-0.340240478515625,-0.5351409912109375
1761315664937579800,9.387579833984375,-2.018951416015625,-0.320281982421875,-0.4931488037109375
1761315664947626800,9.397626708984374,-1.7947998046875,-0.30401611328125,-0.447052001953125
1761315664957673700,9.407673828125,-1.61419677734375,-0.2859649658203125,-0.4033355712890625
1761315664967721700,9.4177216796875,-1.4586639404296875,-0.25872802734375,-0.3462371826171875
1761315664977771800,9.427771728515625,-1.31256103515625,-0.2321929931640625,-0.280181884765625
1761315664987818800,9.43781884765625,-1.1820220947265625,-0.20294189453125,-0.223785400390625
1761315664997865700,9.44786572265625,-1.050933837890625,-0.16925048828125,-0.1654052734375
1761315665007913700,9.457913818359375,-0.9154052734375,-0.138641357421875,-0.11199951171875
1761315665017960700,9.467960693359375,-0.7732391357421875,-0.107147216796875,-0.074188232421875
1761315665028007700,9.478007568359375,-0.6170196533203125,-0.0872039794921875,-0.0454864501953125
1761315665038055700,9.4880556640625,-0.4672698974609375,-0.07794189453125,-0.023834228515625
1761315665048103000,9.49810302734375,-0.310760498046875,-0.0760345458984375,-0.0005950927734375
1761315665058150000,9.50814990234375,-0.1608428955078125,-0.087921142578125,0.02252197265625
1761315665068196900,9.51819677734375,-0.0213623046875,-0.1092681884765625,0.045013427734375
1761315665078244600,9.52824462890625,0.082550048828125,-0.1280059814453125,0.0776214599609375
1761315665088291600,9.53829150390625,0.1588134765625,-0.1411590576171875,0.10333251953125
1761315665098338800,9.5483388671875,0.2279205322265625,-0.1479339599609375,0.113677978515625
1761315665108386800,9.55838671875,0.283477783203125,-0.1485748291015625,0.1142425537109375
1761315665118433800,9.568433837890625,0.32305908203125,-0.149810791015625,0.115936279296875
1761315665128480800,9.578480712890626,0.329132080078125,-0.157135009765625,0.1274871826171875
1761315665138528800,9.58852880859375,0.337493896484375,-0.1470184326171875,0.12615966796875
1761315665148575700,9.59857568359375,0.3363494873046875,-0.1212310791015625,0.1177215576171875
1761315665158622700,9.608622802734375,0.3019866943359375,-0.1044464111328125,0.1279449462890625
1761315665168669700,9.618669677734376,0.2653350830078125,-0.0837554931640625,0.1392364501953125
1761315665178718000,9.628718017578125,0.230224609375,-0.08758544921875,0.1324920654296875
1761315665188765000,9.638764892578125,0.18634033203125,-0.09124755859375,0.122802734375
1761315665198811600,9.648811767578126,0.1530914306640625,-0.0780792236328125,0.11102294921875
1761315665208859600,9.658859619140625,0.1136627197265625,-0.0616455078125,0.089599609375
1761315665218907000,9.668906982421875,0.0700836181640625,-0.0537261962890625,0.066680908203125
1761315665228953900,9.678953857421876,0.0147552490234375,-0.04644775390625,0.0390625
1761315665239001900,9.689001953125,-0.0635986328125,-0.0490875244140625,0.021728515625
1761315665249048800,9.699048828125,-0.1168060302734375,-0.037353515625,0.010284423828125
1761315665259095600,9.709095458984375,-0.229644775390625,-0.012420654296875,0.0176239013671875
1761315665269143800,9.719143798828124,-0.287872314453125,-0.0095367431640625,0.01068115234375
1761315665279190800,9.729190673828125,-0.3780670166015625,-0.019683837890625,0.012481689453125
1761315665289237800,9.73923779296875,-0.54168701171875,-0.0229034423828125,0.005706787109375
1761315665299284700,9.74928466796875,-0.7425689697265625,-0.0249786376953125,-0.018218994140625
1761315665309332700,9.759332763671875,-0.9291534423828125,-0.0323486328125,-0.080322265625
1761315665319379700,9.769379638671875,-1.0978851318359375,-0.0434722900390625,-0.1698455810546875
1761315665329426700,9.7794267578125,-1.218902587890625,-0.0897369384765625,-0.242034912109375
1761315665339474700,9.789474609375,-1.3012542724609375,-0.163787841796875,-0.305328369140625
1761315665349522000,9.79952197265625,-1.40728759765625,-0.234710693359375,-0.361236572265625
1761315665359569000,9.80956884765625,-1.5395660400390625,-0.3220062255859375,-0.4107513427734375
1761315665369616600,9.81961669921875,-1.7030792236328125,-0.38653564453125,-0.47174072265625
1761315665379663600,9.82966357421875,-1.8932647705078125,-0.4337158203125,-0.5390777587890625
1761315665389710600,9.839710693359375,-2.0679168701171875,-0.4858856201171875,-0.5886993408203125
1761315665399757800,9.8497578125,-2.224700927734375,-0.518890380859375,-0.6119537353515625
1761315665409805800,9.859805908203125,-2.3931884765625,-0.52166748046875,-0.6483001708984375
1761315665419852800,9.869852783203125,-2.5612030029296875,-0.505096435546875,-0.685943603515625
1761315665429899800,9.879899658203126,-2.65692138671875,-0.5007171630859375,-0.701080322265625
1761315665439947800,9.88994775390625,-2.688751220703125,-0.483673095703125,-0.70916748046875
1761315665449994800,9.899994873046875,-2.6332244873046875,-0.468963623046875,-0.6859283447265625
1761315665460041700,9.910041748046876,-2.493560791015625,-0.4538726806640625,-0.6282958984375
1761315665470088700,9.920088623046874,-2.32989501953125,-0.4295501708984375,-0.5649871826171875
1761315665480137000,9.930136962890625,-2.1435089111328125,-0.38592529296875,-0.5027618408203125
1761315665490184000,9.940183837890626,-1.960845947265625,-0.352142333984375,-0.4294586181640625
1761315665500231000,9.95023095703125,-1.8001861572265625,-0.3178863525390625,-0.36505126953125
1761315665510278700,9.960278564453125,-1.648681640625,-0.27392578125,-0.307159423828125
1761315665520325600,9.97032568359375,-1.516387939453125,-0.222869873046875,-0.25347900390625
1761315665530372900,9.980372802734376,-1.42047119140625,-0.16754150390625,-0.2102203369140625
1761315665540420900,9.9904208984375,-1.337249755859375,-0.109039306640625,-0.18206787109375
1761315665550467800,10.0004677734375,-1.2561187744140625,-0.0512847900390625,-0.15692138671875
1761315665560514800,10.010514892578126,-1.171783447265625,-0.022735595703125,-0.1230926513671875
1761315665570561500,10.0205615234375,-1.085968017578125,-0.012908935546875,-0.092254638671875
1761315665580609800,10.03060986328125,-0.9734344482421875,-0.0132904052734375,-0.0536956787109375
1761315665590656800,10.04065673828125,-0.855010986328125,-0.004302978515625,-0.0160980224609375
1761315665600703700,10.050703857421874,-0.7410888671875,-0.000640869140625,0.010986328125
1761315665610751700,10.060751708984375,-0.579071044921875,-0.0260009765625,0.0425262451171875
1761315665620798700,10.070798828125,-0.4205474853515625,-0.04656982421875,0.05279541015625
1761315665630845700,10.080845703125,-0.265533447265625,-0.0732879638671875,0.0512542724609375
1761315665640893700,10.090893798828125,-0.10980224609375,-0.1109466552734375,0.04522705078125
1761315665650940700,10.100940673828125,0.012908935546875,-0.1511993408203125,0.0460968017578125
1761315665660988000,10.11098779296875,0.1162109375,-0.188079833984375,0.0522918701171875
1761315665671035000,10.121034912109375,0.2035369873046875,-0.2227935791015625,0.0619354248046875
1761315665681082600,10.13108251953125,0.273101806640625,-0.2427215576171875,0.0698394775390625
1761315665691129600,10.141129638671876,0.319488525390625,-0.251068115234375,0.0706024169921875
1761315665701176600,10.151176513671874,0.3305816650390625,-0.2540435791015625,0.071258544921875
1761315665711224800,10.161224853515625,0.3042144775390625,-0.246551513671875,0.0677490234375
1761315665721271800,10.171271728515626,0.258331298828125,-0.24066162109375,0.0588226318359375
1761315665731319600,10.181319580078124,0.2130126953125,-0.2423553466796875,0.0561065673828125
1761315665741367600,10.191367431640625,0.1717987060546875,-0.2341766357421875,0.0670166015625
1761315665751414800,10.201414794921876,0.1145172119140625,-0.224395751953125,0.0770111083984375
1761315665761461800,10.211461669921874,0.05462646484375,-0.2211761474609375,0.0785980224609375
1761315665771508700,10.2215087890625,0.013092041015625,-0.2039794921875,0.075927734375
1761315665781556500,10.231556396484375,-0.02099609375,-0.175323486328125,0.064849853515625
1761315665791603500,10.241603515625,-0.0576934814453125,-0.1581268310546875,0.04608154296875
1761315665801650700,10.251650634765625,-0.0933380126953125,-0.155029296875,0.0232696533203125
1761315665811698700,10.26169873046875,-0.125946044921875,-0.1508941650390625,-0.017242431640625
1761315665821745700,10.27174560546875,-0.1418609619140625,-0.1308746337890625,-0.0542755126953125
1761315665831792600,10.281792724609375,-0.213165283203125,-0.1073455810546875,-0.0804290771484375
1761315665841840600,10.291840576171875,-0.356903076171875,-0.07861328125,-0.0886077880859375
1761315665851887600,10.3018876953125,-0.5294036865234375,-0.0561065673828125,-0.0816497802734375
1761315665861934600,10.3119345703125,-0.777679443359375,-0.0455169677734375,-0.1086273193359375
1761315665871981600,10.321981689453125,-1.0705413818359375,-0.045989990234375,-0.1646575927734375
1761315665882029800,10.33202978515625,-1.3799591064453125,-0.025787353515625,-0.24884033203125
1761315665892076800,10.342076904296874,-1.7089996337890625,0.0315399169921875,-0.373626708984375
1761315665902123800,10.352123779296875,-2.0334625244140625,0.0630950927734375,-0.5167083740234375
1761315665912171500,10.362171630859375,-2.3027191162109375,0.0476531982421875,-0.6068267822265625
1761315665922218500,10.372218505859376,-2.510528564453125,0.0699920654296875,-0.6320343017578125
1761315665932265700,10.382265625,-2.5875396728515625,0.04766845703125,-0.608154296875
1761315665942313700,10.392313720703125,-2.532562255859375,-0.04742431640625,-0.528564453125
1761315665952360700,10.402360595703126,-2.474639892578125,-0.127288818359375,-0.4051361083984375
1761315665962407700,10.41240771484375,-2.3626556396484375,-0.2255401611328125,-0.3199310302734375
1761315665972455000,10.422454833984375,-2.170654296875,-0.2977294921875,-0.285247802734375
1761315665982502700,10.432502685546876,-1.9987945556640625,-0.3074493408203125,-0.2714385986328125
1761315665992549600,10.442549560546874,-1.8297119140625,-0.371307373046875,-0.2639923095703125
1761315666002596600,10.4525966796875,-1.6405181884765625,-0.4019012451171875,-0.2761993408203125
1761315666012644900,10.462644775390626,-1.456146240234375,-0.3778533935546875,-0.309417724609375
1761315666022691800,10.47269189453125,-1.2872772216796875,-0.3835296630859375,-0.3364105224609375
1761315666032738600,10.482738525390625,-1.1679534912109375,-0.401580810546875,-0.3435211181640625
1761315666042785500,10.49278564453125,-1.0877532958984375,-0.410552978515625,-0.3529815673828125
1761315666052833800,10.502833740234376,-1.0496368408203125,-0.380218505859375,-0.36334228515625
1761315666062880800,10.512880859375,-1.052490234375,-0.3402252197265625,-0.3510894775390625
1761315666072927700,10.522927734375,-1.0366668701171875,-0.320404052734375,-0.3255615234375
1761315666082975700,10.532975830078126,-0.9973602294921875,-0.3073577880859375,-0.2992095947265625
1761315666093022500,10.5430224609375,-0.95562744140625,-0.28802490234375,-0.2719879150390625
1761315666103069700,10.553069580078125,-0.916229248046875,-0.27581787109375,-0.2427825927734375
1761315666113117700,10.56311767578125,-0.8763427734375,-0.2748565673828125,-0.206634521484375
1761315666123164700,10.57316455078125,-0.8359375,-0.28082275390625,-0.1705322265625
1761315666133211600,10.583211669921875,-0.789642333984375,-0.2786865234375,-0.1453094482421875
1761315666143258600,10.593258544921875,-0.73748779296875,-0.271240234375,-0.126434326171875
1761315666153306600,10.603306640625,-0.6710968017578125,-0.2705841064453125,-0.1114044189453125
1761315666163353600,10.613353515625,-0.5968780517578125,-0.2654571533203125,-0.090850830078125
1761315666173400600,10.623400634765625,-0.533203125,-0.2643280029296875,-0.0671539306640625
1761315666183448800,10.63344873046875,-0.487335205078125,-0.2618560791015625,-0.0403594970703125
1761315666193495800,10.643495849609375,-0.4295501708984375,-0.257904052734375,-0.01092529296875
1761315666203542800,10.653542724609375,-0.367462158203125,-0.249755859375,0.016448974609375
1761315666213590500,10.663590576171876,-0.308929443359375,-0.2458953857421875,0.0376129150390625
1761315666223637500,10.673637451171874,-0.254302978515625,-0.246734619140625,0.0493316650390625
1761315666233684700,10.683684814453125,-0.1942901611328125,-0.2440643310546875,0.0577239990234375
1761315666243731700,10.693731689453125,-0.13531494140625,-0.246002197265625,0.062530517578125
1761315666253779700,10.70377978515625,-0.09478759765625,-0.2561798095703125,0.0583038330078125
1761315666263826700,10.71382666015625,-0.065460205078125,-0.2436065673828125,0.05596923828125
1761315666273873700,10.723873779296875,-0.05035400390625,-0.2216339111328125,0.0526275634765625
1761315666283921700,10.733921630859374,-0.0715789794921875,-0.19677734375,0.047393798828125
1761315666293968600,10.74396875,-0.1655426025390625,-0.1634063720703125,0.0243072509765625
1761315666304015600,10.754015625,-0.2980499267578125,-0.150909423828125,-0.0118865966796875
1761315666314064000,10.76406396484375,-0.4081268310546875,-0.161529541015625,-0.0487213134765625
1761315666324110800,10.77411083984375,-0.535003662109375,-0.168487548828125,-0.0822906494140625
1761315666334157800,10.78415771484375,-0.6868133544921875,-0.199249267578125,-0.1097564697265625
1761315666344204500,10.79420458984375,-0.7783966064453125,-0.2903594970703125,-0.1302337646484375
1761315666354252500,10.80425244140625,-0.939056396484375,-0.3044281005859375,-0.1737213134765625
1761315666364299800,10.8142998046875,-1.1535491943359375,-0.2631683349609375,-0.2096710205078125
1761315666374346800,10.8243466796875,-1.2757568359375,-0.25738525390625,-0.2625732421875
1761315666384394800,10.834394775390624,-1.3315887451171875,-0.2733612060546875,-0.2999114990234375
1761315666394441700,10.844441650390625,-1.42431640625,-0.254669189453125,-0.2927703857421875
1761315666404488400,10.854488525390625,-1.4918365478515625,-0.2374725341796875,-0.264678955078125
1761315666414536700,10.86453662109375,-1.6091461181640625,-0.239715576171875,-0.2722015380859375
1761315666424583700,10.874583740234375,-1.5760650634765625,-0.260986328125,-0.2519683837890625
1761315666434630700,10.884630615234375,-1.6386871337890625,-0.210540771484375,-0.2101287841796875
1761315666444677600,10.894677734375,-1.531494140625,-0.2383880615234375,-0.1371612548828125
1761315666454725600,10.9047255859375,-1.463104248046875,-0.271881103515625,-0.0784149169921875
1761315666464772600,10.914772705078125,-1.5021820068359375,-0.239501953125,-0.0691986083984375
1761315666474819600,10.924819580078125,-1.4751129150390625,-0.19281005859375,-0.074310302734375
1761315666484867600,10.93486767578125,-1.3939361572265625,-0.159881591796875,-0.1030120849609375
1761315666494914800,10.944914794921875,-1.2976837158203125,-0.16058349609375,-0.138916015625
1761315666504961800,10.9549619140625,-1.2276458740234375,-0.1765289306640625,-0.154541015625
1761315666515008800,10.9650087890625,-1.187774658203125,-0.189239501953125,-0.1514739990234375
1761315666525056500,10.975056396484375,-1.149383544921875,-0.20037841796875,-0.1294403076171875
1761315666535103500,10.985103515625,-1.096466064453125,-0.200531005859375,-0.102874755859375
1761315666545150700,10.995150634765626,-1.0389404296875,-0.1873931884765625,-0.098907470703125
1761315666555198700,11.00519873046875,-0.98516845703125,-0.184783935546875,-0.1004486083984375
1761315666565245700,11.01524560546875,-0.9511871337890625,-0.1940765380859375,-0.088623046875
1761315666575292700,11.025292724609375,-0.9220733642578125,-0.200653076171875,-0.07183837890625
1761315666585340700,11.035340576171874,-0.8980255126953125,-0.2098236083984375,-0.0616455078125
1761315666595387600,11.0453876953125,-0.89239501953125,-0.229827880859375,-0.049835205078125
1761315666605434600,11.0554345703125,-0.882965087890625,-0.2392425537109375,-0.04150390625
1761315666615481600,11.065481689453126,-0.868255615234375,-0.2294921875,-0.0514984130859375
1761315666625529900,11.07552978515625,-0.8544769287109375,-0.215667724609375,-0.0618133544921875
1761315666635576800,11.085576904296875,-0.845428466796875,-0.20489501953125,-0.0684356689453125
1761315666645623800,11.095623779296876,-0.8359832763671875,-0.199554443359375,-0.0692901611328125
1761315666655671600,11.105671630859375,-0.8283538818359375,-0.1789398193359375,-0.0570220947265625
1761315666665718800,11.11571875,-0.8339996337890625,-0.179595947265625,-0.0553741455078125
1761315666675765800,11.125765869140626,-0.8377685546875,-0.19757080078125,-0.0611419677734375
1761315666685812700,11.135812744140624,-0.831451416015625,-0.1893310546875,-0.0832977294921875
1761315666695860700,11.14586083984375,-0.8277130126953125,-0.17608642578125,-0.0994415283203125
1761315666705907500,11.155907470703125,-0.854095458984375,-0.1694488525390625,-0.0888519287109375
1761315666715954700,11.16595458984375,-0.85845947265625,-0.1548309326171875,-0.070556640625
1761315666726002700,11.176002685546875,-0.8579254150390625,-0.1363983154296875,-0.04296875
1761315666736048400,11.18604833984375,-0.8787078857421875,-0.15228271484375,-0.02630615234375
1761315666746095600,11.196095703125,-0.9233551025390625,-0.192962646484375,-0.01727294921875
1761315666756143600,11.2061435546875,-0.89801025390625,-0.2243499755859375,-0.0235595703125
1761315666766190600,11.216190673828125,-0.8753204345703125,-0.217803955078125,-0.048614501953125
1761315666776237600,11.226237548828125,-0.903167724609375,-0.2025604248046875,-0.0641937255859375
1761315666786284500,11.236284423828126,-0.91558837890625,-0.19525146484375,-0.0698394775390625
1761315666796332500,11.24633251953125,-0.9483795166015625,-0.17242431640625,-0.0726470947265625
1761315666806379500,11.256379638671875,-0.9676513671875,-0.163421630859375,-0.0859832763671875
