time,seconds_elapsed,z,y,x
1761315655613681400,0.063681396484375,-0.06928347051143646,0.05125067010521889,0.09522265195846558
1761315655623728400,0.073728271484375,-0.07741250097751617,0.02676849626004696,0.049307629466056824
1761315655633776400,0.0837763671875,-0.1096026599407196,0.07242892682552338,0.012522449716925621
1761315655643823400,0.0938232421875,-0.13819755613803864,0.057733338326215744,-0.014369618147611618
1761315655653870300,0.103870361328125,-0.12274748831987381,0.06522294878959656,0.00833835732191801
1761315655663918600,0.113918701171875,-0.10768571496009827,0.07783620804548264,0.04637069255113602
1761315655673965600,0.123965576171875,-0.08058219403028488,0.05343632772564888,0.08023545145988464
1761315655684012300,0.13401220703125,-0.039316512644290924,0.0310513935983181,0.09804480522871017
1761315655694060300,0.144060302734375,-0.01467801257967949,0.07109441608190536,0.08446987718343735
1761315655704107300,0.154107177734375,-0.016684969887137413,-0.017488446086645126,-0.01697365753352642
1761315655714154500,0.164154541015625,-0.05216972902417183,-0.03630048409104347,-0.08718603104352951
1761315655724202800,0.17420263671875,-0.018906844779849052,0.12795743346214294,-0.04476694017648697
1761315655734249500,0.18424951171875,0.041192710399627686,0.28820621967315674,0.019663715735077858
1761315655744296400,0.19429638671875,0.07952012866735458,0.6254407167434692,0.11684565991163254
1761315655754343700,0.20434375,0.11708348244428635,1.0566259622573853,0.22298194468021393
1761315655764391700,0.2143916015625,0.1380087286233902,1.2506904602050781,0.3597816228866577
1761315655774438700,0.224438720703125,0.11434175819158554,0.9890210628509521,0.5008090138435364
1761315655784485600,0.234485595703125,0.05150526762008667,0.4579574465751648,0.6333969235420227
1761315655794533600,0.24453369140625,-0.1277981698513031,-0.1392926424741745,0.7898456454277039
1761315655804580600,0.25458056640625,-0.3818264603614807,-0.7047008872032166,0.916479229927063
1761315655814627600,0.264627685546875,-0.5808098912239075,-1.262040615081787,0.9439736604690552
1761315655824675600,0.274675537109375,-0.6982579231262207,-1.8089979887008667,0.8340564966201782
1761315655834722600,0.28472265625,-0.616263210773468,-2.3228278160095215,0.6847612857818604
1761315655844769800,0.294769775390625,-0.5170322060585022,-2.3933796882629395,0.5798247456550598
1761315655854817500,0.304817626953125,-0.4591508209705353,-2.2324540615081787,0.4247068166732788
1761315655864864500,0.314864501953125,-0.4088815152645111,-2.039125919342041,0.20987732708454132
1761315655874911500,0.324911376953125,-0.3313955068588257,-1.8674417734146118,0.001389637473039329
1761315655884958700,0.334958740234375,-0.1741347759962082,-1.3928897380828857,-0.1676606386899948
1761315655895006700,0.3450068359375,-0.23817741870880127,-1.2727992534637451,-0.2900209128856659
1761315655905053700,0.3550537109375,-0.7125117182731628,-1.1241525411605835,-0.40639224648475647
1761315655915100700,0.3651005859375,-0.7126363515853882,-1.0920206308364868,-0.6917028427124023
1761315655925148700,0.375148681640625,-0.6003132462501526,-1.1314489841461182,-1.0991536378860474
1761315655935195600,0.385195556640625,-0.4785303771495819,-0.37079378962516785,-1.8307032585144043
1761315655945242600,0.39524267578125,-0.09971380978822708,0.4142232835292816,-2.0590293407440186
1761315655955290600,0.40529052734375,0.20334646105766296,0.8027420043945312,-2.148143768310547
1761315655965337900,0.415337890625,0.37145477533340454,0.87733393907547,-2.074986457824707
1761315655975384800,0.425384765625,0.39502453804016113,0.8800298571586609,-1.9430385828018188
1761315655985432600,0.4354326171875,0.31859663128852844,0.8171364068984985,-1.842816948890686
1761315655995479600,0.4454794921875,0.1785079538822174,0.8040557503700256,-1.7772248983383179
1761315656005526500,0.455526611328125,-0.01170246209949255,1.0891908407211304,-1.6331459283828735
1761315656015574800,0.46557470703125,-0.20619924366474152,1.5293484926223755,-1.3787297010421753
1761315656025621800,0.475621826171875,-0.34000256657600403,1.5577806234359741,-1.077937364578247
1761315656035668700,0.485668701171875,-0.2716373801231384,1.2342523336410522,-0.7085073590278625
1761315656045715500,0.495715576171875,-0.14765337109565735,1.0580986738204956,-0.4366271197795868
1761315656055763700,0.505763671875,0.10099559277296066,0.6820054650306702,-0.17819583415985107
1761315656065810700,0.515810791015625,0.35856640338897705,0.5831488966941833,-0.06472573429346085
1761315656075857700,0.525857666015625,0.5839388370513916,0.4635191857814789,-0.09317122399806976
1761315656085905700,0.53590576171875,0.7038489580154419,0.35184353590011597,-0.26369449496269226
1761315656095952600,0.54595263671875,0.6979266405105591,0.29840558767318726,-0.4700431227684021
1761315656105999600,0.55599951171875,0.5583482384681702,0.37877899408340454,-0.6140056252479553
1761315656116047600,0.566047607421875,0.300961971282959,0.6207737922668457,-0.6410316824913025
1761315656126094600,0.576094482421875,0.041014544665813446,0.7591854333877563,-0.5504716634750366
1761315656136141600,0.5861416015625,-0.12832628190517426,0.8205902576446533,-0.3677907884120941
1761315656146189600,0.596189453125,-0.20569004118442535,0.875996470451355,-0.11322349309921265
1761315656156236500,0.606236572265625,-0.23477815091609955,0.7593324780464172,0.16942311823368073
1761315656166283500,0.616283447265625,-0.24654453992843628,0.4650763273239136,0.4399603307247162
1761315656176330500,0.62633056640625,-0.19895358383655548,0.11124583333730698,0.6890630722045898
1761315656186378800,0.636378662109375,-0.14977511763572693,-0.13522493839263916,0.886078417301178
1761315656196425700,0.64642578125,-0.10937123000621796,-0.30769363045692444,1.0064104795455933
1761315656206472700,0.65647265625,-0.12050404399633408,-0.3483523726463318,1.0783467292785645
1761315656216520400,0.6665205078125,-0.15196342766284943,-0.2855678200721741,1.0858848094940186
1761315656226567700,0.676567626953125,-0.18798215687274933,-0.12767434120178223,1.0231760740280151
1761315656236614700,0.68661474609375,-0.17983554303646088,0.08327438682317734,0.9108290672302246
1761315656246662700,0.69666259765625,-0.14546798169612885,0.3538818955421448,0.8312364816665649
1761315656256709600,0.706709716796875,-0.11544723063707352,0.6525703072547913,0.8219454884529114
1761315656266756600,0.716756591796875,-0.10014630854129791,0.9404242038726807,0.8536632061004639
1761315656276804600,0.7268046875,-0.10665827244520187,1.1032747030258179,0.8415823578834534
1761315656286851600,0.7368515625,-0.12722612917423248,1.1361305713653564,0.8002319931983948
1761315656296898600,0.746898681640625,-0.08556869626045227,0.585859477519989,0.5743032097816467
1761315656306946800,0.75694677734375,0.0520501509308815,0.0842757299542427,0.3526592552661896
1761315656316993800,0.766993896484375,0.12048619985580444,-0.02707316353917122,0.21123021841049194
1761315656327040800,0.777040771484375,0.08591198176145554,0.16169436275959015,0.10974540561437607
1761315656337087700,0.787087646484375,0.024272583425045013,0.42890822887420654,0.027577565982937813
1761315656347135500,0.797135498046875,-0.049502305686473846,0.6234942078590393,-0.04890123009681702
1761315656357182700,0.8071826171875,-0.08370155096054077,0.5973353385925293,-0.14036323130130768
1761315656367229700,0.817229736328125,-0.06722564250230789,0.41596898436546326,-0.2600520849227905
1761315656377277700,0.827277587890625,-0.03337952867150307,0.14960919320583344,-0.3773936331272125
1761315656387324700,0.83732470703125,-0.012367187067866325,-0.11675883829593658,-0.4627697765827179
1761315656397371600,0.84737158203125,-0.03218190371990204,-0.34174296259880066,-0.4933468699455261
1761315656407419600,0.857419677734375,-0.07743007689714432,-0.5241178274154663,-0.4599127471446991
1761315656417466600,0.867466552734375,-0.17061035335063934,-0.6242446899414062,-0.3836059868335724
1761315656427513600,0.877513671875,-0.27169328927993774,-0.5384405851364136,-0.2530362606048584
1761315656437561900,0.887561767578125,-0.2372751384973526,-0.3435227572917938,-0.0023465112317353487
1761315656447608800,0.89760888671875,-0.0737951248884201,-0.3363138437271118,0.2546389400959015
1761315656457655600,0.907655517578125,0.05966838821768761,-0.5724712610244751,0.4152515232563019
1761315656467703600,0.91770361328125,-0.06241064518690109,-0.8378312587738037,0.4625633955001831
1761315656477750500,0.92775048828125,-0.27795466780662537,-1.1079245805740356,0.495599627494812
1761315656487797800,0.9377978515625,-0.39477527141571045,-1.5293666124343872,0.6907957792282104
1761315656497844700,0.9478447265625,-0.4365759789943695,-2.130664348602295,1.0095300674438477
1761315656507892700,0.957892822265625,-0.5654916167259216,-2.690549850463867,1.3781334161758423
1761315656517939500,0.967939453125,-0.7680562138557434,-2.9757943153381348,1.6799448728561401
1761315656527986400,0.977986328125,-0.8889381289482117,-3.2068464756011963,1.8203752040863037
1761315656538034700,0.98803466796875,-0.9011492729187012,-2.223327398300171,1.6283639669418335
1761315656548081700,0.99808154296875,-0.7515738606452942,-1.0244981050491333,1.6118444204330444
1761315656558128600,1.008128662109375,-0.4978223145008087,-0.3293296992778778,1.782902717590332
1761315656568176600,1.0181767578125,-0.3559626340866089,-0.5099338293075562,1.6310838460922241
1761315656578223600,1.0282236328125,-0.22596308588981628,-0.9132064580917358,1.4651745557785034
1761315656588270600,1.0382705078125,-0.10958508402109146,-1.107451319694519,1.3958133459091187
1761315656598318600,1.048318603515625,0.0095658078789711,-1.353053331375122,1.420971393585205
1761315656608365600,1.058365478515625,0.17577022314071655,-1.9250622987747192,1.538055658340454
1761315656618412800,1.068412841796875,0.22992055118083954,-1.8499475717544556,1.6691538095474243
1761315656628460500,1.07846044921875,0.1710689514875412,-1.806744933128357,1.8351728916168213
1761315656638507500,1.088507568359375,-0.0006679208017885685,-1.3492764234542847,2.1125848293304443
1761315656648554500,1.098554443359375,-0.24537619948387146,-0.6988901495933533,2.3777732849121094
1761315656658602800,1.108602783203125,-0.3177366852760315,-0.4465668499469757,2.511610746383667
1761315656668649700,1.118649658203125,-0.30021414160728455,-0.43709370493888855,2.4813034534454346
1761315656678696700,1.12869677734375,-0.3706851303577423,-0.4572834074497223,2.293595314025879
1761315656688743700,1.13874365234375,-0.4930797517299652,-0.42897745966911316,1.9470021724700928
1761315656698791700,1.148791748046875,-0.6533243060112,-0.34070804715156555,1.5247845649719238
1761315656708838700,1.158838623046875,-0.8339651823043823,-0.2707580029964447,1.1225234270095825
1761315656718885600,1.1688857421875,-1.0103354454040527,-0.25347355008125305,0.7597977519035339
1761315656728934000,1.178933837890625,-1.1822768449783325,-0.3480226993560791,0.42199864983558655
1761315656738980900,1.18898095703125,-1.3262251615524292,-0.4349416196346283,0.11520994454622269
1761315656749027800,1.19902783203125,-1.3201489448547363,-0.6390779614448547,-0.16031937301158905
1761315656759075800,1.209075927734375,-1.1885170936584473,-0.9149724245071411,-0.38678818941116333
1761315656769122800,1.219122802734375,-1.0305697917938232,-1.1828904151916504,-0.6176509857177734
1761315656779169800,1.229169677734375,-0.8487409353256226,-1.4723751544952393,-0.9216923713684082
1761315656789218000,1.239218017578125,-0.6474735736846924,-1.7990286350250244,-1.304499626159668
1761315656799265000,1.24926513671875,-0.4335381090641022,-2.040062189102173,-1.7409470081329346
1761315656809311700,1.259311767578125,-0.26761573553085327,-1.948179841041565,-2.204054117202759
1761315656819359700,1.26935986328125,-0.13936135172843933,-1.605304479598999,-2.717700719833374
1761315656829407000,1.279406982421875,-0.05692000687122345,-1.1904373168945312,-3.2916548252105713
1761315656839454000,1.289453857421875,-0.01810550130903721,-0.9121395945549011,-3.9255003929138184
1761315656849502000,1.299501953125,0.017483118921518326,-0.8369633555412292,-4.521195411682129
1761315656859549000,1.309548828125,0.04477812349796295,-0.9020813703536987,-4.99964714050293
1761315656869596000,1.319595947265625,0.05865372717380524,-1.2062028646469116,-5.355052471160889
1761315656879643000,1.329642822265625,0.11238992214202881,-1.7103134393692017,-5.556554317474365
1761315656889691000,1.33969091796875,0.2303631603717804,-2.2965445518493652,-5.659492015838623
1761315656899737900,1.34973779296875,0.39442214369773865,-2.8655896186828613,-5.792322635650635
1761315656909784800,1.359784912109375,0.5710347294807434,-3.36132550239563,-6.044254779815674
1761315656919832800,1.369832763671875,0.706982433795929,-3.507007598876953,-6.224008560180664
1761315656929879800,1.3798798828125,0.7097971439361572,-3.158040761947632,-5.980103492736816
1761315656939926800,1.3899267578125,0.6632253527641296,-2.472529649734497,-5.173763275146484
1761315656949974800,1.399974853515625,0.6731024980545044,-1.8533374071121216,-3.9712395668029785
1761315656960022000,1.41002197265625,0.6572937369346619,-1.2631250619888306,-2.511944055557251
1761315656970069000,1.420069091796875,0.5020756125450134,-0.4749729037284851,-0.9619050025939941
1761315656980116700,1.43011669921875,0.18942691385746002,0.425552636384964,0.4451788067817688
1761315656990163700,1.440163818359375,-0.21117322146892548,1.205432415008545,1.6386922597885132
1761315657000211000,1.4502109375,-0.5973970890045166,1.6392669677734375,2.6309900283813477
1761315657010259000,1.460259033203125,-0.914840579032898,1.8808335065841675,3.5186781883239746
1761315657020306000,1.470305908203125,-1.1356182098388672,1.9523799419403076,4.313477039337158
1761315657030353000,1.480352783203125,-1.2961338758468628,1.9446700811386108,4.971130847930908
1761315657040401000,1.49040087890625,-1.4178261756896973,1.945197582244873,5.397620677947998
1761315657050448000,1.50044775390625,-1.5224807262420654,1.9345852136611938,5.6006903648376465
1761315657060494800,1.510494873046875,-1.5650500059127808,1.8783732652664185,5.619333744049072
1761315657070541800,1.520541748046875,-1.5435892343521118,1.850669026374817,5.467733860015869
1761315657080589800,1.53058984375,-1.5029027462005615,1.816519021987915,5.1637139320373535
1761315657090637000,1.540636962890625,-1.434511661529541,1.7955594062805176,4.796295642852783
1761315657100684000,1.55068408203125,-1.3436262607574463,1.8029505014419556,4.467719078063965
1761315657110731800,1.560731689453125,-1.2182809114456177,1.8328777551651,4.235404014587402
1761315657120778800,1.57077880859375,-1.031827688217163,1.8680140972137451,4.09937047958374
1761315657130826000,1.580825927734375,-0.7732743620872498,1.8662889003753662,4.014460563659668
1761315657140874000,1.5908740234375,-0.5396371483802795,1.7567895650863647,3.9082961082458496
1761315657150921000,1.6009208984375,-0.46680232882499695,1.5585249662399292,3.866145610809326
1761315657160968000,1.610968017578125,-0.5952892303466797,1.3939059972763062,3.9622321128845215
1761315657171016000,1.621015869140625,-0.8652679324150085,1.320621371269226,4.09412956237793
1761315657181063000,1.63106298828125,-1.1360794305801392,1.165135383605957,4.073925971984863
1761315657191110000,1.64110986328125,-1.3983463048934937,0.8391348719596863,3.836010456085205
1761315657201158000,1.651157958984375,-1.5800271034240723,0.42126813530921936,3.4325501918792725
1761315657211205000,1.661205078125,-1.64190673828125,-0.0011062771081924438,2.9591498374938965
1761315657221251800,1.671251953125,-1.5676705837249756,-0.32053911685943604,2.464752674102783
1761315657231299800,1.6812998046875,-1.4057605266571045,-0.4600831866264343,1.9765726327896118
1761315657241346800,1.691346923828125,-1.193395733833313,-0.405680388212204,1.494873285293579
1761315657251393800,1.701393798828125,-0.940089225769043,-0.208909273147583,0.997247040271759
1761315657261441000,1.71144091796875,-0.6564084887504578,0.08151642978191376,0.47617000341415405
1761315657271489000,1.721489013671875,-0.331071674823761,0.3687593936920166,-0.0833074077963829
1761315657281535700,1.73153564453125,0.0029353362042456865,0.6065836548805237,-0.6771856546401978
1761315657291582700,1.741582763671875,0.31074297428131104,0.759125292301178,-1.2637019157409668
1761315657301631000,1.751630859375,0.5590531826019287,0.7873721122741699,-1.8082083463668823
1761315657311678000,1.761677978515625,0.7493775486946106,0.715348482131958,-2.2565512657165527
1761315657321725000,1.771724853515625,0.8993921279907227,0.5509981513023376,-2.5679144859313965
1761315657331773000,1.78177294921875,1.0306973457336426,0.2756619453430176,-2.7753989696502686
1761315657341820000,1.79181982421875,1.130602478981018,-0.0760878399014473,-2.9173333644866943
1761315657351867000,1.801866943359375,1.1904932260513306,-0.5133988857269287,-3.025287628173828
1761315657361915000,1.811914794921875,1.2294515371322632,-1.000387191772461,-3.106121778488159
1761315657371961900,1.8219619140625,1.28922700881958,-1.4799820184707642,-3.1962521076202393
1761315657382008800,1.8320087890625,1.368153691291809,-1.9079469442367554,-3.3129048347473145
1761315657392056800,1.842056884765625,1.5119627714157104,-2.2348690032958984,-3.4406516551971436
1761315657402103800,1.852103759765625,1.6774334907531738,-2.382412910461426,-3.62585186958313
1761315657412150800,1.86215087890625,1.8791855573654175,-2.343151569366455,-3.904945135116577
1761315657422198800,1.87219873046875,2.1844394207000732,-2.1709930896759033,-4.308310508728027
1761315657432246000,1.88224609375,2.5414745807647705,-2.053842306137085,-4.887180805206299
1761315657442293000,1.89229296875,2.7778823375701904,-2.0898430347442627,-5.593923091888428
1761315657452340700,1.9023408203125,2.782259464263916,-2.195122480392456,-6.154211044311523
1761315657462387700,1.9123876953125,2.5631399154663086,-2.380624771118164,-6.456226825714111
1761315657472435000,1.92243505859375,2.2274091243743896,-2.6086812019348145,-6.410030364990234
1761315657482483000,1.93248291015625,1.8205914497375488,-2.529487371444702,-5.813324928283691
1761315657492530000,1.942530029296875,1.4014676809310913,-2.1889240741729736,-4.819797992706299
1761315657502577000,1.952576904296875,1.011602520942688,-1.6906734704971313,-3.6118481159210205
1761315657512623900,1.962623779296875,0.5670226812362671,-0.9603497385978699,-2.359473466873169
1761315657522671900,1.972671875,0.11591807752847672,-0.31634917855262756,-1.2784411907196045
1761315657532718800,1.98271875,-0.3124346137046814,0.19110843539237976,-0.2602451741695404
1761315657542765800,1.992765869140625,-0.6937774419784546,0.5266949534416199,0.7915716171264648
1761315657552813800,2.002813720703125,-0.9947947859764099,0.7563127279281616,1.9003864526748657
1761315657562861000,2.012861083984375,-1.1961843967437744,0.9525613188743591,2.9559812545776367
1761315657572908000,2.022907958984375,-1.3191637992858887,1.1219059228897095,3.838599681854248
1761315657582955800,2.032955810546875,-1.4048694372177124,1.2181661128997803,4.448853492736816
1761315657593002800,2.043002685546875,-1.4420892000198364,1.2789865732192993,4.772913932800293
1761315657603050000,2.053050048828125,-1.4267706871032715,1.245307207107544,4.873076438903809
1761315657613098000,2.063097900390625,-1.3808857202529907,1.1641560792922974,4.8589372634887695
1761315657623145000,2.07314501953125,-1.3249738216400146,1.033585548400879,4.782368183135986
1761315657633192000,2.08319189453125,-1.2897590398788452,0.9342688322067261,4.6901164054870605
1761315657643240000,2.093239990234375,-1.3015975952148438,0.9307880997657776,4.602685928344727
1761315657653287000,2.103286865234375,-1.3360553979873657,0.9894497990608215,4.47977876663208
1761315657663334000,2.113333984375,-1.3387407064437866,1.0795022249221802,4.320786952972412
1761315657673382000,2.1233818359375,-1.3096333742141724,1.1996209621429443,4.151376724243164
1761315657683429000,2.13342919921875,-1.244200348854065,1.284839153289795,3.9586586952209473
1761315657693475800,2.143475830078125,-1.1423554420471191,1.3246363401412964,3.7294094562530518
1761315657703523800,2.15352392578125,-1.0537867546081543,1.3893218040466309,3.4915037155151367
1761315657713570800,2.16357080078125,-1.0045232772827148,1.51534903049469,3.2720301151275635
1761315657723617000,2.173616943359375,-1.0048418045043945,1.6365649700164795,3.060621500015259
1761315657733664000,2.1836640625,-0.9833407998085022,1.7047219276428223,2.8828773498535156
1761315657743712300,2.193712158203125,-0.9112972617149353,1.666560173034668,2.725390672683716
1761315657753759200,2.20375927734375,-0.8017065525054932,1.4769343137741089,2.5374233722686768
1761315657763806200,2.21380615234375,-0.6769859194755554,1.1531703472137451,2.288485050201416
1761315657773854200,2.223854248046875,-0.5712371468544006,0.7629421353340149,1.968876600265503
1761315657783901200,2.233901123046875,-0.5075055360794067,0.3975737392902374,1.6229013204574585
1761315657793948200,2.2439482421875,-0.47901666164398193,0.12306973338127136,1.268683910369873
1761315657803996200,2.25399609375,-0.45976492762565613,-0.04566522315144539,0.9073216915130615
1761315657814043100,2.264043212890625,-0.4403616786003113,-0.136916846036911,0.5222355127334595
1761315657824090400,2.27409033203125,-0.3844675123691559,-0.18709665536880493,0.10840237140655518
1761315657834138000,2.28413818359375,-0.29898136854171753,-0.17289428412914276,-0.31077224016189575
1761315657844185000,2.29418505859375,-0.17140157520771027,-0.0929507166147232,-0.7386964559555054
1761315657854232000,2.304232177734375,-0.027300329878926277,-0.014680941589176655,-1.1785573959350586
1761315657864280300,2.3142802734375,0.15133120119571686,0.05301181972026825,-1.596181035041809
1761315657874327300,2.324327392578125,0.3670879900455475,0.10388059169054031,-1.988740086555481
1761315657884374000,2.3343740234375,0.573383629322052,0.10465636849403381,-2.3548457622528076
1761315657894422000,2.344422119140625,0.7724666595458984,0.062002651393413544,-2.6878716945648193
1761315657904469200,2.35446923828125,0.9710657596588135,-0.0546824187040329,-2.979044198989868
1761315657914516200,2.36451611328125,1.1563231945037842,-0.25178325176239014,-3.256347179412842
1761315657924564200,2.374564208984375,1.2986537218093872,-0.487235426902771,-3.5213630199432373
1761315657934611200,2.384611083984375,1.3134227991104126,-0.7017282843589783,-3.7513420581817627
1761315657944658000,2.394657958984375,1.1594319343566895,-0.8275618553161621,-3.963060140609741
1761315657954706200,2.4047060546875,0.9001708030700684,-1.0270177125930786,-4.280675411224365
1761315657964753200,2.414753173828125,0.6516392827033997,-1.4694441556930542,-4.6913371086120605
1761315657974800100,2.424800048828125,0.4915710687637329,-1.994144082069397,-5.023219585418701
1761315657984847000,2.43484716796875,0.5330063700675964,-2.470857858657837,-5.1405415534973145
1761315657994895000,2.44489501953125,0.8773379325866699,-2.935788869857788,-5.078111171722412
1761315658004942000,2.454942138671875,1.5340231657028198,-3.2397897243499756,-4.993756294250488
1761315658014989000,2.464989013671875,2.25270676612854,-3.198211193084717,-5.048279285430908
1761315658025037000,2.475037109375,2.754183769226074,-2.7516582012176514,-5.177481174468994
1761315658035084300,2.485084228515625,2.8742504119873047,-1.956092357635498,-5.146441459655762
1761315658045131300,2.49513134765625,2.6140530109405518,-1.1442689895629883,-4.905278205871582
1761315658055179000,2.505178955078125,2.1240382194519043,-0.43465718626976013,-4.406296253204346
1761315658065226000,2.51522607421875,1.545142650604248,0.026973560452461243,-3.6173434257507324
1761315658075273000,2.52527294921875,0.9916616082191467,0.1913052499294281,-2.5042648315429688
1761315658085321200,2.5353212890625,0.523686945438385,0.13087892532348633,-1.151491403579712
1761315658095368200,2.5453681640625,0.1752549111843109,-0.06942248344421387,0.3349990248680115
1761315658105415200,2.555415283203125,-0.0752851665019989,-0.24390587210655212,1.7982531785964966
1761315658115463000,2.565462890625,-0.2730957269668579,-0.3028179109096527,3.02593731880188
1761315658125510100,2.57551025390625,-0.49474290013313293,-0.1457153856754303,3.938513994216919
1761315658135557000,2.58555712890625,-0.737980306148529,0.2372620850801468,4.485191345214844
1761315658145605000,2.595605224609375,-0.9149529337882996,0.8174969553947449,4.690154075622559
1761315658155652000,2.605652099609375,-0.9931247234344482,1.4833191633224487,4.634689807891846
1761315658165699300,2.61569921875,-0.9799522161483765,1.9949723482131958,4.475340843200684
1761315658175747000,2.6257470703125,-0.9205935001373291,2.1927709579467773,4.361659526824951
1761315658185794000,2.6357939453125,-0.8568768501281738,2.093369960784912,4.368117332458496
1761315658195841000,2.645841064453125,-0.8516181707382202,1.7918757200241089,4.510937690734863
1761315658205888000,2.655887939453125,-0.9141513705253601,1.361496090888977,4.721885681152344
1761315658215936300,2.665936279296875,-1.0020867586135864,0.8713279962539673,4.93590784072876
1761315658225983200,2.675983154296875,-1.1200448274612427,0.4139958322048187,5.0533671379089355
1761315658236030200,2.6860302734375,-1.2548402547836304,0.1898743361234665,4.997003078460693
1761315658246078200,2.696078125,-1.4071285724639893,0.1992449313402176,4.750415802001953
1761315658256125200,2.706125244140625,-1.5269044637680054,0.41584861278533936,4.354724407196045
1761315658266172200,2.716172119140625,-1.5818926095962524,0.6875357627868652,3.879101037979126
1761315658276220200,2.72622021484375,-1.5727603435516357,0.9281571507453918,3.388075351715088
1761315658286267100,2.73626708984375,-1.5137947797775269,1.0633176565170288,2.930030584335327
1761315658296314000,2.746314208984375,-1.4128096103668213,1.0685217380523682,2.4870848655700684
1761315658306362000,2.756362060546875,-1.29552161693573,0.9493487477302551,2.0894742012023926
1761315658316409000,2.7664091796875,-1.1654994487762451,0.7610174417495728,1.745025396347046
1761315658326456000,2.7764560546875,-1.0625717639923096,0.5504043102264404,1.433510661125183
1761315658336504300,2.78650439453125,-1.021599531173706,0.3718968629837036,1.133228063583374
1761315658346551300,2.79655126953125,-0.9992193579673767,0.2679166793823242,0.8062552213668823
1761315658356598000,2.806597900390625,-0.9691759943962097,0.21065311133861542,0.44299712777137756
1761315658366646000,2.81664599609375,-0.9201546311378479,0.20354565978050232,0.07400444895029068
1761315658376693200,2.826693359375,-0.8384661674499512,0.2060442417860031,-0.2768057584762573
1761315658386740200,2.836740234375,-0.713331401348114,0.1690681129693985,-0.5910323858261108
1761315658396788200,2.846788330078125,-0.5530786514282227,0.07520527392625809,-0.861721396446228
1761315658406835200,2.856835205078125,-0.36611565947532654,-0.1278572976589203,-1.072275161743164
1761315658416882000,2.8668818359375,-0.13979145884513855,-0.4253118932247162,-1.2206803560256958
1761315658426930200,2.87693017578125,0.09564317017793655,-0.7852596640586853,-1.3239479064941406
1761315658436977200,2.88697705078125,0.3240390717983246,-1.1220347881317139,-1.4301565885543823
1761315658447024000,2.897024169921875,0.5465334057807922,-1.3595764636993408,-1.5856740474700928
1761315658457071000,2.907071044921875,0.7349698543548584,-1.4974126815795898,-1.7964088916778564
1761315658467119000,2.917119140625,0.8975380063056946,-1.5650182962417603,-2.0375523567199707
1761315658477166000,2.927166015625,1.041638970375061,-1.6084145307540894,-2.2915477752685547
1761315658487213000,2.937213134765625,1.1530097723007202,-1.687547206878662,-2.5408337116241455
1761315658497261000,2.947260986328125,1.2519594430923462,-1.8220362663269043,-2.798617124557495
1761315658507308300,2.957308349609375,1.3379931449890137,-1.9766141176223755,-3.082808494567871
1761315658517355300,2.967355224609375,1.4242875576019287,-2.1387550830841064,-3.4165167808532715
1761315658527403000,2.977403076171875,1.5304137468338013,-2.2845864295959473,-3.8047597408294678
1761315658537450000,2.987449951171875,1.6223266124725342,-2.352320909500122,-4.238826751708984
1761315658547497000,2.9974970703125,1.6983110904693604,-2.4256789684295654,-4.719254493713379
1761315658557545200,3.007545166015625,1.8432376384735107,-2.5199031829833984,-5.229275703430176
1761315658567592200,3.01759228515625,2.114429235458374,-2.5393052101135254,-5.675135612487793
1761315658577639200,3.02763916015625,2.433380603790283,-2.461252212524414,-6.018192768096924
1761315658587687200,3.037687255859375,2.747819662094116,-2.3495168685913086,-6.080000877380371
1761315658597734100,3.047734130859375,3.0217387676239014,-2.1399502754211426,-5.667851448059082
1761315658607781000,3.057781005859375,3.0995635986328125,-1.7999600172042847,-4.9074015617370605
1761315658617829000,3.0678291015625,2.9551374912261963,-1.447429895401001,-4.1205010414123535
1761315658627876000,3.0778759765625,2.698824167251587,-1.1885168552398682,-3.5709805488586426
1761315658637923300,3.08792333984375,2.3940203189849854,-0.8517228364944458,-3.173337936401367
1761315658647971000,3.09797119140625,2.0293025970458984,-0.3911390006542206,-2.6828689575195312
1761315658658018000,3.10801806640625,1.566747784614563,-0.036310337483882904,-1.9240961074829102
1761315658668065000,3.11806494140625,1.0029454231262207,0.23509933054447174,-0.8767645359039307
1761315658678113300,3.12811328125,0.4065728187561035,0.4576285481452942,0.25755324959754944
1761315658688160300,3.13816015625,-0.1341783106327057,0.6742578148841858,1.300611972808838
1761315658698207200,3.148207275390625,-0.5573726892471313,0.9172347784042358,2.2120280265808105
1761315658708254200,3.158254150390625,-0.8461291193962097,1.1782562732696533,2.9408345222473145
1761315658718302200,3.16830224609375,-1.0182799100875854,1.4322006702423096,3.4868271350860596
1761315658728349200,3.17834912109375,-1.096689224243164,1.669563889503479,3.859663724899292
1761315658738396200,3.188396240234375,-1.1184903383255005,1.7996071577072144,4.0699238777160645
1761315658748444200,3.198444091796875,-1.1146575212478638,1.8071949481964111,4.178305625915527
1761315658758491100,3.2084912109375,-1.1226774454116821,1.7315500974655151,4.265393257141113
1761315658768538000,3.2185380859375,-1.1339044570922852,1.5831621885299683,4.384335041046143
1761315658778586000,3.228586181640625,-1.148252010345459,1.4348340034484863,4.527441024780273
1761315658788633000,3.238633056640625,-1.1692979335784912,1.2791639566421509,4.632210731506348
1761315658798680000,3.24868017578125,-1.1876952648162842,1.0923842191696167,4.636107444763184
1761315658808728300,3.258728271484375,-1.1882569789886475,0.9085137248039246,4.524441242218018
1761315658818775300,3.268775390625,-1.1517785787582397,0.7749439477920532,4.353752613067627
1761315658828822000,3.278822021484375,-1.084218978881836,0.7100884914398193,4.124281406402588
1761315658838870000,3.2888701171875,-1.0001589059829712,0.7468715310096741,3.8450753688812256
1761315658848917200,3.298917236328125,-0.904381513595581,0.8589586615562439,3.5085110664367676
1761315658858964200,3.308964111328125,-0.8126774430274963,1.0005791187286377,3.1297872066497803
1761315658869011200,3.31901123046875,-0.729910671710968,1.1327486038208008,2.722564220428467
1761315658879059200,3.32905908203125,-0.6727136969566345,1.1938413381576538,2.3213112354278564
1761315658889106000,3.33910595703125,-0.6156765222549438,1.1725571155548096,1.935185194015503
1761315658899153200,3.349153076171875,-0.5751512050628662,1.0480787754058838,1.5814719200134277
1761315658909201200,3.359201171875,-0.532666027545929,0.8428529500961304,1.2679312229156494
1761315658919248100,3.369248046875,-0.4606426954269409,0.6057205200195312,1.004043698310852
1761315658929295000,3.379295166015625,-0.35719674825668335,0.3393314480781555,0.7843973636627197
1761315658939343000,3.389343017578125,-0.25210440158843994,0.11471832543611526,0.621342658996582
1761315658949390000,3.39939013671875,-0.13634425401687622,0.0018666095566004515,0.419504314661026
1761315658959437000,3.40943701171875,-0.0013491574209183455,-0.13594505190849304,0.09767569601535797
1761315658969485000,3.419485107421875,0.10981518030166626,-0.3025130033493042,-0.2908425033092499
1761315658979532300,3.4295322265625,0.21797999739646912,-0.45970526337623596,-0.7458438277244568
1761315658989579300,3.439579345703125,0.3183145821094513,-0.5500026941299438,-1.2743436098098755
1761315658999627000,3.449626953125,0.39024975895881653,-0.6069589257240295,-1.8362804651260376
1761315659009674000,3.459674072265625,0.42856812477111816,-0.6495590806007385,-2.3454108238220215
1761315659019721000,3.469720947265625,0.4821823537349701,-0.6524949669837952,-2.771973133087158
1761315659029769200,3.479769287109375,0.5633280873298645,-0.624940812587738,-3.1224069595336914
1761315659039816200,3.489816162109375,0.6520984172821045,-0.5613061785697937,-3.4165403842926025
1761315659049863200,3.49986328125,0.7508383393287659,-0.49739351868629456,-3.610804557800293
1761315659059911200,3.5099111328125,0.8835060596466064,-0.4510742425918579,-3.709028959274292
1761315659069958100,3.519958251953125,1.016164779663086,-0.5146004557609558,-3.820768117904663
1761315659080005000,3.530005126953125,1.104636311531067,-0.7235358357429504,-3.988116502761841
1761315659090052000,3.540052001953125,1.196231722831726,-0.9313737154006958,-4.131432056427002
1761315659100100000,3.55010009765625,1.3203760385513306,-1.075548529624939,-4.249830722808838
1761315659110147300,3.560147216796875,1.4764189720153809,-1.1925570964813232,-4.346529960632324
1761315659120194300,3.5701943359375,1.6609855890274048,-1.3108656406402588,-4.487410545349121
1761315659130242000,3.580241943359375,1.8919503688812256,-1.4566221237182617,-4.721430778503418
1761315659140289000,3.5902890625,2.278442859649658,-1.8444797992706299,-5.016329288482666
1761315659150336000,3.6003359375,2.877394199371338,-2.4062204360961914,-5.230257987976074
1761315659160384300,3.61038427734375,3.5225303173065186,-2.835300922393799,-5.278407096862793
1761315659170431200,3.62043115234375,3.796234607696533,-3.029756546020508,-5.160634994506836
1761315659180478200,3.630478271484375,3.534456729888916,-2.5911762714385986,-4.817193508148193
1761315659190526200,3.640526123046875,2.857163906097412,-1.5944215059280396,-4.223996639251709
1761315659200573200,3.6505732421875,2.1199309825897217,-0.6404926180839539,-3.2875938415527344
1761315659210620200,3.6606201171875,1.4085155725479126,0.07112530618906021,-1.9116604328155518
1761315659220668200,3.670668212890625,0.9280391931533813,0.40713101625442505,-0.3000018894672394
1761315659230715100,3.680715087890625,0.6569672226905823,0.5075811743736267,1.1699650287628174
1761315659240762000,3.69076220703125,0.3181915581226349,0.6666107773780823,2.3529677391052246
1761315659250810000,3.70081005859375,-0.08305573463439941,0.9472882747650146,3.2621443271636963
1761315659260857000,3.710857177734375,-0.4935916066169739,1.2686964273452759,3.931947946548462
1761315659270904000,3.720904052734375,-0.8464471101760864,1.5251846313476562,4.437049388885498
1761315659280951000,3.730950927734375,-1.087751865386963,1.6230006217956543,4.779825687408447
1761315659290999300,3.740999267578125,-1.1775963306427002,1.565264105796814,4.932848930358887
1761315659301046000,3.7510458984375,-1.161645770072937,1.3781507015228271,4.947091579437256
1761315659311093000,3.761093017578125,-1.1027697324752808,1.0792156457901,4.923859596252441
1761315659321141200,3.771141357421875,-1.0153218507766724,0.6622104644775391,4.933840274810791
1761315659331188200,3.781188232421875,-0.9375959634780884,0.13705985248088837,4.9974565505981445
1761315659341235200,3.791235107421875,-0.9573299884796143,-0.3643185794353485,5.0392069816589355
1761315659351283200,3.801283203125,-1.0649163722991943,-0.4938778877258301,5.012991428375244
1761315659361330000,3.811329833984375,-1.2400662899017334,-0.22512446343898773,4.853945732116699
1761315659371377200,3.821377197265625,-1.421267032623291,0.3525063991546631,4.510447978973389
1761315659381425200,3.831425048828125,-1.5126852989196777,1.022812843322754,4.0168070793151855
1761315659391472000,3.84147216796875,-1.5042895078659058,1.5653538703918457,3.4704549312591553
1761315659401519000,3.85151904296875,-1.4171867370605469,1.870681881904602,2.9200363159179688
1761315659411567000,3.861567138671875,-1.3486289978027344,1.9931256771087646,2.4025025367736816
1761315659421614000,3.871614013671875,-1.300459384918213,1.980169653892517,1.9602625370025635
1761315659431661000,3.8816611328125,-1.2462341785430908,1.8143562078475952,1.6136000156402588
1761315659441709000,3.891708984375,-1.1844078302383423,1.5346676111221313,1.3317898511886597
1761315659451756300,3.90175634765625,-1.126664400100708,1.2133105993270874,1.0942082405090332
1761315659461803300,3.91180322265625,-1.0751250982284546,0.8814354538917542,0.9007958769798279
1761315659471850200,3.921850341796875,-1.022274374961853,0.5678056478500366,0.7026316523551941
1761315659481898000,3.93189794921875,-0.9494147896766663,0.34405964612960815,0.47864487767219543
1761315659491945000,3.941945068359375,-0.8677958250045776,0.2563513517379761,0.23674170672893524
1761315659501992200,3.9519921875,-0.7483751773834229,0.2891726791858673,-0.03954394534230232
1761315659512040200,3.962040283203125,-0.5575231909751892,0.3498517572879791,-0.34439173340797424
1761315659522087200,3.972087158203125,-0.33763155341148376,0.3968653380870819,-0.6471800804138184
1761315659532134100,3.982134033203125,-0.10926417261362076,0.44233188033103943,-0.9832643866539001
1761315659542182100,3.99218212890625,0.09083270281553268,0.43692007660865784,-1.3572072982788086
1761315659552229000,4.00222900390625,0.24437645077705383,0.39354756474494934,-1.7236796617507935
1761315659562276000,4.012276123046875,0.35311758518218994,0.32619595527648926,-2.0895307064056396
1761315659572324000,4.022323974609375,0.4308467209339142,0.25041329860687256,-2.4344964027404785
1761315659582371300,4.032371337890625,0.48407480120658875,0.1373879462480545,-2.7292377948760986
1761315659592418300,4.042418212890625,0.5369182825088501,-0.06426021456718445,-2.951922655105591
1761315659602466000,4.052466064453125,0.5975419878959656,-0.38798341155052185,-3.103731870651245
1761315659612513000,4.062512939453125,0.6555810570716858,-0.7763940095901489,-3.2058794498443604
1761315659622560000,4.07256005859375,0.7203992009162903,-1.209397315979004,-3.313438653945923
1761315659632608300,4.082608154296875,0.8246701955795288,-1.6066595315933228,-3.5103824138641357
1761315659642655200,4.0926552734375,0.9711339473724365,-1.8704088926315308,-3.85351824760437
1761315659652702200,4.1027021484375,1.1891295909881592,-1.9943619966506958,-4.337017059326172
1761315659662749000,4.1127490234375,1.4878166913986206,-1.9515361785888672,-4.939958095550537
1761315659672797200,4.122797119140625,1.7932978868484497,-1.7225538492202759,-5.62383508682251
1761315659682844200,4.13284423828125,2.0366334915161133,-1.1814708709716797,-6.300078868865967
1761315659692891100,4.14289111328125,2.1096973419189453,-0.4838273823261261,-6.940526962280273
1761315659702939100,4.152939208984375,1.9061686992645264,0.06629353761672974,-7.402819633483887
1761315659712986000,4.162986083984375,1.5275678634643555,0.3487611711025238,-7.380374908447266
1761315659723033000,4.173033203125,1.2049520015716553,0.26179805397987366,-6.751945495605469
1761315659733078300,4.183078369140625,1.0285847187042236,-0.2206740528345108,-5.48734188079834
1761315659743125200,4.193125244140625,0.9693458676338196,-0.9104311466217041,-3.777433156967163
1761315659753172200,4.203172119140625,0.9670257568359375,-1.48992919921875,-2.014061689376831
1761315659763220000,4.213219970703125,0.962286651134491,-1.788069248199463,-0.48897793889045715
1761315659773267200,4.22326708984375,0.8515250086784363,-1.651491641998291,0.6872612237930298
1761315659783314200,4.233314208984375,0.6501527428627014,-1.0990476608276367,1.5424376726150513
1761315659793362200,4.243362060546875,0.3496629297733307,-0.2168593406677246,2.163763999938965
1761315659803409200,4.2534091796875,0.05698365718126297,0.6779526472091675,2.672140121459961
1761315659813456400,4.263456298828125,-0.1886838972568512,1.2970385551452637,3.2307140827178955
1761315659823503400,4.27350341796875,-0.3685378134250641,1.546129822731018,3.850381851196289
1761315659833551000,4.283551025390625,-0.49655917286872864,1.319652795791626,4.448337554931641
1761315659843598000,4.29359814453125,-0.6265184879302979,0.8695399165153503,4.968405723571777
1761315659853645000,4.30364501953125,-0.7730461359024048,0.49830514192581177,5.354289531707764
1761315659863693300,4.313693359375,-0.900488018989563,0.25114166736602783,5.580140590667725
1761315659873740300,4.323740234375,-1.0057851076126099,0.18254505097866058,5.692602634429932
1761315659883787300,4.333787353515625,-1.0690157413482666,0.2645229995250702,5.664278507232666
1761315659893835000,4.3438349609375,-1.0694626569747925,0.43188750743865967,5.5118088722229
1761315659903882200,4.35388232421875,-1.025129795074463,0.6349548697471619,5.306664943695068
1761315659913929200,4.36392919921875,-0.9678856730461121,0.8391101360321045,5.117562294006348
1761315659923977200,4.373977294921875,-0.9103648662567139,0.9813830852508545,4.9761810302734375
1761315659934024200,4.384024169921875,-0.8543024063110352,0.9711421728134155,4.856227397918701
1761315659944071200,4.3940712890625,-0.7935868501663208,0.8338391780853271,4.714633464813232
1761315659954119200,4.404119140625,-0.7392599582672119,0.6191220879554749,4.555468559265137
1761315659964166100,4.414166259765625,-0.7124611139297485,0.41065704822540283,4.356790542602539
1761315659974213000,4.424213134765625,-0.7137253284454346,0.2816106379032135,4.109689712524414
1761315659984261400,4.434261474609375,-0.7084706425666809,0.19318623840808868,3.8100173473358154
1761315659994308400,4.444308349609375,-0.6920157670974731,0.17899984121322632,3.479271173477173
1761315660004355000,4.45435498046875,-0.668795108795166,0.2586081326007843,3.115642786026001
1761315660014402000,4.464402099609375,-0.6286357045173645,0.3442058563232422,2.7113702297210693
1761315660024450000,4.474449951171875,-0.5761956572532654,0.35781726241111755,2.2760114669799805
1761315660034497300,4.484497314453125,-0.493657648563385,0.3487912714481354,1.8655568361282349
1761315660044544300,4.494544189453125,-0.3859032094478607,0.32256898283958435,1.467010259628296
1761315660054592300,4.50459228515625,-0.27753838896751404,0.2701830267906189,1.0270600318908691
1761315660064639000,4.514638916015625,-0.11035766452550888,0.18129202723503113,0.5734955072402954
1761315660074686200,4.524686279296875,0.06349988281726837,0.040405746549367905,0.12459146231412888
1761315660084734200,4.534734130859375,0.22488397359848022,0.01649588532745838,-0.3088979125022888
1761315660094781200,4.54478125,0.3659449517726898,0.03781262785196304,-0.7610563039779663
1761315660104828200,4.554828125,0.463885635137558,0.04072372615337372,-1.2288587093353271
1761315660114876200,4.564876220703125,0.5194439888000488,0.07285662740468979,-1.684066891670227
1761315660124923100,4.574923095703125,0.56905198097229,0.11681023985147476,-2.110288619995117
1761315660134970000,4.58497021484375,0.6255611181259155,0.11091639846563339,-2.488457441329956
1761315660145018000,4.59501806640625,0.692545473575592,0.1090676337480545,-2.8221967220306396
1761315660155065000,4.605065185546875,0.8095836639404297,0.17159013450145721,-3.126833438873291
1761315660165112300,4.6151123046875,0.961166262626648,0.07930094748735428,-3.4561586380004883
1761315660175159300,4.6251591796875,1.113501787185669,-0.20979717373847961,-3.8456594944000244
1761315660185207000,4.63520703125,1.2230572700500488,-0.5087223649024963,-4.298163414001465
1761315660195254000,4.64525390625,1.2721065282821655,-0.77840656042099,-4.702290058135986
1761315660205301200,4.65530126953125,1.2853046655654907,-0.8774974346160889,-4.866934776306152
1761315660215349200,4.665349365234375,1.2197037935256958,-1.003237009048462,-4.877668380737305
1761315660225396200,4.675396240234375,1.1518491506576538,-1.2578482627868652,-4.853362083435059
1761315660235443200,4.685443115234375,1.1929446458816528,-1.5396604537963867,-4.839262008666992
1761315660245491200,4.6954912109375,1.2999168634414673,-1.864337682723999,-4.902159214019775
1761315660255538200,4.7055380859375,1.422467827796936,-2.059664249420166,-5.021264553070068
1761315660265585200,4.715585205078125,1.5190832614898682,-2.0865113735198975,-5.209898948669434
1761315660275633200,4.725633056640625,1.5105979442596436,-2.005478858947754,-5.35496187210083
1761315660285680400,4.735680419921875,1.4266196489334106,-1.7528910636901855,-5.281248569488525
1761315660295727400,4.745727294921875,1.3144508600234985,-1.3645232915878296,-4.935153007507324
1761315660305774300,4.7557744140625,1.206239104270935,-0.9497935175895691,-4.295526504516602
1761315660315822000,4.765822021484375,1.1507561206817627,-0.6582838892936707,-3.397756338119507
1761315660325869000,4.775869140625,1.0853925943374634,-0.34931644797325134,-2.308772325515747
1761315660335916300,4.785916259765625,0.9623002409934998,-0.042574092745780945,-1.1814632415771484
1761315660345964300,4.79596435546875,0.7406591773033142,0.1423230618238449,-0.16457056999206543
1761315660356011300,4.80601123046875,0.42621922492980957,0.26495441794395447,0.772286057472229
1761315660366058000,4.81605810546875,0.0706307590007782,0.33325251936912537,1.652140498161316
1761315660376103200,4.826103271484375,-0.29130640625953674,0.3900497555732727,2.472621202468872
1761315660386150100,4.836150146484375,-0.6290538311004639,0.4833778440952301,3.2499282360076904
1761315660396198400,4.846198486328125,-0.9326786994934082,0.6126279830932617,3.9408817291259766
1761315660406245000,4.8562451171875,-1.1653436422348022,0.7458499670028687,4.442200660705566
1761315660416292000,4.8662919921875,-1.2881265878677368,0.882929801940918,4.6863813400268555
1761315660426339000,4.876339111328125,-1.3433588743209839,0.9809045195579529,4.7044525146484375
1761315660436387000,4.886386962890625,-1.3582781553268433,1.0287591218948364,4.585203647613525
1761315660446434300,4.896434326171875,-1.3417359590530396,1.0520210266113281,4.410066604614258
1761315660456481300,4.906481201171875,-1.3107818365097046,1.0665912628173828,4.249416828155518
1761315660466529000,4.916529052734375,-1.2739284038543701,1.067477822303772,4.1143317222595215
1761315660476576000,4.926575927734375,-1.2304067611694336,1.0530996322631836,3.9722707271575928
1761315660486623200,4.936623291015625,-1.209018349647522,0.988960862159729,3.814750909805298
1761315660496671200,4.946671142578125,-1.2039633989334106,0.9749113917350769,3.60516357421875
1761315660506718200,4.95671826171875,-1.2064244747161865,1.0323964357376099,3.3430700302124023
1761315660516765200,4.96676513671875,-1.1618804931640625,1.1091927289962769,3.079087495803833
1761315660526813200,4.976813232421875,-1.0551880598068237,1.1225764751434326,2.80251145362854
1761315660536860200,4.986860107421875,-0.8874286413192749,1.057016372680664,2.49543833732605
1761315660546907100,4.9969072265625,-0.6876146197319031,0.915876567363739,2.151660442352295
1761315660556954000,5.0069541015625,-0.49823349714279175,0.7673600316047668,1.7570444345474243
1761315660567002400,5.01700244140625,-0.34494513273239136,0.6474283337593079,1.3159488439559937
1761315660577049300,5.02704931640625,-0.21825776994228363,0.532143235206604,0.8626260757446289
1761315660587096300,5.037096435546875,-0.10072208195924759,0.4468110501766205,0.4057866632938385
1761315660597144000,5.04714404296875,0.002638926263898611,0.37869057059288025,-0.048701491206884384
1761315660607191000,5.05719091796875,0.09296242892742157,0.28817373514175415,-0.48092615604400635
1761315660617238300,5.06723828125,0.16727900505065918,0.16649045050144196,-0.8810938000679016
1761315660627286300,5.077286376953125,0.24244938790798187,0.003319896524772048,-1.2578849792480469
1761315660637333200,5.087333251953125,0.30709949135780334,-0.14759930968284607,-1.5847870111465454
1761315660647380200,5.097380126953125,0.3701096177101135,-0.257851243019104,-1.842657446861267
1761315660657428200,5.10742822265625,0.4386756122112274,-0.4115694463253021,-2.064166307449341
1761315660667475200,5.11747509765625,0.5030820369720459,-0.6254303455352783,-2.255319356918335
1761315660677522200,5.127522216796875,0.5729157328605652,-0.9101073145866394,-2.3630025386810303
1761315660687570200,5.137570068359375,0.6439043879508972,-1.2184078693389893,-2.4420952796936035
1761315660697617400,5.147617431640625,0.7074418663978577,-1.5452275276184082,-2.598660945892334
1761315660707664100,5.1576640625,0.7785900235176086,-1.9407362937927246,-2.8627102375030518
1761315660717712100,5.167712158203125,0.8251565098762512,-2.289325475692749,-3.2573471069335938
1761315660727759000,5.177759033203125,0.8175371885299683,-2.402061939239502,-3.7078590393066406
1761315660737806600,5.187806640625,0.7896352410316467,-2.2925801277160645,-4.134364128112793
1761315660747853600,5.197853515625,0.8019659519195557,-2.119283676147461,-4.578198432922363
1761315660757901600,5.207901611328125,0.8935056924819946,-1.9353500604629517,-5.02518367767334
1761315660767948500,5.217948486328125,1.0810692310333252,-1.6117594242095947,-5.371401786804199
1761315660777995500,5.22799560546875,1.2811988592147827,-1.2112336158752441,-5.65326452255249
1761315660788043500,5.23804345703125,1.4307111501693726,-0.8181670308113098,-5.906956195831299
1761315660798090500,5.248090576171875,1.4513019323349,-0.5745764970779419,-6.061352252960205
1761315660808137700,5.2581376953125,1.2865017652511597,-0.35458818078041077,-5.861835956573486
1761315660818185500,5.268185546875,0.9168411493301392,-0.023445671424269676,-5.0940351486206055
1761315660828232400,5.278232421875,0.4223525822162628,0.42912524938583374,-3.7930188179016113
1761315660838279400,5.288279541015625,-0.045709699392318726,0.7872725129127502,-2.2677524089813232
1761315660848326400,5.298326416015625,-0.3561727702617645,0.7490161657333374,-0.829587459564209
1761315660858374700,5.308374755859375,-0.5643443465232849,0.46068745851516724,0.4390268921852112
1761315660868421600,5.318421630859375,-0.6742170453071594,0.17377711832523346,1.4822715520858765
1761315660878468600,5.328468505859375,-0.7521541714668274,0.05992645025253296,2.3101348876953125
1761315660888516600,5.3385166015625,-0.7974439263343811,0.20588737726211548,2.909642219543457
1761315660898563600,5.3485634765625,-0.7843347787857056,0.5714570879936218,3.2217955589294434
1761315660908610600,5.358610595703125,-0.7192031741142273,0.9873773455619812,3.2900311946868896
1761315660918658600,5.368658447265625,-0.584145724773407,1.329450011253357,3.197465419769287
1761315660928705500,5.37870556640625,-0.42456647753715515,1.5736807584762573,2.9853711128234863
1761315660938752800,5.388752685546875,-0.2943815588951111,1.7762317657470703,2.7837185859680176
1761315660948800500,5.398800537109375,-0.18596826493740082,1.7917371988296509,2.726454257965088
1761315660958847500,5.408847412109375,-0.09458296746015549,1.6267237663269043,2.815647602081299
1761315660968894500,5.41889453125,-0.07046245038509369,1.3747378587722778,2.993022918701172
1761315660978942700,5.428942626953125,-0.13021419942378998,1.0325456857681274,3.2793052196502686
1761315660988989700,5.43898974609375,-0.25079095363616943,0.64578777551651,3.6108081340789795
1761315660999036700,5.44903662109375,-0.3828938603401184,0.3321395814418793,3.879986047744751
1761315661009086700,5.459086669921875,-0.5163869261741638,0.07606520503759384,4.03073787689209
1761315661019133400,5.469133544921875,-0.6268199682235718,-0.15238021314144135,4.033796787261963
1761315661029181400,5.479181396484375,-0.6986667513847351,-0.32053887844085693,3.8972814083099365
1761315661039228400,5.489228515625,-0.6750921607017517,-0.43743327260017395,3.6482858657836914
1761315661049275600,5.499275634765625,-0.5814977288246155,-0.4827575981616974,3.284005880355835
1761315661059323600,5.50932373046875,-0.45180127024650574,-0.4556844234466553,2.8175547122955322
1761315661069370600,5.51937060546875,-0.327930748462677,-0.39447301626205444,2.308185338973999
1761315661079417300,5.529417236328125,-0.2655230164527893,-0.24516315758228302,1.825127124786377
1761315661089465600,5.539465576171875,-0.2747258245944977,-0.0176991019397974,1.3777482509613037
1761315661099512600,5.5495126953125,-0.319863498210907,0.1931164562702179,0.963415801525116
1761315661109559600,5.5595595703125,-0.36838921904563904,0.30019310116767883,0.5615274906158447
1761315661119607600,5.569607666015625,-0.3888436257839203,0.2631205916404724,0.16309651732444763
1761315661129654500,5.579654541015625,-0.3862675428390503,0.0994352474808693,-0.2293066829442978
1761315661139701500,5.589701416015625,-0.35271623730659485,-0.1352664828300476,-0.5997031331062317
1761315661149748500,5.59974853515625,-0.2823001444339752,-0.40485987067222595,-0.9404953122138977
1761315661159796500,5.60979638671875,-0.19828060269355774,-0.7176262736320496,-1.2165639400482178
1761315661169843500,5.619843505859375,-0.08727551996707916,-0.9938696026802063,-1.4153656959533691
1761315661179890700,5.629890625,0.040033970028162,-1.2220332622528076,-1.5749990940093994
1761315661189938400,5.6399384765625,0.1612277776002884,-1.4083272218704224,-1.759223461151123
1761315661199985400,5.6499853515625,0.25716280937194824,-1.4850292205810547,-1.9517627954483032
1761315661210032400,5.660032470703125,0.317287415266037,-1.4961202144622803,-2.1946141719818115
1761315661220080600,5.67008056640625,0.34168383479118347,-1.5084460973739624,-2.49472975730896
1761315661230127600,5.680127685546875,0.29626575112342834,-1.5248024463653564,-2.797515869140625
1761315661240174600,5.690174560546875,0.18797655403614044,-1.6126435995101929,-3.015059232711792
1761315661250222300,5.700222412109375,-0.013741112314164639,-1.819069266319275,-3.059400796890259
1761315661260269600,5.71026953125,-0.2237260341644287,-1.9396244287490845,-2.8361146450042725
1761315661270316500,5.720316650390625,-0.3014613091945648,-1.8865667581558228,-2.504744291305542
1761315661280364500,5.730364501953125,-0.18996594846248627,-1.7094473838806152,-2.311960220336914
1761315661290411500,5.74041162109375,0.0791667252779007,-1.4893832206726074,-2.384528875350952
1761315661300458800,5.750458740234375,0.42495742440223694,-1.2685678005218506,-2.5889334678649902
1761315661310505700,5.760505615234375,0.7722530364990234,-1.013997197151184,-2.772491455078125
1761315661320553500,5.770553466796875,1.0320063829421997,-0.8101738095283508,-2.9347100257873535
1761315661330600400,5.780600341796875,1.1453744173049927,-0.687021017074585,-3.0957157611846924
1761315661340647400,5.7906474609375,1.053067684173584,-0.6096287369728088,-3.2652158737182617
1761315661350695700,5.80069580078125,0.7918190360069275,-0.42228999733924866,-3.3720080852508545
1761315661360742700,5.81074267578125,0.5279463529586792,-0.14869706332683563,-3.3261239528656006
1761315661370789600,5.82078955078125,0.36880385875701904,0.13317136466503143,-3.0559608936309814
1761315661380837400,5.83083740234375,0.34059938788414,0.41711387038230896,-2.46783447265625
1761315661390884600,5.840884521484375,0.3940218687057495,0.6429004073143005,-1.55531907081604
1761315661400931600,5.850931640625,0.38548484444618225,0.8112228512763977,-0.472852498292923
1761315661410978600,5.860978515625,0.21157696843147278,1.0039228200912476,0.6515823006629944
1761315661421026600,5.871026611328125,-0.10693869739770889,1.0956451892852783,1.7452656030654907
1761315661431073800,5.88107373046875,-0.43752753734588623,1.0626518726348877,2.7693493366241455
1761315661441120500,5.89112060546875,-0.734092116355896,0.9955021142959595,3.6347622871398926
1761315661451168500,5.90116845703125,-0.9701544046401978,0.9661924242973328,4.3163676261901855
1761315661461215500,5.911215576171875,-1.128764271736145,1.0010795593261719,4.782284259796143
1761315661471262500,5.921262451171875,-1.2309633493423462,1.0671632289886475,4.997891902923584
1761315661481310700,5.931310791015625,-1.3004772663116455,1.1526219844818115,5.01841926574707
1761315661491357400,5.941357421875,-1.3649182319641113,1.232905626296997,4.931678771972656
1761315661501404400,5.951404296875,-1.4256436824798584,1.3193079233169556,4.821622848510742
1761315661511452400,5.961452392578125,-1.4571017026901245,1.398992657661438,4.7458882331848145
1761315661521499600,5.971499755859375,-1.4581300020217896,1.4483740329742432,4.693204402923584
1761315661531546600,5.981546630859375,-1.4211405515670776,1.4404242038726807,4.6478071212768555
1761315661541593600,5.991593505859375,-1.3463842868804932,1.3552192449569702,4.5748162269592285
1761315661551641300,6.001641357421875,-1.2845741510391235,1.2570737600326538,4.436086177825928
1761315661561688600,6.0116884765625,-1.243902564048767,1.2260615825653076,4.208913326263428
1761315661571735600,6.021735595703125,-1.2111326456069946,1.2715145349502563,3.8863203525543213
1761315661581783600,6.031783447265625,-1.1497012376785278,1.323017954826355,3.4636168479919434
1761315661591830500,6.04183056640625,-1.0537736415863037,1.345005750656128,2.963700294494629
1761315661601877500,6.05187744140625,-0.944121241569519,1.378383994102478,2.429142713546753
1761315661611925500,6.061925537109375,-0.8368917107582092,1.4283512830734253,1.9165198802947998
1761315661621972500,6.071972412109375,-0.7345701456069946,1.4665952920913696,1.4370417594909668
1761315661632019500,6.08201953125,-0.6560007333755493,1.4711978435516357,1.0046122074127197
1761315661642067700,6.092067626953125,-0.6016352772712708,1.4210268259048462,0.6277193427085876
1761315661652114700,6.10211474609375,-0.5647478103637695,1.3090898990631104,0.31037357449531555
1761315661662161700,6.11216162109375,-0.5313019752502441,1.1148239374160767,0.03984781354665756
1761315661672209400,6.12220947265625,-0.5044605135917664,0.8689566850662231,-0.18946154415607452
1761315661682256400,6.13225634765625,-0.5054027438163757,0.5865660309791565,-0.40867137908935547
1761315661692303600,6.1423037109375,-0.5035033822059631,0.25237420201301575,-0.6417339444160461
1761315661702350600,6.1523505859375,-0.46145498752593994,-0.05511065572500229,-0.8905128836631775
1761315661712398600,6.162398681640625,-0.36558064818382263,-0.30029910802841187,-1.1634272336959839
1761315661722445600,6.172445556640625,-0.2854405343532562,-0.5655936002731323,-1.4516299962997437
1761315661732492800,6.182492919921875,-0.2095673382282257,-0.8142098188400269,-1.7568516731262207
1761315661742540800,6.192540771484375,-0.13522732257843018,-0.9997549057006836,-2.106401205062866
1761315661752587800,6.202587890625,-0.05783826485276222,-1.119651198387146,-2.4548397064208984
1761315661762634800,6.212634765625,-0.009229451417922974,-1.1833364963531494,-2.78052020072937
1761315661772683000,6.22268310546875,0.007723699789494276,-1.1866377592086792,-3.1209566593170166
1761315661782730000,6.23272998046875,0.022291723638772964,-1.1498587131500244,-3.4822897911071777
1761315661792776700,6.242776611328125,0.044979993253946304,-1.1345551013946533,-3.826498031616211
1761315661802823700,6.25282373046875,0.03410017862915993,-1.1912798881530762,-4.0921125411987305
1761315661812871700,6.26287158203125,-0.0209492240101099,-1.3138436079025269,-4.252955436706543
1761315661822919000,6.2729189453125,-0.07737734913825989,-1.5867515802383423,-4.303910732269287
1761315661832966000,6.2829658203125,-0.06847599893808365,-2.0667128562927246,-4.3375349044799805
1761315661843014000,6.293013916015625,-0.01318025030195713,-2.7500836849212646,-4.484371662139893
1761315661853060600,6.303060546875,0.08648855239152908,-3.4857327938079834,-4.668671607971191
1761315661863107800,6.31310791015625,0.34051764011383057,-4.043780326843262,-4.65338134765625
1761315661873155800,6.32315576171875,0.7032558917999268,-4.419582843780518,-4.428503513336182
1761315661883202800,6.333202880859375,1.0629061460494995,-4.574636459350586,-4.166538715362549
1761315661893249800,6.343249755859375,1.3300106525421143,-4.425281047821045,-4.014763355255127
1761315661903297800,6.3532978515625,1.4490914344787598,-3.991485118865967,-4.064359188079834
1761315661913344800,6.3633447265625,1.465674638748169,-3.5329926013946533,-4.232769012451172
1761315661923391700,6.373391845703125,1.4436343908309937,-3.019395589828491,-4.37091588973999
1761315661933439700,6.383439697265625,1.4138962030410767,-2.2768638134002686,-4.331100940704346
1761315661943486700,6.39348681640625,1.3869580030441284,-1.475583791732788,-4.1798481941223145
1761315661953534000,6.403533935546875,1.404479742050171,-0.59355229139328,-3.879234790802002
1761315661963581000,6.413580810546875,1.339236855506897,0.3107112646102905,-3.3302812576293945
1761315661973628700,6.423628662109375,1.180173397064209,1.0434688329696655,-2.592643976211548
1761315661983675600,6.433675537109375,0.9123518466949463,1.4900002479553223,-1.6572798490524292
1761315661993723000,6.443722900390625,0.5564510226249695,1.7183815240859985,-0.5212376117706299
1761315662003771000,6.45377099609375,0.17864377796649933,1.7253108024597168,0.6359468698501587
1761315662013817900,6.46381787109375,-0.11402404308319092,1.5677632093429565,1.70907723903656
1761315662023864800,6.47386474609375,-0.2977882921695709,1.4383245706558228,2.6493735313415527
1761315662033912800,6.483912841796875,-0.3673601746559143,1.384974479675293,3.3847508430480957
1761315662043959800,6.493959716796875,-0.37195226550102234,1.394081473350525,3.884817600250244
1761315662054006800,6.5040068359375,-0.35475489497184753,1.526710033416748,4.182403564453125
1761315662064053800,6.5140537109375,-0.3357716202735901,1.7408008575439453,4.287434101104736
1761315662074101800,6.524101806640625,-0.3436969220638275,1.9118013381958008,4.270123481750488
1761315662084149000,6.53414892578125,-0.4144853353500366,2.046359062194824,4.23820161819458
1761315662094196000,6.544196044921875,-0.5190998911857605,2.1464622020721436,4.258590221405029
1761315662104243700,6.55424365234375,-0.6292697787284851,2.198446035385132,4.345705986022949
1761315662114290700,6.564290771484375,-0.7155072093009949,2.1243932247161865,4.444198131561279
1761315662124338000,6.574337890625,-0.7775312066078186,1.9673569202423096,4.523154258728027
1761315662134386000,6.584385986328125,-0.8124827742576599,1.810997486114502,4.608283996582031
1761315662144433000,6.594432861328125,-0.8500791788101196,1.6391444206237793,4.668432712554932
1761315662154479600,6.604479736328125,-0.8630018830299377,1.514233946800232,4.664031028747559
1761315662164527900,6.61452783203125,-0.8515303134918213,1.4280282258987427,4.586348056793213
1761315662174574800,6.624574951171875,-0.8348538279533386,1.362385869026184,4.447864532470703
1761315662184621800,6.634621826171875,-0.8229045271873474,1.2993861436843872,4.22514533996582
1761315662194668800,6.644668701171875,-0.7942888736724854,1.2231967449188232,3.9396605491638184
1761315662204716800,6.654716796875,-0.7465950846672058,1.1445016860961914,3.6140427589416504
1761315662214763800,6.664763671875,-0.6905099749565125,1.0811222791671753,3.2450449466705322
1761315662224810800,6.674810791015625,-0.6379448175430298,0.9915382862091064,2.8624355792999268
1761315662234858800,6.684858642578125,-0.5783240795135498,0.8840482831001282,2.4603264331817627
1761315662244905700,6.69490576171875,-0.4981980621814728,0.7815014123916626,2.0539560317993164
1761315662254953000,6.704952880859375,-0.4045003354549408,0.7065731287002563,1.6529537439346313
1761315662265000700,6.715000732421875,-0.29123929142951965,0.6716987490653992,1.2574762105941772
1761315662275047700,6.725047607421875,-0.17607249319553375,0.6304780840873718,0.8763725161552429
1761315662285094700,6.7350947265625,-0.07711555808782578,0.5847364068031311,0.5147890448570251
1761315662295143000,6.745142822265625,-0.009918676689267159,0.5329379439353943,0.1600852757692337
1761315662305190000,6.75518994140625,0.038668032735586166,0.4771750867366791,-0.16553117334842682
1761315662315236900,6.76523681640625,0.08442087471485138,0.4366875886917114,-0.44767019152641296
1761315662325283800,6.775283935546875,0.12870444357395172,0.4276930093765259,-0.6732116937637329
1761315662335331800,6.785331787109375,0.180926114320755,0.4242415726184845,-0.8272582292556763
1761315662345378800,6.79537890625,0.2462899386882782,0.33884090185165405,-0.9292035102844238
1761315662355425800,6.80542578125,0.3192206025123596,0.15158392488956451,-1.0017578601837158
1761315662365473800,6.815473876953125,0.4019540846347809,-0.15601091086864471,-1.0868704319000244
1761315662375520800,6.825520751953125,0.4776853322982788,-0.49329864978790283,-1.219616413116455
1761315662385568000,6.835568115234375,0.5259996056556702,-0.829961359500885,-1.4147523641586304
1761315662395615700,6.84561572265625,0.574055016040802,-1.1419082880020142,-1.6241801977157593
1761315662405662700,6.855662841796875,0.6332126259803772,-1.3845175504684448,-1.819233775138855
1761315662415709700,6.865709716796875,0.701744556427002,-1.5862895250320435,-2.0282249450683594
1761315662425758000,6.875758056640625,0.7567185759544373,-1.7197948694229126,-2.271207332611084
1761315662435805000,6.885804931640625,0.8394595384597778,-1.7207695245742798,-2.5680150985717773
1761315662445852000,6.895851806640625,0.9838460087776184,-1.6299059391021729,-2.8584787845611572
1761315662455899000,6.90589892578125,1.120383620262146,-1.51129949092865,-3.1134936809539795
1761315662465947000,6.91594677734375,1.2187496423721313,-1.4438782930374146,-3.4011013507843018
1761315662475993900,6.925993896484375,1.345971941947937,-1.4780287742614746,-3.7752838134765625
1761315662486040800,6.936040771484375,1.4782259464263916,-1.5377558469772339,-4.247247219085693
1761315662496088800,6.9460888671875,1.530737042427063,-1.616216778755188,-4.809555530548096
1761315662506135800,6.9561357421875,1.461788296699524,-1.69579017162323,-5.426721096038818
1761315662516182800,6.966182861328125,1.2904783487319946,-1.8514548540115356,-5.915265083312988
1761315662526230800,6.976230712890625,1.1161222457885742,-2.204826831817627,-6.05357551574707
1761315662536277800,6.98627783203125,0.9543240666389465,-2.6533725261688232,-5.711349010467529
1761315662546324700,6.99632470703125,0.8066214323043823,-2.933589458465576,-4.894711971282959
1761315662556373000,7.006373046875,0.6181705594062805,-2.9335668087005615,-3.9256181716918945
1761315662566419700,7.016419677734375,0.41098061203956604,-2.696692705154419,-3.0413718223571777
1761315662576466700,7.026466796875,0.30148154497146606,-2.239802598953247,-2.264892816543579
1761315662586513700,7.036513671875,0.3048557639122009,-1.5646371841430664,-1.5207648277282715
1761315662596562000,7.04656201171875,0.3834344744682312,-0.8884459733963013,-0.8132297992706299
1761315662606609000,7.05660888671875,0.4346659779548645,-0.3537820279598236,-0.18766391277313232
1761315662616656000,7.06665576171875,0.39439231157302856,0.14876364171504974,0.41932350397109985
1761315662626703600,7.07670361328125,0.236458882689476,0.6586655378341675,1.0516245365142822
1761315662636750600,7.08675048828125,-0.018516160547733307,1.1724156141281128,1.6756188869476318
1761315662646797800,7.0967978515625,-0.27250877022743225,1.636972188949585,2.2721400260925293
1761315662656845800,7.106845703125,-0.44321444630622864,2.0111849308013916,2.832596778869629
1761315662666892800,7.116892822265625,-0.4625098407268524,2.268199920654297,3.322650194168091
1761315662676939800,7.126939697265625,-0.3303680717945099,2.403731107711792,3.701481342315674
1761315662686986800,7.13698681640625,-0.14333797991275787,2.4899632930755615,4.008179187774658
1761315662697034800,7.14703466796875,0.005873335525393486,2.5341989994049072,4.273738384246826
1761315662707081700,7.157081787109375,0.046177081763744354,2.528714895248413,4.521059036254883
1761315662717128700,7.167128662109375,-0.0057249972596764565,2.4239861965179443,4.764593124389648
1761315662727176400,7.177176513671875,-0.11807896941900253,2.188163995742798,4.970595359802246
1761315662737223400,7.187223388671875,-0.25557878613471985,1.8734112977981567,5.067500591278076
1761315662747270400,7.1972705078125,-0.3898598849773407,1.5737175941467285,5.061004161834717
1761315662757318400,7.207318359375,-0.49431464076042175,1.3133610486984253,5.01093053817749
1761315662767365400,7.217365478515625,-0.5626723766326904,1.0506324768066406,4.922964096069336
1761315662777412400,7.227412353515625,-0.6231229901313782,0.7658361792564392,4.794466972351074
1761315662787460400,7.23746044921875,-0.6872692108154297,0.4765854477882385,4.615260124206543
1761315662797507300,7.24750732421875,-0.746048092842102,0.2701188325881958,4.375173091888428
1761315662807554600,7.257554443359375,-0.7876051068305969,0.1736341118812561,4.0583062171936035
1761315662817601500,7.2676015625,-0.8137009143829346,0.15403030812740326,3.676380157470703
1761315662827649300,7.277649169921875,-0.8070134520530701,0.19751973450183868,3.2574524879455566
1761315662837696300,7.2876962890625,-0.7741609215736389,0.22719000279903412,2.798276662826538
1761315662847743200,7.2977431640625,-0.7172305583953857,0.25365543365478516,2.3002145290374756
1761315662857791500,7.30779150390625,-0.6535610556602478,0.25802329182624817,1.8138179779052734
1761315662867838500,7.31783837890625,-0.5984897613525391,0.20243938267230988,1.3702008724212646
1761315662877885400,7.327885498046875,-0.521744430065155,0.11088097840547562,0.9810550212860107
1761315662887933400,7.337933349609375,-0.4275907576084137,0.026429476216435432,0.6407669186592102
1761315662897980400,7.34798046875,-0.3258609175682068,-0.0888126939535141,0.33258888125419617
1761315662908027400,7.35802734375,-0.2317458838224411,-0.2286323755979538,0.06210891157388687
1761315662918075400,7.368075439453125,-0.17110517621040344,-0.3708699345588684,-0.14845684170722961
1761315662928122400,7.378122314453125,-0.15893851220607758,-0.4473484754562378,-0.29303160309791565
1761315662938169600,7.388169677734375,-0.13973020017147064,-0.4727960526943207,-0.36224129796028137
1761315662948216300,7.39821630859375,-0.10419084876775742,-0.5265495777130127,-0.4016140103340149
1761315662958264300,7.408264404296875,-0.060384515672922134,-0.6594786047935486,-0.3955492079257965
1761315662968311300,7.418311279296875,-0.0014998923288658261,-0.8569815158843994,-0.3624061644077301
1761315662978358300,7.428358154296875,0.05398999899625778,-1.1185311079025269,-0.3422553539276123
1761315662988406500,7.438406494140625,0.08191616833209991,-1.4428449869155884,-0.3684459328651428
1761315662998453500,7.44845361328125,0.09002815932035446,-1.7544971704483032,-0.4713962972164154
1761315663008500200,7.458500244140625,0.1241413876414299,-1.995175838470459,-0.663414716720581
1761315663018548500,7.468548583984375,0.1968022733926773,-2.14009690284729,-0.9289172291755676
1761315663028595500,7.478595458984375,0.3287970721721649,-2.221041679382324,-1.2746442556381226
1761315663038642400,7.488642333984375,0.5075345635414124,-2.27785062789917,-1.71066415309906
1761315663048690400,7.4986904296875,0.7235662341117859,-2.2236955165863037,-2.2626144886016846
1761315663058737200,7.508737060546875,0.9515330791473389,-2.0649168491363525,-2.9565632343292236
1761315663068784400,7.518784423828125,1.1810698509216309,-1.7541296482086182,-3.7794625759124756
1761315663078831400,7.528831298828125,1.3853108882904053,-1.3379279375076294,-4.698596954345703
1761315663088879400,7.53887939453125,1.5241899490356445,-0.9624704122543335,-5.714375019073486
1761315663098926300,7.54892626953125,1.558451533317566,-0.6714316606521606,-6.699278831481934
1761315663108973600,7.5589736328125,1.5561941862106323,-0.5214093923568726,-7.3518500328063965
1761315663119021300,7.569021240234375,1.559565782546997,-0.538407564163208,-7.515653133392334
1761315663129068300,7.579068359375,1.5330287218093872,-0.8442122340202332,-7.230251312255859
1761315663139115300,7.589115234375,1.468701958656311,-1.3202003240585327,-6.514094829559326
1761315663149163500,7.59916357421875,1.449442982673645,-1.5385334491729736,-5.316747188568115
1761315663159210500,7.60921044921875,1.4892481565475464,-1.3920694589614868,-3.997518539428711
1761315663169257500,7.619257568359375,1.4528087377548218,-1.059203863143921,-3.0802462100982666
1761315663179305200,7.62930517578125,1.3184658288955688,-0.7004438638687134,-2.428534984588623
1761315663189352200,7.639352294921875,1.1160210371017456,-0.38732242584228516,-1.6714513301849365
1761315663199399400,7.6493994140625,0.8984174132347107,-0.23631559312343597,-0.7384311556816101
1761315663209446400,7.6594462890625,0.675305187702179,-0.3162631690502167,0.30972349643707275
1761315663219494400,7.669494384765625,0.27718445658683777,-0.17189958691596985,1.3805009126663208
1761315663229541400,7.679541259765625,-0.22501394152641296,0.4892674386501312,2.223426342010498
1761315663239588600,7.689588623046875,-0.5960391759872437,1.3052117824554443,2.649122476577759
1761315663249636400,7.69963623046875,-0.7702471613883972,2.0895235538482666,2.7803361415863037
1761315663259683300,7.709683349609375,-0.7906478047370911,2.726407051086426,2.8060412406921387
1761315663269730300,7.719730224609375,-0.7280637621879578,3.1608738899230957,2.838754415512085
1761315663279778600,7.729778564453125,-0.6545717120170593,3.35133957862854,2.910093307495117
1761315663289825500,7.739825439453125,-0.6441251635551453,3.3287441730499268,3.046142339706421
1761315663299872500,7.74987255859375,-0.6900513768196106,3.132049798965454,3.246138095855713
1761315663309919200,7.759919189453125,-0.7481538653373718,2.802659273147583,3.4689102172851562
1761315663319967200,7.76996728515625,-0.7885870337486267,2.406665325164795,3.6991820335388184
1761315663330014500,7.780014404296875,-0.787071943283081,1.9792671203613281,3.9234519004821777
1761315663340061400,7.7900615234375,-0.753531813621521,1.4994598627090454,4.133655071258545
1761315663350109400,7.800109375,-0.7101913094520569,1.0069150924682617,4.286468029022217
1761315663360156400,7.810156494140625,-0.6831575632095337,0.5398991703987122,4.380117416381836
1761315663370203400,7.820203369140625,-0.6757712364196777,0.12258317321538925,4.411794662475586
1761315663380251400,7.83025146484375,-0.6601502299308777,-0.2485474944114685,4.363110065460205
1761315663390298400,7.84029833984375,-0.6503199934959412,-0.5746070742607117,4.239302158355713
1761315663400345300,7.850345458984375,-0.6519066691398621,-0.804172933101654,4.052755832672119
1761315663410392300,7.860392333984375,-0.6724918484687805,-0.8871908187866211,3.805779218673706
1761315663420440300,7.8704404296875,-0.6875818371772766,-0.8834461569786072,3.4904897212982178
1761315663430487300,7.8804873046875,-0.6840015053749084,-0.8306497931480408,3.100567579269409
1761315663440534300,7.8905341796875,-0.6525924205780029,-0.7404937744140625,2.694474697113037
1761315663450582500,7.90058251953125,-0.6021742820739746,-0.6289861798286438,2.3206441402435303
1761315663460629500,7.91062939453125,-0.5236685276031494,-0.5241742730140686,1.9670062065124512
1761315663470676500,7.920676513671875,-0.4332049489021301,-0.41498759388923645,1.6194349527359009
1761315663480724200,7.93072412109375,-0.35878506302833557,-0.3324708938598633,1.272823691368103
1761315663490771200,7.940771240234375,-0.3099605143070221,-0.289416640996933,0.8932223320007324
1761315663500818400,7.950818359375,-0.26292431354522705,-0.3528970777988434,0.4924837350845337
1761315663510866400,7.960866455078125,-0.18824979662895203,-0.4672955572605133,0.05251939967274666
1761315663520913400,7.970913330078125,-0.09904935210943222,-0.5356817841529846,-0.4140184819698334
1761315663530960400,7.98096044921875,-0.0015430354978889227,-0.5175874829292297,-0.8680093884468079
1761315663541007400,7.99100732421875,0.1176091879606247,-0.45055678486824036,-1.2883113622665405
1761315663551055400,8.001055419921874,0.25709304213523865,-0.34262046217918396,-1.6784095764160156
1761315663561102300,8.011102294921875,0.40402311086654663,-0.15450914204120636,-2.0386428833007812
1761315663571149300,8.0211494140625,0.5346508622169495,0.05356389284133911,-2.3757517337799072
1761315663581197600,8.031197509765626,0.6654501557350159,0.2108302116394043,-2.6820502281188965
1761315663591244500,8.04124462890625,0.7980636358261108,0.2663251757621765,-2.9635086059570312
1761315663601291500,8.05129150390625,0.9233200550079346,0.18644630908966064,-3.240935802459717
1761315663611339300,8.06133935546875,1.0498732328414917,-0.009954895824193954,-3.5502500534057617
1761315663621386200,8.07138623046875,1.1626559495925903,-0.3331896662712097,-3.8987574577331543
1761315663631433500,8.08143359375,1.2482017278671265,-0.6887661814689636,-4.306122303009033
1761315663641481500,8.0914814453125,1.2623298168182373,-0.9803029298782349,-4.7378740310668945
1761315663651528400,8.101528564453124,1.2364473342895508,-1.203470230102539,-5.105754375457764
1761315663661575400,8.111575439453125,1.2060633897781372,-1.3964732885360718,-5.413531303405762
1761315663671622400,8.121622314453125,1.2034974098205566,-1.6145163774490356,-5.654064655303955
1761315663681670400,8.13167041015625,1.2151074409484863,-1.869587779045105,-5.782363414764404
1761315663691717400,8.14171728515625,1.1945598125457764,-2.0707507133483887,-5.726490497589111
1761315663701764400,8.151764404296875,1.1085996627807617,-2.1246073246002197,-5.578557968139648
1761315663711812600,8.1618125,0.9169859886169434,-2.0321202278137207,-5.4980597496032715
1761315663721859300,8.171859375,0.6819886565208435,-1.8453775644302368,-5.514369964599609
1761315663731905500,8.181905517578125,0.5279399752616882,-1.6556289196014404,-5.4227399826049805
1761315663741953300,8.191953369140625,0.4674968719482422,-1.5577564239501953,-4.936776638031006
1761315663752000300,8.202000244140624,0.4012957513332367,-1.5914555788040161,-4.0677266120910645
1761315663762047200,8.212047119140625,0.2844162881374359,-1.648853063583374,-2.967320680618286
1761315663772095500,8.222095458984375,0.08903799951076508,-1.5453088283538818,-1.843510627746582
1761315663782142500,8.232142578125,-0.1353258639574051,-1.2003852128982544,-0.8893839716911316
1761315663792189400,8.242189453125,-0.2823083996772766,-0.7435023784637451,-0.14616093039512634
1761315663802236400,8.252236328125,-0.33575403690338135,-0.227720245718956,0.4699973165988922
1761315663812284400,8.262284423828126,-0.2933940589427948,0.24584731459617615,1.0227659940719604
1761315663822331400,8.272331298828124,-0.21270321309566498,0.6705150008201599,1.5163530111312866
1761315663832378400,8.28237841796875,-0.16298332810401917,1.1066228151321411,1.9496866464614868
1761315663842426400,8.29242626953125,-0.1517631560564041,1.5356966257095337,2.317093849182129
1761315663852473600,8.3024736328125,-0.14794765412807465,1.8296971321105957,2.612227201461792
1761315663862520600,8.3125205078125,-0.1413307636976242,1.9459863901138306,2.8280112743377686
1761315663872568300,8.322568359375,-0.13589072227478027,1.9297853708267212,3.0050976276397705
1761315663882615300,8.332615234375,-0.14432282745838165,1.7834010124206543,3.1600704193115234
1761315663892662300,8.342662353515625,-0.15475869178771973,1.5574504137039185,3.2926008701324463
1761315663902709500,8.35270947265625,-0.17084763944149017,1.3271865844726562,3.3973729610443115
1761315663912757500,8.362757568359376,-0.2117905467748642,1.171209454536438,3.4880847930908203
1761315663922804500,8.372804443359374,-0.24137960374355316,1.093104362487793,3.5851495265960693
1761315663932851200,8.382851318359375,-0.2469828873872757,1.0624500513076782,3.6416704654693604
1761315663942899500,8.3928994140625,-0.2304888665676117,1.0851646661758423,3.6395905017852783
1761315663952946400,8.402946533203124,-0.23351368308067322,1.1969319581985474,3.572669744491577
1761315663962993400,8.412993408203125,-0.25303733348846436,1.3404557704925537,3.4370064735412598
1761315663973041400,8.42304150390625,-0.27883827686309814,1.4392462968826294,3.2519447803497314
1761315663983088400,8.43308837890625,-0.3133576512336731,1.4076180458068848,3.053406238555908
1761315663993135400,8.44313525390625,-0.31464847922325134,1.2372809648513794,2.8360910415649414
1761315664003182300,8.453182373046875,-0.31175708770751953,1.0058724880218506,2.609687089920044
1761315664013230300,8.463230224609376,-0.2968803942203522,0.7632536888122559,2.3953943252563477
1761315664023277300,8.47327734375,-0.2779802083969116,0.5419260859489441,2.2123372554779053
1761315664033324500,8.483324462890625,-0.2681424915790558,0.36141544580459595,2.0299696922302246
1761315664043372300,8.493372314453126,-0.2605229318141937,0.1995549201965332,1.8379321098327637
1761315664053419300,8.503419189453124,-0.2590688467025757,0.06636810302734375,1.6311403512954712
1761315664063466200,8.51346630859375,-0.2407311201095581,-0.05131245404481888,1.3878589868545532
1761315664073514500,8.523514404296876,-0.1874561756849289,-0.15689533948898315,1.0876104831695557
1761315664083561500,8.5335615234375,-0.10055191069841385,-0.2018257975578308,0.7072889804840088
1761315664093608400,8.5436083984375,0.0059721386060118675,-0.15993426740169525,0.25931277871131897
1761315664103656200,8.55365625,0.11567386984825134,-0.08214360475540161,-0.2390248328447342
1761315664113703400,8.563703369140624,0.189933180809021,0.016504941508173943,-0.7802180647850037
1761315664123750400,8.57375048828125,0.24768489599227905,0.09425406157970428,-1.2986454963684082
1761315664133797400,8.58379736328125,0.3188948929309845,0.09662614017724991,-1.6899243593215942
1761315664143845400,8.593845458984376,0.38317880034446716,0.07848814874887466,-1.9462248086929321
1761315664153892400,8.603892333984374,0.40461939573287964,0.0222613625228405,-2.119175910949707
1761315664163939600,8.613939697265625,0.3731403052806854,-0.07258418947458267,-2.2602880001068115
1761315664173987300,8.6239873046875,0.3100167214870453,-0.17990745604038239,-2.3858540058135986
1761315664184034300,8.634034423828124,0.2319227159023285,-0.31953245401382446,-2.509303092956543
1761315664194081300,8.644081298828125,0.15215091407299042,-0.4832577407360077,-2.640505790710449
1761315664204129500,8.654129638671876,0.09894948452711105,-0.6062915325164795,-2.7675235271453857
1761315664214176500,8.664176513671874,0.09556460380554199,-0.6855695843696594,-2.8969030380249023
1761315664224223500,8.674223388671875,0.1329396814107895,-0.7450592517852783,-3.022160768508911
1761315664234270200,8.684270263671875,0.18307021260261536,-0.7498478889465332,-3.0964438915252686
1761315664244318500,8.694318359375,0.23091045022010803,-0.6736702919006348,-3.1252574920654297
1761315664254365400,8.704365478515625,0.2462822049856186,-0.5556893348693848,-3.1214048862457275
1761315664264412400,8.714412353515625,0.20514622330665588,-0.5271580815315247,-3.0596187114715576
1761315664274460400,8.72446044921875,0.14013899862766266,-0.6397754549980164,-2.879180908203125
1761315664284507400,8.73450732421875,0.07623191922903061,-0.818009614944458,-2.521564483642578
1761315664294554400,8.744554443359375,0.01278583612293005,-0.9952864050865173,-2.027484178543091
1761315664304602400,8.754602294921876,-0.04529637470841408,-1.0247737169265747,-1.5005221366882324
1761315664314649300,8.7646494140625,-0.14182743430137634,-1.0174037218093872,-1.0165355205535889
1761315664324696300,8.7746962890625,-0.18029920756816864,-0.9939441680908203,-0.5838397145271301
1761315664334743600,8.78474365234375,-0.16707846522331238,-0.955712080001831,-0.24861380457878113
1761315664344791300,8.794791259765624,-0.15889696776866913,-0.8378171324729919,0.030178142711520195
1761315664354838300,8.80483837890625,-0.15665112435817719,-0.6147494316101074,0.3213742971420288
1761315664364885200,8.81488525390625,-0.15787804126739502,-0.30069777369499207,0.6046675443649292
1761315664374930400,8.824930419921875,-0.14732074737548828,0.03188975527882576,0.8624343276023865
1761315664384977400,8.834977294921876,-0.10259801149368286,0.3181268274784088,1.0718107223510742
1761315664395025400,8.845025390625,-0.054901864379644394,0.5602231025695801,1.2525914907455444
1761315664405072400,8.855072265625,-0.02907373011112213,0.7312347888946533,1.4070707559585571
1761315664415119400,8.865119384765626,-0.014271347783505917,0.8411378264427185,1.5436267852783203
1761315664425166300,8.875166259765624,0.006701844744384289,0.8169022798538208,1.6670442819595337
1761315664435214300,8.88521435546875,0.034387536346912384,0.6255720257759094,1.7715320587158203
1761315664445261600,8.895261474609375,0.06228148192167282,0.42273420095443726,1.8394302129745483
1761315664455308500,8.90530859375,0.09325564652681351,0.2889905273914337,1.8362269401550293
1761315664465356300,8.915356201171875,0.11800307035446167,0.2608979046344757,1.7580194473266602
1761315664475403300,8.9254033203125,0.13032817840576172,0.36591407656669617,1.6158796548843384
1761315664485450200,8.9354501953125,0.12457229197025299,0.4379834830760956,1.4301300048828125
1761315664495498500,8.94549853515625,0.10549286752939224,0.49352768063545227,1.182771921157837
1761315664505545500,8.95554541015625,0.0863303616642952,0.5254427194595337,0.9507796764373779
1761315664515592400,8.965592529296876,0.07764419168233871,0.5667057633399963,0.8022910952568054
1761315664525640400,8.975640380859375,0.07602951675653458,0.663714587688446,0.7454153299331665
1761315664535687400,8.9856875,0.0868571326136589,0.8379833102226257,0.7408655881881714
1761315664545734400,8.995734375,0.12152749300003052,1.1773321628570557,0.8068467378616333
1761315664555781400,9.005781494140624,0.18843142688274384,1.2107089757919312,0.692626416683197
1761315664565829400,9.015829345703125,0.2633698582649231,0.9489966630935669,0.5055731534957886
1761315664575876400,9.02587646484375,0.2839510142803192,0.7144337296485901,0.38175642490386963
1761315664585923300,9.03592333984375,0.2665001451969147,0.529740571975708,0.26173120737075806
1761315664595971300,9.045971435546875,0.2245611995458603,0.3594095706939697,0.0960192084312439
1761315664606018300,9.056018310546875,0.17900703847408295,0.24393783509731293,-0.06490735709667206
1761315664616065500,9.0660654296875,0.13557647168636322,0.16301529109477997,-0.2126142680644989
1761315664626113500,9.076113525390625,0.0781901404261589,0.09698353707790375,-0.33802491426467896
1761315664636160300,9.08616015625,0.027961859479546547,0.05811842903494835,-0.4190734326839447
1761315664646207200,9.096207275390626,0.0020234698895365,0.03880811482667923,-0.4508707821369171
1761315664656254200,9.106254150390624,-0.025787122547626495,0.006878412328660488,-0.47707921266555786
1761315664666302500,9.116302490234375,-0.07326329499483109,-0.04072638973593712,-0.5533921122550964
1761315664676349400,9.126349365234375,-0.12521463632583618,-0.09824907034635544,-0.6885342001914978
1761315664686396400,9.136396484375,-0.17917267978191376,-0.1824457049369812,-0.8641995191574097
1761315664696444200,9.146444091796875,-0.22885608673095703,-0.26907089352607727,-1.0364474058151245
1761315664706491400,9.156491455078125,-0.25522032380104065,-0.3437075614929199,-1.1797257661819458
1761315664716538400,9.166538330078126,-0.306903213262558,-0.401902973651886,-1.2755566835403442
1761315664726586400,9.17658642578125,-0.3828560411930084,-0.4867611229419708,-1.3957933187484741
1761315664736633900,9.1866337890625,-0.44865795969963074,-0.6030480861663818,-1.6019468307495117
1761315664746680800,9.196680908203126,-0.48014795780181885,-0.7450320720672607,-1.8704147338867188
1761315664756727800,9.206727783203124,-0.45880699157714844,-0.9275755286216736,-2.1506471633911133
1761315664766775800,9.21677587890625,-0.39152729511260986,-1.0846226215362549,-2.4269819259643555
1761315664776822800,9.22682275390625,-0.2785770297050476,-1.2496973276138306,-2.635314464569092
1761315664786869800,9.236869873046874,-0.12791216373443604,-1.4016249179840088,-2.75396990776062
1761315664796917800,9.246917724609375,0.07063635438680649,-1.5200023651123047,-2.7893407344818115
1761315664806965000,9.256965087890626,0.24081288278102875,-1.653035283088684,-2.772554397583008
1761315664817011700,9.26701171875,0.34182336926460266,-1.7095826864242554,-2.758939743041992
1761315664827059700,9.277059814453125,0.381690114736557,-1.6513164043426514,-2.7135891914367676
1761315664837106700,9.287106689453125,0.3915746808052063,-1.5904382467269897,-2.4980533123016357
1761315664847153700,9.297153564453126,0.3872065842151642,-1.3896137475967407,-2.0422203540802
1761315664857201000,9.307200927734375,0.33667975664138794,-1.0125758647918701,-1.3936338424682617
1761315664867249000,9.317248779296875,0.2702125906944275,-0.5751639604568481,-0.5789752006530762
1761315664877295600,9.327295654296876,0.21327818930149078,-0.1969519406557083,0.4189562499523163
1761315664887342600,9.337342529296874,0.09890687465667725,0.12493394315242767,1.5032305717468262
1761315664897390800,9.347390869140625,-0.08334629237651825,0.47084155678749084,2.461925983428955
1761315664907437800,9.357437744140626,-0.2676897644996643,0.7070146799087524,3.1941263675689697
1761315664917484800,9.36748486328125,-0.4306565821170807,0.8587751984596252,3.7059895992279053
1761315664927532800,9.37753271484375,-0.5479440689086914,1.0293411016464233,3.992211103439331
1761315664937579800,9.387579833984375,-0.602745532989502,1.229183554649353,4.067994594573975
1761315664947626800,9.397626708984374,-0.6372214555740356,1.432554841041565,4.015000343322754
1761315664957673700,9.407673828125,-0.6673269271850586,1.5625083446502686,3.910637855529785
1761315664967721700,9.4177216796875,-0.7003551721572876,1.6772286891937256,3.8153135776519775
1761315664977771800,9.427771728515625,-0.7434669733047485,1.7245680093765259,3.7804129123687744
1761315664987818800,9.43781884765625,-0.7783240079879761,1.691738486289978,3.800483226776123
1761315664997865700,9.44786572265625,-0.7789921760559082,1.5719572305679321,3.8322203159332275
1761315665007913700,9.457913818359375,-0.7565332055091858,1.3772050142288208,3.8359506130218506
1761315665017960700,9.467960693359375,-0.7105084657669067,1.1684467792510986,3.815601348876953
1761315665028007700,9.478007568359375,-0.6451976299285889,0.9586551785469055,3.746385335922241
1761315665038055700,9.4880556640625,-0.5866975784301758,0.7732352614402771,3.557997226715088
1761315665048103000,9.49810302734375,-0.534677267074585,0.6190488338470459,3.2951900959014893
1761315665058150000,9.50814990234375,-0.46842554211616516,0.5755746364593506,2.9815073013305664
1761315665068196900,9.51819677734375,-0.3883804976940155,0.5942244529724121,2.6337671279907227
1761315665078244600,9.52824462890625,-0.3026738464832306,0.5744382739067078,2.245173931121826
1761315665088291600,9.53829150390625,-0.20484289526939392,0.553360104560852,1.8126758337020874
1761315665098338800,9.5483388671875,-0.12521198391914368,0.5701702833175659,1.3689771890640259
1761315665108386800,9.55838671875,-0.08030708879232407,0.6596176028251648,0.9258338212966919
1761315665118433800,9.568433837890625,-0.05770084634423256,0.8113725185394287,0.5193992257118225
1761315665128480800,9.578480712890626,-0.0010338390711694956,1.0022923946380615,0.18849721550941467
1761315665138528800,9.58852880859375,0.025594308972358704,1.1490328311920166,-0.13348695635795593
1761315665148575700,9.59857568359375,0.039268843829631805,1.1286654472351074,-0.5003610849380493
1761315665158622700,9.608622802734375,0.040942639112472534,0.9496023058891296,-0.8939619064331055
1761315665168669700,9.618669677734376,0.075726717710495,0.6655012965202332,-1.2383943796157837
1761315665178718000,9.628718017578125,0.12851430475711823,0.27246373891830444,-1.5093110799789429
1761315665188765000,9.638764892578125,0.154628723859787,-0.1827104240655899,-1.754683017730713
1761315665198811600,9.648811767578126,0.14508049190044403,-0.6322706341743469,-1.997327446937561
1761315665208859600,9.658859619140625,0.10784097760915756,-1.0408352613449097,-2.244396686553955
1761315665218907000,9.668906982421875,0.06407272815704346,-1.3660767078399658,-2.4844508171081543
1761315665228953900,9.678953857421876,0.049132660031318665,-1.5763354301452637,-2.643136739730835
1761315665239001900,9.689001953125,0.06234273687005043,-1.6277040243148804,-2.747905731201172
1761315665249048800,9.699048828125,0.05030364915728569,-1.657084345817566,-2.8577516078948975
1761315665259095600,9.709095458984375,0.06462319940328598,-1.6689108610153198,-2.981157064437866
1761315665269143800,9.719143798828124,0.11801878362894058,-1.634825348854065,-3.115827798843384
1761315665279190800,9.729190673828125,0.2064860612154007,-1.6787453889846802,-3.3209176063537598
1761315665289237800,9.73923779296875,0.2831651270389557,-1.9187822341918945,-3.5466084480285645
1761315665299284700,9.74928466796875,0.35588061809539795,-2.255767822265625,-3.6301848888397217
1761315665309332700,9.759332763671875,0.4693842828273773,-2.5276403427124023,-3.5624682903289795
1761315665319379700,9.769379638671875,0.5954258441925049,-2.6067450046539307,-3.477294683456421
1761315665329426700,9.7794267578125,0.722670316696167,-2.3836379051208496,-3.4378275871276855
1761315665339474700,9.789474609375,0.8302305936813354,-1.9425519704818726,-3.464616060256958
1761315665349522000,9.79952197265625,0.9176642894744873,-1.4502410888671875,-3.4742398262023926
1761315665359569000,9.80956884765625,0.9665362238883972,-1.059801459312439,-3.4224040508270264
1761315665369616600,9.81961669921875,0.9540867805480957,-0.828470766544342,-3.3414783477783203
1761315665379663600,9.82966357421875,0.8982552289962769,-0.6429851055145264,-3.185695171356201
1761315665389710600,9.839710693359375,0.8345526456832886,-0.36867469549179077,-2.9146273136138916
1761315665399757800,9.8497578125,0.7847818732261658,-0.07945514470338821,-2.4997870922088623
1761315665409805800,9.859805908203125,0.7161428928375244,0.11314466595649719,-1.941746473312378
1761315665419852800,9.869852783203125,0.5903769731521606,0.2759820520877838,-1.220651626586914
1761315665429899800,9.879899658203126,0.4082340896129608,0.4270586371421814,-0.3786548972129822
1761315665439947800,9.88994775390625,0.1786445826292038,0.5493840575218201,0.47764647006988525
1761315665449994800,9.899994873046875,-0.07122065126895905,0.72745281457901,1.2792131900787354
1761315665460041700,9.910041748046876,-0.27921193838119507,0.8835058212280273,1.915018916130066
1761315665470088700,9.920088623046874,-0.4388521909713745,1.0135096311569214,2.3904008865356445
1761315665480137000,9.930136962890625,-0.5452380180358887,1.146178126335144,2.730998992919922
1761315665490184000,9.940183837890626,-0.5916337370872498,1.2640670537948608,2.9557576179504395
1761315665500231000,9.95023095703125,-0.5989497303962708,1.3466817140579224,3.0833139419555664
1761315665510278700,9.960278564453125,-0.5989475846290588,1.3729149103164673,3.1301109790802
1761315665520325600,9.97032568359375,-0.594605028629303,1.3028391599655151,3.0927674770355225
1761315665530372900,9.980372802734376,-0.5539177656173706,1.2047514915466309,3.012080430984497
1761315665540420900,9.9904208984375,-0.495044082403183,1.0981110334396362,2.9097557067871094
1761315665550467800,10.0004677734375,-0.4399201273918152,0.9894759058952332,2.8503260612487793
1761315665560514800,10.010514892578126,-0.3887600004673004,0.9147266149520874,2.8960201740264893
1761315665570561500,10.0205615234375,-0.34346920251846313,0.9592685103416443,3.0648112297058105
1761315665580609800,10.03060986328125,-0.2843318581581116,1.0733097791671753,3.30981183052063
1761315665590656800,10.04065673828125,-0.23085904121398926,0.9789963960647583,3.478921413421631
1761315665600703700,10.050703857421874,-0.19401048123836517,0.6836726069450378,3.509138584136963
1761315665610751700,10.060751708984375,-0.17732417583465576,0.33116382360458374,3.435019016265869
1761315665620798700,10.070798828125,-0.18260230123996735,-0.05362754315137863,3.283785104751587
1761315665630845700,10.080845703125,-0.18600235879421234,-0.35782286524772644,3.048091411590576
1761315665640893700,10.090893798828125,-0.2061731368303299,-0.5333840250968933,2.727921962738037
1761315665650940700,10.100940673828125,-0.22112971544265747,-0.5390040874481201,2.36897611618042
1761315665660988000,10.11098779296875,-0.19523394107818604,-0.40149256587028503,1.953117847442627
1761315665671035000,10.121034912109375,-0.13777251541614532,-0.17275632917881012,1.4622434377670288
1761315665681082600,10.13108251953125,-0.06596863269805908,0.10707345604896545,0.8943853378295898
1761315665691129600,10.141129638671876,-0.01853560097515583,0.34117409586906433,0.28440535068511963
1761315665701176600,10.151176513671874,0.002010952914133668,0.5042634010314941,-0.3091549277305603
1761315665711224800,10.161224853515625,-0.0031337416730821133,0.6057434678077698,-0.8121261596679688
1761315665721271800,10.171271728515626,0.014695855788886547,0.6038946509361267,-1.1801403760910034
1761315665731319600,10.181319580078124,0.04880402609705925,0.49794721603393555,-1.465815782546997
1761315665741367600,10.191367431640625,0.07088695466518402,0.2930307984352112,-1.6939160823822021
1761315665751414800,10.201414794921876,0.09300131350755692,-0.006079464219510555,-1.8231124877929688
1761315665761461800,10.211461669921874,0.13058623671531677,-0.35508033633232117,-1.8725327253341675
1761315665771508700,10.2215087890625,0.18384040892124176,-0.7150286436080933,-1.933080792427063
1761315665781556500,10.231556396484375,0.2529888451099396,-1.0468231439590454,-2.0286147594451904
1761315665791603500,10.241603515625,0.3420755863189697,-1.3270504474639893,-2.1615989208221436
1761315665801650700,10.251650634765625,0.41656073927879333,-1.5493777990341187,-2.379612922668457
1761315665811698700,10.26169873046875,0.44332629442214966,-1.6039942502975464,-2.7115683555603027
1761315665821745700,10.27174560546875,0.43977898359298706,-1.5079838037490845,-3.1070122718811035
1761315665831792600,10.281792724609375,0.4660337567329407,-1.4198209047317505,-3.531644821166992
1761315665841840600,10.291840576171875,0.5781914591789246,-1.2958749532699585,-3.924226760864258
1761315665851887600,10.3018876953125,0.8050914406776428,-1.120531439781189,-4.220988750457764
1761315665861934600,10.3119345703125,1.08796226978302,-0.9850497245788574,-4.413224697113037
1761315665871981600,10.321981689453125,1.3383934497833252,-0.9246399402618408,-4.52593994140625
1761315665882029800,10.33202978515625,1.4907108545303345,-0.8906896710395813,-4.585639476776123
1761315665892076800,10.342076904296874,1.5004971027374268,-0.798725962638855,-4.453955173492432
1761315665902123800,10.352123779296875,1.3836160898208618,-0.6043575406074524,-4.001295566558838
1761315665912171500,10.362171630859375,1.105214238166809,-0.3453267812728882,-3.2563395500183105
1761315665922218500,10.372218505859376,0.7256264090538025,-0.06356406211853027,-2.2887747287750244
1761315665932265700,10.382265625,0.422820508480072,0.26206570863723755,-1.281775712966919
1761315665942313700,10.392313720703125,0.29968205094337463,0.5294369459152222,-0.484281986951828
1761315665952360700,10.402360595703126,0.2739630937576294,0.5507217645645142,0.1486635059118271
1761315665962407700,10.41240771484375,0.33251750469207764,0.5141903758049011,0.7326459884643555
1761315665972455000,10.422454833984375,0.3848171830177307,0.38483235239982605,1.211317777633667
1761315665982502700,10.432502685546876,0.3960413336753845,0.1463415026664734,1.613530158996582
1761315665992549600,10.442549560546874,0.4037781059741974,-0.11869655549526215,1.9228065013885498
1761315666002596600,10.4525966796875,0.3739544153213501,-0.31970131397247314,2.079963207244873
1761315666012644900,10.462644775390626,0.337911456823349,-0.3678445816040039,2.0868759155273438
1761315666022691800,10.47269189453125,0.3348267376422882,-0.2650772035121918,1.9527740478515625
1761315666032738600,10.482738525390625,0.34890100359916687,-0.011576761491596699,1.7889059782028198
1761315666042785500,10.49278564453125,0.32438740134239197,0.3665010333061218,1.7340776920318604
1761315666052833800,10.502833740234376,0.2483493536710739,0.6943556070327759,1.7713019847869873
1761315666062880800,10.512880859375,0.12748073041439056,0.8583991527557373,1.8569135665893555
1761315666072927700,10.522927734375,0.013586648739874363,0.8909594416618347,1.9202102422714233
1761315666082975700,10.532975830078126,-0.09708340466022491,0.8195268511772156,1.9331969022750854
1761315666093022500,10.5430224609375,-0.18844127655029297,0.6943708062171936,1.9148790836334229
1761315666103069700,10.553069580078125,-0.2617093622684479,0.5766087174415588,1.8895822763442993
1761315666113117700,10.56311767578125,-0.3073945641517639,0.489286869764328,1.890950322151184
1761315666123164700,10.57316455078125,-0.34542742371559143,0.425851970911026,1.923313856124878
1761315666133211600,10.583211669921875,-0.37952283024787903,0.3738657236099243,1.9540278911590576
1761315666143258600,10.593258544921875,-0.41366028785705566,0.35791394114494324,1.9544517993927002
1761315666153306600,10.603306640625,-0.4559773802757263,0.3836461901664734,1.917464017868042
1761315666163353600,10.613353515625,-0.5044386386871338,0.43227073550224304,1.85133695602417
1761315666173400600,10.623400634765625,-0.5356231927871704,0.4223293960094452,1.7464003562927246
1761315666183448800,10.63344873046875,-0.562618613243103,0.33107858896255493,1.6387436389923096
1761315666193495800,10.643495849609375,-0.5795139670372009,0.16836769878864288,1.5314515829086304
1761315666203542800,10.653542724609375,-0.5806276798248291,-0.060557618737220764,1.4073117971420288
1761315666213590500,10.663590576171876,-0.5547636151313782,-0.3207431435585022,1.2323849201202393
1761315666223637500,10.673637451171874,-0.5109809637069702,-0.5237790942192078,0.9861770868301392
1761315666233684700,10.683684814453125,-0.4479442238807678,-0.577948808670044,0.6913526058197021
1761315666243731700,10.693731689453125,-0.3487934172153473,-0.4956433176994324,0.3702446222305298
1761315666253779700,10.70377978515625,-0.21883566677570343,-0.3161345422267914,-0.0027441212441772223
1761315666263826700,10.71382666015625,-0.08322884142398834,-0.1234031617641449,-0.45883363485336304
1761315666273873700,10.723873779296875,0.05495619401335716,0.04439888894557953,-1.0014393329620361
1761315666283921700,10.733921630859374,0.1752844750881195,0.1275121569633484,-1.580947756767273
1761315666293968600,10.74396875,0.2843813896179199,0.03045777417719364,-2.072693347930908
1761315666304015600,10.754015625,0.40576639771461487,-0.12519200146198273,-2.4423632621765137
1761315666314064000,10.76406396484375,0.5208248496055603,-0.1985413283109665,-2.7104852199554443
1761315666324110800,10.77411083984375,0.5943384766578674,-0.25274890661239624,-2.861133575439453
1761315666334157800,10.78415771484375,0.6505311727523804,-0.27892005443573,-2.907745599746704
1761315666344204500,10.79420458984375,0.7208258509635925,-0.18488197028636932,-2.9638824462890625
1761315666354252500,10.80425244140625,0.6984968185424805,-0.18555627763271332,-2.9753026962280273
1761315666364299800,10.8142998046875,0.5989693999290466,-0.20471026003360748,-2.8650176525115967
1761315666374346800,10.8243466796875,0.5332103967666626,-0.0003382214636076242,-2.660285711288452
1761315666384394800,10.834394775390624,0.5148518681526184,0.2910475432872772,-2.4100115299224854
1761315666394441700,10.844441650390625,0.41290926933288574,0.606105387210846,-2.03875994682312
1761315666404488400,10.854488525390625,0.26691025495529175,0.6973170638084412,-1.673147439956665
1761315666414536700,10.86453662109375,0.16761483252048492,0.8064536452293396,-1.3190271854400635
1761315666424583700,10.874583740234375,0.09068196266889572,0.6735997200012207,-1.1361618041992188
1761315666434630700,10.884630615234375,0.03523654863238335,0.4574922025203705,-1.052010178565979
1761315666444677600,10.894677734375,0.07237140089273453,0.38616421818733215,-0.8785528540611267
1761315666454725600,10.9047255859375,0.11449355632066727,0.24121980369091034,-0.6613805890083313
1761315666464772600,10.914772705078125,0.14360669255256653,0.003090864745900035,-0.42776918411254883
1761315666474819600,10.924819580078125,0.11197473853826523,-0.12121031433343887,-0.12621359527111053
1761315666484867600,10.93486767578125,0.04364361613988876,-0.02435913495719433,0.21474719047546387
1761315666494914800,10.944914794921875,0.015414110384881496,0.19043172895908356,0.513232946395874
1761315666504961800,10.9549619140625,0.06280852109193802,0.3741496205329895,0.6927340030670166
1761315666515008800,10.9650087890625,0.1202680841088295,0.4558311700820923,0.7742504477500916
1761315666525056500,10.975056396484375,0.13313648104667664,0.4731435775756836,0.8106398582458496
1761315666535103500,10.985103515625,0.12323059141635895,0.470270574092865,0.8294958472251892
1761315666545150700,10.995150634765626,0.11762703210115433,0.47077125310897827,0.8270002007484436
1761315666555198700,11.00519873046875,0.12544740736484528,0.4717289209365845,0.8110342621803284
1761315666565245700,11.01524560546875,0.12975160777568817,0.4567156136035919,0.7681347727775574
1761315666575292700,11.025292724609375,0.13284672796726227,0.40976035594940186,0.7068793773651123
1761315666585340700,11.035340576171874,0.13677328824996948,0.31199729442596436,0.6180834770202637
1761315666595387600,11.0453876953125,0.1418551355600357,0.165480837225914,0.5192514061927795
1761315666605434600,11.0554345703125,0.15389342606067657,0.027874508872628212,0.4179519712924957
1761315666615481600,11.065481689453126,0.14867310225963593,-0.06743656098842621,0.32786041498184204
1761315666625529900,11.07552978515625,0.13820767402648926,-0.12278983741998672,0.24165363609790802
1761315666635576800,11.085576904296875,0.11919669806957245,-0.14158029854297638,0.13697968423366547
1761315666645623800,11.095623779296876,0.07950867712497711,-0.13879543542861938,0.003822701284661889
1761315666655671600,11.105671630859375,-0.027515513822436333,-0.15414322912693024,-0.13658607006072998
1761315666665718800,11.11571875,-0.08911975473165512,-0.14520911872386932,-0.25493428111076355
1761315666675765800,11.125765869140626,-0.10535651445388794,-0.06430522352457047,-0.3225570023059845
1761315666685812700,11.135812744140624,-0.0625467374920845,0.11449941247701645,-0.3113160729408264
1761315666695860700,11.14586083984375,0.00415453128516674,0.3074518144130707,-0.24126935005187988
1761315666705907500,11.155907470703125,0.07250988483428955,0.43307819962501526,-0.1385757178068161
1761315666715954700,11.16595458984375,0.10170452296733856,0.5144731998443604,-0.05084320530295372
1761315666726002700,11.176002685546875,0.08870963007211685,0.4789263606071472,-0.016744891181588173
1761315666736048400,11.18604833984375,0.06034190207719803,0.32039105892181396,-0.004083691164851189
1761315666746095600,11.196095703125,0.05775997042655945,0.10655573755502701,-0.11041039973497391
1761315666756143600,11.2061435546875,0.08271511644124985,0.05609975382685661,-0.230202317237854
1761315666766190600,11.216190673828125,0.09217626601457596,-0.005170527379959822,-0.3655686676502228
1761315666776237600,11.226237548828125,0.08300114423036575,-0.016919327899813652,-0.4797263741493225
1761315666786284500,11.236284423828126,0.08022826164960861,-0.030047114938497543,-0.5266121625900269
1761315666796332500,11.24633251953125,0.08611757308244705,-0.05199635401368141,-0.44513726234436035
1761315666806379500,11.256379638671875,0.09215150028467178,-0.041781000792980194,-0.29995930194854736
