time,seconds_elapsed,z,y,x
1761315151732244000,0.065243896484375,-0.9814910888671875,-0.181488037109375,0.021636962890625
1761315151742291000,0.075291015625,-0.976898193359375,-0.18359375,0.02069091796875
1761315151752339200,0.085339111328125,-0.9691925048828125,-0.1884918212890625,0.016510009765625
1761315151762386200,0.09538623046875,-0.9687042236328125,-0.1913604736328125,0.017822265625
1761315151772434000,0.105433837890625,-0.9701385498046875,-0.1961822509765625,0.0196685791015625
1761315151782481000,0.11548095703125,-0.965850830078125,-0.199249267578125,0.0152587890625
1761315151792529200,0.125529052734375,-0.9611053466796875,-0.198699951171875,0.013397216796875
1761315151802576100,0.135576171875,-0.960296630859375,-0.1972198486328125,0.013671875
1761315151812623000,0.145623046875,-0.9549713134765625,-0.19683837890625,0.010345458984375
1761315151822670800,0.1556708984375,-0.9556427001953125,-0.19482421875,0.0089569091796875
1761315151832718000,0.165718017578125,-0.9569244384765625,-0.1932830810546875,0.005615234375
1761315151842766000,0.17576611328125,-0.9595489501953125,-0.1917266845703125,0.0046539306640625
1761315151852813000,0.18581298828125,-0.965301513671875,-0.19134521484375,0.00439453125
1761315151862861000,0.195861083984375,-0.965667724609375,-0.1895294189453125,0.0055084228515625
1761315151872908000,0.205907958984375,-0.9661865234375,-0.188262939453125,0.006378173828125
1761315151882956000,0.2159560546875,-0.9625091552734375,-0.1890869140625,0.0068511962890625
1761315151893003000,0.2260029296875,-0.9586334228515625,-0.191375732421875,0.0096282958984375
1761315151903050000,0.236050048828125,-0.954315185546875,-0.1944122314453125,0.0118255615234375
1761315151913098000,0.246097900390625,-0.9516143798828125,-0.1973876953125,0.0125579833984375
1761315151923145000,0.25614501953125,-0.947235107421875,-0.1996307373046875,0.01177978515625
1761315151933193000,0.26619287109375,-0.9424896240234375,-0.1987152099609375,0.0102691650390625
1761315151943240000,0.276239990234375,-0.945220947265625,-0.196258544921875,0.0126495361328125
1761315151953288200,0.2862880859375,-0.95306396484375,-0.1970977783203125,0.0145721435546875
1761315151963335000,0.2963349609375,-0.9591827392578125,-0.1943817138671875,0.013427734375
1761315151973382000,0.3063818359375,-0.962554931640625,-0.1910552978515625,0.01513671875
1761315151983430100,0.31643017578125,-0.9695587158203125,-0.1904296875,0.014801025390625
1761315151993477000,0.32647705078125,-0.9708099365234375,-0.1900634765625,0.0156402587890625
1761315152003525000,0.336525146484375,-0.9774627685546875,-0.1900482177734375,0.0213775634765625
1761315152013572000,0.346572021484375,-0.9833526611328125,-0.187774658203125,0.0254364013671875
1761315152023620000,0.3566201171875,-0.981842041015625,-0.1836700439453125,0.0267333984375
1761315152033667000,0.3666669921875,-0.9828948974609375,-0.1829376220703125,0.0282440185546875
1761315152043715000,0.376715087890625,-0.9873046875,-0.183441162109375,0.0305633544921875
1761315152053762000,0.386761962890625,-0.988922119140625,-0.1813812255859375,0.030303955078125
1761315152063809300,0.396809326171875,-0.9874114990234375,-0.17926025390625,0.0301971435546875
1761315152073857000,0.40685693359375,-0.9876708984375,-0.180328369140625,0.030517578125
1761315152083904000,0.416904052734375,-0.989532470703125,-0.18212890625,0.031585693359375
1761315152093952000,0.426951904296875,-0.9860382080078125,-0.183624267578125,0.029022216796875
1761315152103999200,0.436999267578125,-0.97821044921875,-0.184783935546875,0.0251312255859375
1761315152114047000,0.447046875,-0.9741363525390625,-0.188568115234375,0.0227203369140625
1761315152124094000,0.457093994140625,-0.971099853515625,-0.1920318603515625,0.0240631103515625
1761315152134141000,0.467140869140625,-0.9676971435546875,-0.1952972412109375,0.0240020751953125
1761315152144189200,0.477189208984375,-0.967132568359375,-0.1937255859375,0.02325439453125
1761315152154236200,0.487236083984375,-0.970703125,-0.191131591796875,0.0222625732421875
1761315152164284000,0.497283935546875,-0.9672088623046875,-0.1899871826171875,0.016754150390625
1761315152174331000,0.507330810546875,-0.9697113037109375,-0.18487548828125,0.017059326171875
1761315152184379100,0.517379150390625,-0.969940185546875,-0.1863555908203125,0.0175628662109375
1761315152194426000,0.527426025390625,-0.9615478515625,-0.193145751953125,0.020111083984375
1761315152204473900,0.537473876953125,-0.9563140869140625,-0.197479248046875,0.024993896484375
1761315152214520800,0.547520751953125,-0.95806884765625,-0.204254150390625,0.029296875
1761315152224568000,0.557568115234375,-0.9568634033203125,-0.207366943359375,0.0262908935546875
1761315152234619000,0.567618896484375,-0.956512451171875,-0.2028656005859375,0.0234375
1761315152244665900,0.577665771484375,-0.9549713134765625,-0.196563720703125,0.0172576904296875
1761315152254713900,0.5877138671875,-0.9541473388671875,-0.194671630859375,0.01611328125
1761315152264760800,0.5977607421875,-0.964599609375,-0.196319580078125,0.018096923828125
1761315152274808800,0.607808837890625,-0.9778594970703125,-0.20062255859375,0.0218505859375
1761315152284855800,0.617855712890625,-0.9868621826171875,-0.204071044921875,0.02667236328125
1761315152294902800,0.62790283203125,-0.9794158935546875,-0.20428466796875,0.02099609375
1761315152304950800,0.63795068359375,-0.969085693359375,-0.2030181884765625,0.01531982421875
1761315152314997800,0.647997802734375,-0.9689178466796875,-0.2027740478515625,0.0196685791015625
1761315152325045800,0.658045654296875,-0.9666290283203125,-0.205810546875,0.0273590087890625
1761315152335092700,0.6680927734375,-0.9646148681640625,-0.2094268798828125,0.034881591796875
1761315152345140700,0.678140625,-0.9684600830078125,-0.2112579345703125,0.0396881103515625
1761315152355188000,0.68818798828125,-0.96282958984375,-0.2099151611328125,0.035736083984375
1761315152365235000,0.69823486328125,-0.95440673828125,-0.20751953125,0.033111572265625
1761315152375282700,0.70828271484375,-0.9498138427734375,-0.206817626953125,0.0308380126953125
1761315152385329700,0.71832958984375,-0.9444427490234375,-0.20819091796875,0.0308990478515625
1761315152395378000,0.7283779296875,-0.9458770751953125,-0.2079620361328125,0.0352935791015625
1761315152405425000,0.7384248046875,-0.94500732421875,-0.2041015625,0.03863525390625
1761315152415472600,0.74847265625,-0.9558563232421875,-0.2010040283203125,0.0451507568359375
1761315152425519600,0.75851953125,-0.9302825927734375,-0.188568115234375,0.0505523681640625
1761315152435567900,0.76856787109375,-0.9484100341796875,-0.1984405517578125,0.0751800537109375
1761315152445614800,0.77861474609375,-0.984527587890625,-0.219970703125,0.0763702392578125
1761315152455661800,0.788661865234375,-0.9428863525390625,-0.217254638671875,0.0411376953125
1761315152465709600,0.79870947265625,-0.952606201171875,-0.201507568359375,0.0160980224609375
1761315152475756800,0.8087568359375,-0.9654693603515625,-0.1985931396484375,0.0049591064453125
1761315152485804800,0.8188046875,-0.97491455078125,-0.207794189453125,0.001312255859375
1761315152495851800,0.828851806640625,-0.980682373046875,-0.2172088623046875,-0.0035552978515625
1761315152505900000,0.838900146484375,-0.983245849609375,-0.22454833984375,-0.0016632080078125
1761315152515946800,0.84894677734375,-0.961029052734375,-0.2273712158203125,-0.0066375732421875
1761315152525994800,0.858994873046875,-0.9527435302734375,-0.2028350830078125,-0.00262451171875
1761315152536041700,0.869041748046875,-0.9687347412109375,-0.1973876953125,0.0136566162109375
1761315152546088700,0.879088623046875,-0.9603118896484375,-0.20587158203125,0.0225830078125
1761315152556137000,0.889136962890625,-0.962005615234375,-0.2013702392578125,0.0284423828125
1761315152566183700,0.89918359375,-0.9659576416015625,-0.1864776611328125,0.022125244140625
1761315152576231700,0.909231689453125,-0.9629364013671875,-0.1750335693359375,0.0166473388671875
1761315152586278700,0.919278564453125,-0.96661376953125,-0.1703338623046875,0.0120697021484375
1761315152596327000,0.929326904296875,-0.9657440185546875,-0.1731414794921875,0.012786865234375
1761315152606374000,0.939373779296875,-0.9706573486328125,-0.1805419921875,0.018768310546875
1761315152616420900,0.9494208984375,-0.9798583984375,-0.1880340576171875,0.02423095703125
1761315152626468900,0.95946875,-0.9769439697265625,-0.1949920654296875,0.024658203125
1761315152636515800,0.969515869140625,-0.975006103515625,-0.1974639892578125,0.024658203125
1761315152646563800,0.979563720703125,-0.978179931640625,-0.199981689453125,0.0287322998046875
1761315152656610800,0.98961083984375,-0.9771575927734375,-0.20318603515625,0.0299072265625
1761315152666658800,0.999658935546875,-0.9766845703125,-0.204986572265625,0.0333251953125
1761315152676705800,1.009705810546875,-0.9774322509765625,-0.2042388916015625,0.0345611572265625
1761315152686752800,1.019752685546875,-0.9734954833984375,-0.2004852294921875,0.034820556640625
1761315152696800800,1.02980078125,-0.969024658203125,-0.1981964111328125,0.0341033935546875
1761315152706848000,1.039847900390625,-0.9682769775390625,-0.197021484375,0.0352020263671875
1761315152716895700,1.049895751953125,-0.9666290283203125,-0.195831298828125,0.0356292724609375
1761315152726942700,1.059942626953125,-0.9699249267578125,-0.1946258544921875,0.0391082763671875
1761315152736990700,1.06999072265625,-0.97509765625,-0.1948089599609375,0.04205322265625
1761315152747038000,1.080037841796875,-0.972869873046875,-0.1947784423828125,0.0365142822265625
1761315152757085700,1.090085693359375,-0.9701995849609375,-0.190521240234375,0.03582763671875
1761315152767132700,1.100132568359375,-0.97564697265625,-0.190277099609375,0.042449951171875
1761315152777179600,1.1101796875,-0.973785400390625,-0.1923065185546875,0.04254150390625
1761315152787228000,1.120227783203125,-0.9709930419921875,-0.192962646484375,0.03765869140625
1761315152797275000,1.13027490234375,-0.9661407470703125,-0.1959686279296875,0.0364227294921875
1761315152807322600,1.140322509765625,-0.96392822265625,-0.201690673828125,0.03466796875
1761315152817369600,1.15036962890625,-0.9597320556640625,-0.2056884765625,0.029632568359375
1761315152827417900,1.16041796875,-0.9596099853515625,-0.20684814453125,0.0279693603515625
1761315152837464800,1.17046484375,-0.961578369140625,-0.20660400390625,0.0261077880859375
1761315152847511800,1.18051171875,-0.957672119140625,-0.2061309814453125,0.021148681640625
1761315152857559800,1.190559814453125,-0.9551849365234375,-0.2042694091796875,0.0227203369140625
1761315152867606800,1.200606689453125,-0.9558563232421875,-0.2045745849609375,0.02301025390625
1761315152877654800,1.21065478515625,-0.9521026611328125,-0.20465087890625,0.0211944580078125
1761315152887701800,1.22070166015625,-0.9485321044921875,-0.201385498046875,0.0196533203125
1761315152897750000,1.23075,-0.9454193115234375,-0.200592041015625,0.0219268798828125
1761315152907796700,1.240796630859375,-0.9448699951171875,-0.2011566162109375,0.026275634765625
1761315152917844700,1.2508447265625,-0.9441986083984375,-0.2047271728515625,0.0308380126953125
1761315152927891700,1.2608916015625,-0.9474945068359375,-0.2040557861328125,0.032257080078125
1761315152937938700,1.270938720703125,-0.95330810546875,-0.197357177734375,0.02838134765625
1761315152947987000,1.280987060546875,-0.954193115234375,-0.1926422119140625,0.023651123046875
1761315152958034000,1.291033935546875,-0.9565887451171875,-0.191009521484375,0.019927978515625
1761315152968081700,1.30108154296875,-0.966033935546875,-0.1910858154296875,0.019927978515625
1761315152978128600,1.311128662109375,-0.9745941162109375,-0.1937255859375,0.0231781005859375
1761315152988177000,1.321177001953125,-0.9781646728515625,-0.196136474609375,0.0264434814453125
1761315152998224000,1.331223876953125,-0.9769439697265625,-0.1951141357421875,0.0271453857421875
1761315153008270800,1.341270751953125,-0.9752655029296875,-0.1955108642578125,0.030670166015625
1761315153018318800,1.35131884765625,-0.974609375,-0.19805908203125,0.033966064453125
1761315153028365800,1.36136572265625,-0.970611572265625,-0.1992645263671875,0.0338592529296875
1761315153038413800,1.371413818359375,-0.97076416015625,-0.1978607177734375,0.033294677734375
1761315153048460800,1.381460693359375,-0.9789886474609375,-0.1970672607421875,0.0363922119140625
1761315153058508800,1.3915087890625,-0.979705810546875,-0.19464111328125,0.034942626953125
1761315153068555800,1.4015556640625,-0.9814300537109375,-0.19134521484375,0.0351104736328125
1761315153078603800,1.411603759765625,-0.9795379638671875,-0.1885528564453125,0.0346832275390625
1761315153088650800,1.421650634765625,-0.9761810302734375,-0.1878662109375,0.03533935546875
1761315153098698000,1.431697998046875,-0.972808837890625,-0.188140869140625,0.036346435546875
1761315153108745700,1.441745849609375,-0.9686126708984375,-0.189666748046875,0.0392608642578125
1761315153118792700,1.451792724609375,-0.9677734375,-0.1895904541015625,0.040496826171875
1761315153128840700,1.4618408203125,-0.9654998779296875,-0.188995361328125,0.0388641357421875
1761315153138888000,1.471887939453125,-0.960845947265625,-0.1860504150390625,0.032501220703125
1761315153148935700,1.481935791015625,-0.96148681640625,-0.1838836669921875,0.0240478515625
1761315153158982700,1.491982666015625,-0.959686279296875,-0.183837890625,0.01776123046875
1761315153169029600,1.502029541015625,-0.9631805419921875,-0.1868743896484375,0.012054443359375
1761315153179078000,1.512077880859375,-0.96588134765625,-0.187042236328125,0.0129547119140625
1761315153189124900,1.522124755859375,-0.9640350341796875,-0.1853179931640625,0.0204315185546875
1761315153199172600,1.532172607421875,-0.9648895263671875,-0.1854400634765625,0.02960205078125
1761315153209219600,1.542219482421875,-0.9606781005859375,-0.1843109130859375,0.0347900390625
1761315153219267800,1.552267822265625,-0.9543609619140625,-0.18206787109375,0.035888671875
1761315153229314800,1.562314697265625,-0.9585418701171875,-0.177978515625,0.0359344482421875
1761315153239358700,1.572358642578125,-0.9622955322265625,-0.17388916015625,0.0345001220703125
1761315153249405700,1.58240576171875,-0.9632720947265625,-0.1719512939453125,0.03118896484375
1761315153259452700,1.59245263671875,-0.9695892333984375,-0.17388916015625,0.028228759765625
1761315153269500700,1.602500732421875,-0.9773101806640625,-0.1750030517578125,0.0244140625
1761315153279547600,1.612547607421875,-0.979034423828125,-0.17620849609375,0.024261474609375
1761315153289595600,1.622595703125,-0.9852447509765625,-0.177734375,0.0269317626953125
1761315153299642600,1.632642578125,-0.9878082275390625,-0.1824493408203125,0.028472900390625
1761315153309690600,1.642690673828125,-0.982757568359375,-0.1862945556640625,0.02923583984375
1761315153319737600,1.652737548828125,-0.980560302734375,-0.1891937255859375,0.028228759765625
1761315153329785600,1.66278564453125,-0.9785614013671875,-0.1908721923828125,0.0267791748046875
1761315153339832800,1.672832763671875,-0.974945068359375,-0.1900177001953125,0.02606201171875
1761315153349879800,1.6828798828125,-0.972900390625,-0.1885986328125,0.023956298828125
1761315153359927600,1.692927490234375,-0.9704742431640625,-0.1858062744140625,0.021881103515625
1761315153369974500,1.702974609375,-0.972137451171875,-0.1844940185546875,0.02130126953125
1761315153380022800,1.713022705078125,-0.9700164794921875,-0.183807373046875,0.019561767578125
1761315153390069800,1.72306982421875,-0.9693756103515625,-0.1829833984375,0.0178680419921875
1761315153400117800,1.73311767578125,-0.9680023193359375,-0.182037353515625,0.01727294921875
1761315153410164500,1.74316455078125,-0.96942138671875,-0.1855926513671875,0.0194854736328125
1761315153420211500,1.75321142578125,-0.968658447265625,-0.1866607666015625,0.019012451171875
1761315153430259700,1.763259765625,-0.9608306884765625,-0.1844024658203125,0.016632080078125
1761315153440306700,1.773306640625,-0.959136962890625,-0.185546875,0.01708984375
1761315153450354700,1.783354736328125,-0.9579010009765625,-0.1870574951171875,0.0185089111328125
1761315153460401700,1.793401611328125,-0.9537200927734375,-0.1867828369140625,0.01885986328125
1761315153470449700,1.80344970703125,-0.94769287109375,-0.1846771240234375,0.01629638671875
1761315153480496600,1.81349658203125,-0.9472198486328125,-0.1844635009765625,0.0157470703125
1761315153490543600,1.823543701171875,-0.954925537109375,-0.18658447265625,0.0185546875
1761315153500591900,1.833591796875,-0.9569091796875,-0.187896728515625,0.0179290771484375
1761315153510638600,1.843638671875,-0.95623779296875,-0.1848297119140625,0.01385498046875
1761315153520686600,1.8536865234375,-0.966339111328125,-0.1840057373046875,0.0156097412109375
1761315153530733600,1.863733642578125,-0.9720458984375,-0.1869964599609375,0.0161590576171875
1761315153540781800,1.87378173828125,-0.9727630615234375,-0.190185546875,0.015899658203125
1761315153550828800,1.883828857421875,-0.9753875732421875,-0.191741943359375,0.0172271728515625
1761315153560876500,1.89387646484375,-0.9771881103515625,-0.1919097900390625,0.020111083984375
1761315153570923500,1.903923583984375,-0.9754638671875,-0.1932830810546875,0.0252685546875
1761315153580970800,1.913970703125,-0.971954345703125,-0.1937103271484375,0.029449462890625
1761315153591018800,1.924018798828125,-0.9745330810546875,-0.192138671875,0.0322723388671875
1761315153601065700,1.934065673828125,-0.968414306640625,-0.1878509521484375,0.0313568115234375
1761315153611113500,1.944113525390625,-0.9636077880859375,-0.186279296875,0.02923583984375
1761315153621160700,1.95416064453125,-0.97039794921875,-0.1881256103515625,0.0324554443359375
1761315153631208700,1.964208740234375,-0.97308349609375,-0.1871490478515625,0.0309600830078125
1761315153641255700,1.974255615234375,-0.969573974609375,-0.1835479736328125,0.0264129638671875
1761315153651302700,1.984302734375,-0.9682159423828125,-0.1823883056640625,0.026031494140625
1761315153661350700,1.9943505859375,-0.9687957763671875,-0.186553955078125,0.0318756103515625
1761315153671397600,2.004397705078125,-0.9693756103515625,-0.191162109375,0.03369140625
1761315153681445600,2.014445556640625,-0.9662322998046875,-0.19061279296875,0.029266357421875
1761315153691492600,2.02449267578125,-0.9631805419921875,-0.187713623046875,0.02655029296875
1761315153701540600,2.03454052734375,-0.9612579345703125,-0.18853759765625,0.025054931640625
1761315153711587600,2.044587646484375,-0.9581298828125,-0.190673828125,0.02392578125
1761315153721635600,2.054635498046875,-0.9633331298828125,-0.1917877197265625,0.0250396728515625
1761315153731682800,2.064682861328125,-0.9698486328125,-0.19146728515625,0.023651123046875
1761315153741729800,2.074729736328125,-0.970977783203125,-0.1902923583984375,0.0189971923828125
1761315153751777500,2.084777587890625,-0.970428466796875,-0.1881561279296875,0.01812744140625
1761315153761824500,2.094824462890625,-0.9705810546875,-0.1872406005859375,0.0169677734375
1761315153771872800,2.104872802734375,-0.9696197509765625,-0.18914794921875,0.017059326171875
1761315153781919700,2.114919677734375,-0.96649169921875,-0.1890106201171875,0.0191802978515625
1761315153791967700,2.1249677734375,-0.96453857421875,-0.1898345947265625,0.0253143310546875
1761315153802014500,2.135014404296875,-0.9666595458984375,-0.1919097900390625,0.029327392578125
1761315153812062700,2.145062744140625,-0.9648895263671875,-0.191131591796875,0.0301513671875
1761315153822109700,2.155109619140625,-0.9640350341796875,-0.1874237060546875,0.02789306640625
1761315153832156700,2.16515673828125,-0.9661407470703125,-0.1840057373046875,0.0263671875
1761315153842204700,2.17520458984375,-0.9683074951171875,-0.1827392578125,0.027435302734375
1761315153852251600,2.185251708984375,-0.971893310546875,-0.18280029296875,0.0277862548828125
1761315153862299600,2.195299560546875,-0.9712066650390625,-0.1833343505859375,0.029205322265625
1761315153872346600,2.2053466796875,-0.97021484375,-0.1847686767578125,0.0314483642578125
1761315153882394600,2.21539453125,-0.9715423583984375,-0.1844635009765625,0.0331878662109375
1761315153892441900,2.22544189453125,-0.967926025390625,-0.182861328125,0.0315093994140625
1761315153902488800,2.23548876953125,-0.9642791748046875,-0.181884765625,0.02691650390625
1761315153912536600,2.24553662109375,-0.9657745361328125,-0.184173583984375,0.0255584716796875
1761315153922583600,2.25558349609375,-0.9674224853515625,-0.18707275390625,0.023712158203125
1761315153932631800,2.2656318359375,-0.964996337890625,-0.1884002685546875,0.0217132568359375
1761315153942678800,2.2756787109375,-0.9715423583984375,-0.1904144287109375,0.0235137939453125
1761315153952726500,2.2857265625,-0.9736785888671875,-0.1906585693359375,0.023529052734375
1761315153962773500,2.2957734375,-0.97198486328125,-0.19061279296875,0.0243682861328125
1761315153972821800,2.30582177734375,-0.9712371826171875,-0.1895599365234375,0.0269012451171875
1761315153982868700,2.31586865234375,-0.96612548828125,-0.1898040771484375,0.0259246826171875
1761315153992915700,2.325915771484375,-0.9632720947265625,-0.1886749267578125,0.0249786376953125
1761315154002963700,2.335963623046875,-0.9624786376953125,-0.1876983642578125,0.026123046875
1761315154013010700,2.3460107421875,-0.9669189453125,-0.1868438720703125,0.028411865234375
1761315154023058700,2.35605859375,-0.9679412841796875,-0.1846466064453125,0.0264434814453125
1761315154033105700,2.366105712890625,-0.969207763671875,-0.1787567138671875,0.02728271484375
1761315154043153700,2.376153564453125,-0.9729766845703125,-0.177490234375,0.0260162353515625
1761315154053200600,2.38620068359375,-0.972015380859375,-0.1771392822265625,0.024139404296875
1761315154063247600,2.39624755859375,-0.972930908203125,-0.179840087890625,0.0235748291015625
1761315154073295600,2.406295654296875,-0.97113037109375,-0.1826629638671875,0.0247344970703125
1761315154083342600,2.416342529296875,-0.96942138671875,-0.1846466064453125,0.0242919921875
1761315154093390600,2.426390625,-0.966644287109375,-0.184539794921875,0.02069091796875
1761315154103437600,2.4364375,-0.9652252197265625,-0.18341064453125,0.0176849365234375
1761315154113485600,2.446485595703125,-0.9677734375,-0.182159423828125,0.0187835693359375
1761315154123532800,2.45653271484375,-0.9683837890625,-0.1829376220703125,0.0168914794921875
1761315154133580800,2.466580810546875,-0.96868896484375,-0.1831207275390625,0.0153350830078125
1761315154143627500,2.47662744140625,-0.972869873046875,-0.18426513671875,0.01898193359375
1761315154153674500,2.486674560546875,-0.97137451171875,-0.187591552734375,0.0244140625
1761315154163722800,2.49672265625,-0.969879150390625,-0.1884002685546875,0.0269775390625
1761315154173769700,2.506769775390625,-0.9711456298828125,-0.1869659423828125,0.0272216796875
1761315154183817700,2.516817626953125,-0.9683685302734375,-0.1871185302734375,0.0272216796875
1761315154193864700,2.52686474609375,-0.96820068359375,-0.1877899169921875,0.0280914306640625
1761315154203912700,2.53691259765625,-0.9660186767578125,-0.1901397705078125,0.0289154052734375
1761315154213959700,2.546959716796875,-0.9659576416015625,-0.1897735595703125,0.0299530029296875
1761315154224006700,2.557006591796875,-0.969390869140625,-0.1894378662109375,0.03204345703125
1761315154234054700,2.5670546875,-0.9706878662109375,-0.18963623046875,0.0351409912109375
1761315154244105500,2.57710546875,-0.970062255859375,-0.1874237060546875,0.0322723388671875
1761315154254153700,2.58715380859375,-0.9703369140625,-0.182861328125,0.0281524658203125
1761315154264200700,2.59720068359375,-0.9723663330078125,-0.1812286376953125,0.0247344970703125
1761315154274248700,2.607248779296875,-0.9719696044921875,-0.18316650390625,0.0262908935546875
1761315154284295700,2.617295654296875,-0.971221923828125,-0.1871337890625,0.0308837890625
1761315154294342700,2.6273427734375,-0.9727935791015625,-0.18841552734375,0.033966064453125
1761315154304390700,2.637390625,-0.9703369140625,-0.187255859375,0.0323486328125
1761315154314437600,2.647437744140625,-0.9683685302734375,-0.1851806640625,0.028900146484375
1761315154324486000,2.65748583984375,-0.9683074951171875,-0.1837921142578125,0.0286865234375
1761315154334532900,2.667532958984375,-0.967071533203125,-0.185943603515625,0.02978515625
1761315154344580600,2.67758056640625,-0.9672088623046875,-0.1875762939453125,0.0300140380859375
1761315154354627600,2.687627685546875,-0.966278076171875,-0.1874237060546875,0.027313232421875
1761315154364675800,2.69767578125,-0.963836669921875,-0.1868896484375,0.0272979736328125
1761315154374722800,2.707722900390625,-0.9622955322265625,-0.187835693359375,0.029327392578125
1761315154384769800,2.717769775390625,-0.962799072265625,-0.188201904296875,0.0292510986328125
1761315154394817500,2.727817626953125,-0.9653472900390625,-0.1882781982421875,0.0262298583984375
1761315154404864500,2.737864501953125,-0.9652099609375,-0.1886444091796875,0.0223388671875
1761315154414912800,2.747912841796875,-0.9671173095703125,-0.1878509521484375,0.021209716796875
1761315154424959700,2.757959716796875,-0.97052001953125,-0.1891326904296875,0.02362060546875
1761315154435007500,2.768007568359375,-0.9691162109375,-0.1909942626953125,0.0269775390625
1761315154445054700,2.7780546875,-0.9741668701171875,-0.1891326904296875,0.0274200439453125
1761315154455102700,2.788102783203125,-0.97332763671875,-0.187774658203125,0.02716064453125
1761315154465149700,2.798149658203125,-0.9745025634765625,-0.1890411376953125,0.0264739990234375
1761315154475196700,2.80819677734375,-0.9738616943359375,-0.191192626953125,0.0274810791015625
1761315154485244700,2.81824462890625,-0.9691162109375,-0.1907196044921875,0.0282745361328125
1761315154495291600,2.828291748046875,-0.9677734375,-0.1898956298828125,0.0281524658203125
1761315154505339600,2.838339599609375,-0.9662322998046875,-0.1893768310546875,0.02911376953125
1761315154515386600,2.84838671875,-0.9625091552734375,-0.1894378662109375,0.0290069580078125
1761315154525434600,2.8584345703125,-0.9610595703125,-0.1910400390625,0.0312652587890625
1761315154535481600,2.868481689453125,-0.9627685546875,-0.190643310546875,0.033538818359375
1761315154545528600,2.878528564453125,-0.962890625,-0.188568115234375,0.0316162109375
1761315154555576600,2.88857666015625,-0.965545654296875,-0.18572998046875,0.0289306640625
1761315154565623800,2.898623779296875,-0.9664306640625,-0.186431884765625,0.02783203125
1761315154575671600,2.908671630859375,-0.9664154052734375,-0.1896514892578125,0.02783203125
1761315154585718500,2.918718505859375,-0.9664306640625,-0.189544677734375,0.026885986328125
1761315154595766800,2.928766845703125,-0.9669189453125,-0.1913604736328125,0.0272674560546875
1761315154605813800,2.938813720703125,-0.967681884765625,-0.194000244140625,0.027191162109375
1761315154615860700,2.94886083984375,-0.9664459228515625,-0.1931610107421875,0.0247802734375
1761315154625908700,2.95890869140625,-0.962982177734375,-0.190277099609375,0.0240020751953125
1761315154635955500,2.96895556640625,-0.961700439453125,-0.1881866455078125,0.0238800048828125
1761315154646003700,2.979003662109375,-0.9603729248046875,-0.1886749267578125,0.0256805419921875
1761315154656050700,2.98905078125,-0.959869384765625,-0.1902923583984375,0.0288238525390625
1761315154666098700,2.9990986328125,-0.9595947265625,-0.191314697265625,0.0314788818359375
1761315154676145700,3.009145751953125,-0.962188720703125,-0.1902008056640625,0.0330352783203125
1761315154686193700,3.019193603515625,-0.960968017578125,-0.1885833740234375,0.031585693359375
1761315154696240600,3.02924072265625,-0.9642181396484375,-0.1828765869140625,0.03192138671875
1761315154706287600,3.03928759765625,-0.9686431884765625,-0.1805877685546875,0.0290679931640625
1761315154716335900,3.0493359375,-0.9688262939453125,-0.1823272705078125,0.02825927734375
1761315154726382800,3.0593828125,-0.97198486328125,-0.1842193603515625,0.0276947021484375
1761315154736430600,3.0694306640625,-0.975372314453125,-0.1874542236328125,0.02490234375
1761315154746477600,3.0794775390625,-0.9743194580078125,-0.1892242431640625,0.0197906494140625
1761315154756525800,3.08952587890625,-0.975860595703125,-0.19012451171875,0.018890380859375
1761315154766572800,3.09957275390625,-0.977691650390625,-0.1907958984375,0.0203399658203125
1761315154776619800,3.109619873046875,-0.977813720703125,-0.1912689208984375,0.0225372314453125
1761315154786667500,3.11966748046875,-0.9774322509765625,-0.192108154296875,0.024017333984375
1761315154796714800,3.12971484375,-0.977081298828125,-0.1892547607421875,0.02630615234375
1761315154806762800,3.1397626953125,-0.97540283203125,-0.186981201171875,0.02734375
1761315154816809700,3.149809814453125,-0.9699859619140625,-0.1835479736328125,0.0255279541015625
1761315154826857500,3.159857421875,-0.9684906005859375,-0.180755615234375,0.026458740234375
1761315154836904700,3.16990478515625,-0.96844482421875,-0.1798095703125,0.027740478515625
1761315154846952700,3.17995263671875,-0.967041015625,-0.1808624267578125,0.029296875
1761315154856999700,3.189999755859375,-0.9673919677734375,-0.1822662353515625,0.029632568359375
1761315154867046700,3.200046630859375,-0.965972900390625,-0.18310546875,0.0284271240234375
1761315154877094700,3.2100947265625,-0.9659881591796875,-0.184417724609375,0.0289459228515625
1761315154887141600,3.2201416015625,-0.96453857421875,-0.18634033203125,0.02923583984375
1761315154897189600,3.230189697265625,-0.9627838134765625,-0.187713623046875,0.0262908935546875
1761315154907236600,3.240236572265625,-0.9610748291015625,-0.187469482421875,0.0263671875
1761315154917284600,3.25028466796875,-0.963043212890625,-0.1874847412109375,0.0250396728515625
1761315154927331600,3.26033154296875,-0.96539306640625,-0.1887969970703125,0.0225982666015625
1761315154937378600,3.270378662109375,-0.9686126708984375,-0.1881866455078125,0.0211181640625
1761315154947426600,3.280426513671875,-0.9707794189453125,-0.186248779296875,0.0177764892578125
1761315154957473800,3.290473876953125,-0.9728546142578125,-0.184967041015625,0.018402099609375
1761315154967521800,3.300521728515625,-0.972991943359375,-0.1856231689453125,0.0196380615234375
1761315154977568500,3.310568603515625,-0.9730987548828125,-0.185150146484375,0.0207672119140625
1761315154987616800,3.32061669921875,-0.973388671875,-0.1848907470703125,0.0214996337890625
1761315154997663700,3.330663818359375,-0.97406005859375,-0.1849365234375,0.02197265625
1761315155007710700,3.340710693359375,-0.9728240966796875,-0.18450927734375,0.0230255126953125
1761315155017758700,3.3507587890625,-0.9708099365234375,-0.1824493408203125,0.02362060546875
1761315155027805400,3.360805419921875,-0.9693603515625,-0.1833038330078125,0.0241546630859375
1761315155037853700,3.370853759765625,-0.9681396484375,-0.1854248046875,0.0254058837890625
1761315155047900700,3.380900634765625,-0.96771240234375,-0.1865692138671875,0.0266265869140625
1761315155057948700,3.39094873046875,-0.966064453125,-0.1863250732421875,0.0264129638671875
1761315155067995600,3.40099560546875,-0.96685791015625,-0.1859893798828125,0.0278167724609375
1761315155078042600,3.411042724609375,-0.9677886962890625,-0.1864776611328125,0.027374267578125
1761315155088090600,3.421090576171875,-0.9673309326171875,-0.1861572265625,0.02801513671875
1761315155098137600,3.4311376953125,-0.968170166015625,-0.187469482421875,0.0262451171875
1761315155108185900,3.441185791015625,-0.9717864990234375,-0.1873321533203125,0.0229034423828125
1761315155118232800,3.45123291015625,-0.9737091064453125,-0.18707275390625,0.021453857421875
1761315155128280600,3.461280517578125,-0.97320556640625,-0.1893157958984375,0.0183563232421875
1761315155138327600,3.47132763671875,-0.9704132080078125,-0.1892852783203125,0.018035888671875
1761315155148375800,3.481375732421875,-0.9703521728515625,-0.1903533935546875,0.017181396484375
1761315155158422800,3.4914228515625,-0.9688873291015625,-0.18975830078125,0.017974853515625
1761315155168469800,3.5014697265625,-0.968963623046875,-0.1897735595703125,0.0189056396484375
1761315155178517500,3.511517578125,-0.9680023193359375,-0.18975830078125,0.0173187255859375
1761315155188564700,3.521564697265625,-0.9669647216796875,-0.1888275146484375,0.0184478759765625
1761315155198612700,3.53161279296875,-0.962677001953125,-0.188018798828125,0.0189056396484375
1761315155208659700,3.54165966796875,-0.9620819091796875,-0.18780517578125,0.01983642578125
1761315155218707500,3.55170751953125,-0.9632110595703125,-0.1892852783203125,0.0214996337890625
1761315155228754700,3.561754638671875,-0.9612274169921875,-0.18963623046875,0.0233917236328125
1761315155238798300,3.57179833984375,-0.9658050537109375,-0.1892547607421875,0.0243377685546875
1761315155248846600,3.5818466796875,-0.9672393798828125,-0.1880035400390625,0.022125244140625
1761315155258893600,3.5918935546875,-0.968963623046875,-0.186431884765625,0.019805908203125
1761315155268941300,3.60194140625,-0.9715118408203125,-0.1869354248046875,0.018707275390625
1761315155278988500,3.611988525390625,-0.9705810546875,-0.1884002685546875,0.0175323486328125
1761315155289036500,3.62203662109375,-0.968902587890625,-0.1905517578125,0.0178375244140625
1761315155299083500,3.63208349609375,-0.967132568359375,-0.1920623779296875,0.019805908203125
1761315155309130500,3.642130615234375,-0.9664764404296875,-0.1930389404296875,0.0205078125
1761315155319178500,3.652178466796875,-0.962738037109375,-0.1923065185546875,0.0206451416015625
1761315155329225500,3.6622255859375,-0.963470458984375,-0.1926727294921875,0.023590087890625
1761315155339273500,3.6722734375,-0.96185302734375,-0.1937408447265625,0.0260467529296875
1761315155349320400,3.682320556640625,-0.95703125,-0.192047119140625,0.0251922607421875
1761315155359368400,3.692368408203125,-0.956787109375,-0.1921539306640625,0.0252227783203125
1761315155369415400,3.70241552734375,-0.9592437744140625,-0.1937103271484375,0.02606201171875
1761315155379462400,3.71246240234375,-0.9632110595703125,-0.1927337646484375,0.024566650390625
1761315155389510400,3.722510498046875,-0.967559814453125,-0.1910858154296875,0.0211334228515625
1761315155399557600,3.7325576171875,-0.9745635986328125,-0.18939208984375,0.0192108154296875
1761315155409605400,3.74260546875,-0.9813232421875,-0.188995361328125,0.01910400390625
1761315155419652400,3.75265234375,-0.9832611083984375,-0.189605712890625,0.020477294921875
1761315155429700600,3.76270068359375,-0.98150634765625,-0.192626953125,0.021759033203125
1761315155439747600,3.77274755859375,-0.97955322265625,-0.195709228515625,0.0246124267578125
1761315155449794600,3.782794677734375,-0.9773406982421875,-0.197845458984375,0.0273284912109375
1761315155459842600,3.792842529296875,-0.972442626953125,-0.198455810546875,0.0282745361328125
1761315155469889300,3.80288916015625,-0.9681854248046875,-0.196990966796875,0.0267333984375
1761315155479937500,3.8129375,-0.9679718017578125,-0.1947021484375,0.02825927734375
1761315155489984500,3.822984619140625,-0.9629669189453125,-0.1930999755859375,0.027374267578125
1761315155500032500,3.833032470703125,-0.959503173828125,-0.1900177001953125,0.0260162353515625
1761315155510079500,3.84307958984375,-0.9593048095703125,-0.1900634765625,0.0296173095703125
1761315155520126500,3.85312646484375,-0.9576416015625,-0.19195556640625,0.03277587890625
1761315155530174500,3.863174560546875,-0.9553985595703125,-0.19171142578125,0.033050537109375
1761315155540221400,3.873221435546875,-0.952728271484375,-0.1904296875,0.032196044921875
1761315155550269700,3.883269775390625,-0.9521331787109375,-0.191436767578125,0.0303497314453125
1761315155560316700,3.893316650390625,-0.95477294921875,-0.1929473876953125,0.0285797119140625
1761315155570364400,3.903364501953125,-0.957550048828125,-0.193450927734375,0.025787353515625
1761315155580411400,3.913411376953125,-0.961029052734375,-0.1934814453125,0.0216064453125
1761315155590458400,3.923458251953125,-0.96575927734375,-0.1910247802734375,0.0204010009765625
1761315155600506600,3.933506591796875,-0.970703125,-0.1910400390625,0.017425537109375
1761315155610553600,3.9435537109375,-0.97186279296875,-0.1916351318359375,0.0168304443359375
1761315155620601300,3.953601318359375,-0.9741973876953125,-0.193603515625,0.01800537109375
1761315155630648600,3.963648681640625,-0.978668212890625,-0.1944122314453125,0.019622802734375
1761315155640696600,3.973696533203125,-0.9797210693359375,-0.1934814453125,0.0193634033203125
1761315155650743600,3.98374365234375,-0.9777374267578125,-0.1910552978515625,0.018463134765625
1761315155660790500,3.99379052734375,-0.9759063720703125,-0.1906890869140625,0.019561767578125
1761315155670838500,4.003838623046875,-0.9744110107421875,-0.1937103271484375,0.0245361328125
1761315155680885500,4.013885498046875,-0.9704742431640625,-0.197540283203125,0.026763916015625
1761315155690933500,4.02393359375,-0.965484619140625,-0.1970367431640625,0.028228759765625
1761315155700980500,4.03398046875,-0.9618988037109375,-0.19573974609375,0.0276031494140625
1761315155711028500,4.044028564453125,-0.965850830078125,-0.1939239501953125,0.02703857421875
1761315155721075500,4.054075439453125,-0.9678192138671875,-0.191070556640625,0.0233917236328125
1761315155731122400,4.064122314453125,-0.971832275390625,-0.188934326171875,0.0212860107421875
1761315155741170400,4.07417041015625,-0.9735107421875,-0.185943603515625,0.017333984375
1761315155751217700,4.0842177734375,-0.973876953125,-0.1878814697265625,0.0149383544921875
1761315155761265400,4.094265380859375,-0.974884033203125,-0.1931915283203125,0.0170135498046875
1761315155771312400,4.1043125,-0.9747161865234375,-0.1983184814453125,0.0210723876953125
1761315155781360400,4.1143603515625,-0.971588134765625,-0.20123291015625,0.023223876953125
1761315155791407600,4.12440771484375,-0.9653472900390625,-0.199554443359375,0.021820068359375
1761315155801454600,4.13445458984375,-0.9592132568359375,-0.19708251953125,0.017852783203125
1761315155811502300,4.14450244140625,-0.954498291015625,-0.196075439453125,0.0167999267578125
1761315155821549300,4.15454931640625,-0.953521728515625,-0.19696044921875,0.0182342529296875
1761315155831597600,4.16459765625,-0.953369140625,-0.1981048583984375,0.0195465087890625
1761315155841644500,4.17464453125,-0.955322265625,-0.195892333984375,0.0198516845703125
1761315155851692500,4.184692626953125,-0.9593353271484375,-0.1935577392578125,0.016998291015625
1761315155861739500,4.194739501953125,-0.9624481201171875,-0.19134521484375,0.0150909423828125
1761315155871786500,4.204786376953125,-0.964752197265625,-0.189727783203125,0.0143890380859375
1761315155881834500,4.21483447265625,-0.968719482421875,-0.1910552978515625,0.0160980224609375
1761315155891881500,4.224881591796875,-0.97027587890625,-0.1945648193359375,0.021392822265625
1761315155901929700,4.2349296875,-0.968597412109375,-0.197601318359375,0.023101806640625
1761315155911976400,4.2449765625,-0.9660797119140625,-0.1972808837890625,0.0208740234375
1761315155922024400,4.2550244140625,-0.9633026123046875,-0.197845458984375,0.0199737548828125
1761315155932071400,4.265071533203125,-0.96368408203125,-0.197296142578125,0.0191497802734375
1761315155942118400,4.275118408203125,-0.9633331298828125,-0.1974945068359375,0.0183258056640625
1761315155952166700,4.285166748046875,-0.96478271484375,-0.197509765625,0.0196075439453125
1761315155962213600,4.295213623046875,-0.9694061279296875,-0.1975860595703125,0.021697998046875
1761315155972261400,4.305261474609375,-0.97125244140625,-0.1977996826171875,0.0240020751953125
1761315155982308400,4.315308349609375,-0.9726715087890625,-0.194488525390625,0.0228729248046875
1761315155992356600,4.325356689453125,-0.97412109375,-0.19122314453125,0.02288818359375
1761315156002403600,4.335403564453125,-0.9727630615234375,-0.1901092529296875,0.02215576171875
1761315156012450600,4.345450439453125,-0.9726715087890625,-0.191864013671875,0.0225067138671875
1761315156022498600,4.35549853515625,-0.97216796875,-0.1949310302734375,0.0237884521484375
1761315156032545500,4.365545654296875,-0.9707794189453125,-0.1979217529296875,0.0258941650390625
1761315156042593500,4.375593505859375,-0.9684295654296875,-0.198211669921875,0.026092529296875
1761315156052640500,4.385640625,-0.964202880859375,-0.196807861328125,0.0258941650390625
1761315156062688500,4.3956884765625,-0.959869384765625,-0.1963958740234375,0.0250396728515625
1761315156072735500,4.405735595703125,-0.9586334228515625,-0.1961212158203125,0.0246734619140625
1761315156082782500,4.415782470703125,-0.95989990234375,-0.196441650390625,0.0244140625
1761315156092830500,4.42583056640625,-0.957489013671875,-0.19403076171875,0.02130126953125
1761315156102877700,4.435877685546875,-0.959686279296875,-0.1926116943359375,0.0206146240234375
1761315156112925400,4.445925537109375,-0.9667816162109375,-0.19403076171875,0.024169921875
1761315156122972400,4.455972412109375,-0.968414306640625,-0.194183349609375,0.022216796875
1761315156133019400,4.466019287109375,-0.9695281982421875,-0.19158935546875,0.018829345703125
1761315156143067600,4.476067626953125,-0.9720001220703125,-0.1902923583984375,0.0172576904296875
1761315156153114600,4.486114501953125,-0.973541259765625,-0.1920013427734375,0.0202484130859375
1761315156163162400,4.496162353515625,-0.9712982177734375,-0.1951904296875,0.0215301513671875
1761315156173209300,4.506209228515625,-0.967132568359375,-0.196868896484375,0.0224151611328125
1761315156183257600,4.516257568359375,-0.968536376953125,-0.197906494140625,0.0235595703125
1761315156193304600,4.5263046875,-0.966705322265625,-0.1976470947265625,0.023834228515625
1761315156203351600,4.5363515625,-0.96588134765625,-0.1967620849609375,0.0222625732421875
1761315156213399300,4.5463994140625,-0.96380615234375,-0.19537353515625,0.021759033203125
1761315156223446500,4.556446533203125,-0.96405029296875,-0.1955718994140625,0.0211029052734375
1761315156233494500,4.56649462890625,-0.9636077880859375,-0.1947021484375,0.022430419921875
1761315156243544300,4.57654443359375,-0.961639404296875,-0.1949462890625,0.022918701171875
1761315156253592300,4.58659228515625,-0.965576171875,-0.1939697265625,0.0250396728515625
1761315156263639300,4.596639404296875,-0.9659271240234375,-0.1930999755859375,0.0263671875
1761315156273686300,4.606686279296875,-0.9663543701171875,-0.1912078857421875,0.025909423828125
1761315156283734300,4.616734375,-0.9663848876953125,-0.1890716552734375,0.026123046875
1761315156293781200,4.62678125,-0.9640350341796875,-0.18817138671875,0.0279083251953125
1761315156303829200,4.636829345703125,-0.96295166015625,-0.189300537109375,0.027496337890625
1761315156313876200,4.646876220703125,-0.9640045166015625,-0.1884765625,0.0260009765625
1761315156323924200,4.65692431640625,-0.9664459228515625,-0.186309814453125,0.02435302734375
1761315156333971200,4.66697119140625,-0.97015380859375,-0.1867218017578125,0.022857666015625
1761315156344018200,4.67701806640625,-0.97406005859375,-0.1877288818359375,0.023223876953125
1761315156354066200,4.687066162109375,-0.97503662109375,-0.1879119873046875,0.0221405029296875
1761315156364113400,4.697113525390625,-0.974212646484375,-0.1874237060546875,0.0225067138671875
1761315156374161200,4.7071611328125,-0.9777069091796875,-0.18798828125,0.025665283203125
1761315156384208100,4.7172080078125,-0.9799957275390625,-0.1868743896484375,0.0263519287109375
1761315156394256400,4.72725634765625,-0.9770355224609375,-0.185821533203125,0.0254669189453125
1761315156404303400,4.737303466796875,-0.9780120849609375,-0.1849517822265625,0.026275634765625
1761315156414350300,4.747350341796875,-0.9819183349609375,-0.1865234375,0.02294921875
1761315156424398000,4.757398193359375,-0.9791259765625,-0.1889801025390625,0.020965576171875
1761315156434445000,4.767445068359375,-0.9774017333984375,-0.1922760009765625,0.020965576171875
1761315156444493300,4.777493408203125,-0.9745941162109375,-0.19696044921875,0.0222930908203125
1761315156454540300,4.787540283203125,-0.9726715087890625,-0.2007598876953125,0.0252838134765625
1761315156464587300,4.797587158203125,-0.967254638671875,-0.202911376953125,0.025054931640625
1761315156474635300,4.80763525390625,-0.9596710205078125,-0.2015838623046875,0.023345947265625
1761315156484682200,4.81768212890625,-0.955718994140625,-0.198974609375,0.0194244384765625
1761315156494730200,4.827730224609375,-0.950347900390625,-0.19635009765625,0.0184783935546875
1761315156504777200,4.837777099609375,-0.9501495361328125,-0.1950836181640625,0.01788330078125
1761315156514825500,4.847825439453125,-0.9495086669921875,-0.194549560546875,0.018798828125
1761315156524872200,4.8578720703125,-0.9537200927734375,-0.1935272216796875,0.017608642578125
1761315156534919200,4.867919189453125,-0.9569854736328125,-0.1894989013671875,0.0127410888671875
1761315156544964400,4.87796435546875,-0.9597930908203125,-0.1864166259765625,0.0111541748046875
1761315156555011300,4.88801123046875,-0.963836669921875,-0.1885833740234375,0.013031005859375
1761315156565059000,4.89805908203125,-0.964111328125,-0.1919708251953125,0.01318359375
1761315156575106000,4.90810595703125,-0.965423583984375,-0.193359375,0.0109710693359375
1761315156585154300,4.918154296875,-0.96685791015625,-0.1940460205078125,0.009979248046875
1761315156595201300,4.928201171875,-0.967071533203125,-0.1920318603515625,0.0109100341796875
1761315156605249300,4.938249267578125,-0.9663543701171875,-0.190704345703125,0.0123291015625
1761315156615296300,4.948296142578125,-0.96826171875,-0.1905517578125,0.0144500732421875
1761315156625343200,4.95834326171875,-0.9707489013671875,-0.19000244140625,0.0137176513671875
1761315156635391200,4.96839111328125,-0.968231201171875,-0.1883697509765625,0.010955810546875
1761315156645438200,4.978438232421875,-0.9691162109375,-0.1888580322265625,0.0145263671875
1761315156655486500,4.988486572265625,-0.968719482421875,-0.1925811767578125,0.0214996337890625
1761315156665533200,4.998533203125,-0.9691162109375,-0.1948699951171875,0.03094482421875
1761315156675581200,5.008581298828125,-0.9693756103515625,-0.195709228515625,0.0363006591796875
1761315156685628200,5.018628173828125,-0.9659423828125,-0.19207763671875,0.0350189208984375
1761315156695675100,5.028675048828125,-0.9647674560546875,-0.1870880126953125,0.03570556640625
1761315156705723400,5.038723388671875,-0.96923828125,-0.186309814453125,0.0370635986328125
1761315156715770400,5.048770263671875,-0.9663238525390625,-0.1854248046875,0.0326385498046875
1761315156725818000,5.058818115234375,-0.9629364013671875,-0.1826324462890625,0.0260467529296875
1761315156735865300,5.068865234375,-0.9631805419921875,-0.1826629638671875,0.0224456787109375
1761315156745912300,5.078912353515625,-0.9688262939453125,-0.183807373046875,0.0211944580078125
1761315156755960300,5.088960205078125,-0.9727020263671875,-0.1868438720703125,0.0242156982421875
1761315156766007300,5.09900732421875,-0.9721832275390625,-0.189178466796875,0.02490234375
1761315156776055300,5.10905517578125,-0.97283935546875,-0.1906585693359375,0.022552490234375
1761315156786102300,5.119102294921875,-0.9764404296875,-0.1886444091796875,0.025634765625
1761315156796150300,5.129150390625,-0.982574462890625,-0.18701171875,0.0306854248046875
1761315156806197200,5.139197265625,-0.985260009765625,-0.1886138916015625,0.031036376953125
1761315156816244500,5.149244384765625,-0.98785400390625,-0.1889801025390625,0.0272369384765625
1761315156826292200,5.159292236328125,-0.9884796142578125,-0.1869049072265625,0.0277862548828125
1761315156836339200,5.169339111328125,-0.9847412109375,-0.1865234375,0.0266876220703125
1761315156846387200,5.17938720703125,-0.9768218994140625,-0.1857452392578125,0.02691650390625
1761315156856434400,5.189434326171875,-0.96600341796875,-0.18341064453125,0.0269927978515625
1761315156866482200,5.199482177734375,-0.9622955322265625,-0.184783935546875,0.0290069580078125
1761315156876529200,5.209529052734375,-0.9607696533203125,-0.19183349609375,0.0324249267578125
1761315156886576000,5.219576171875,-0.9688568115234375,-0.1954345703125,0.0303802490234375
1761315156896624400,5.229624267578125,-0.975250244140625,-0.1879425048828125,0.033660888671875
1761315156906671400,5.23967138671875,-0.974395751953125,-0.1820068359375,0.0362701416015625
1761315156916719000,5.249718994140625,-0.9680633544921875,-0.177825927734375,0.0359039306640625
1761315156926766000,5.25976611328125,-0.9651031494140625,-0.1794586181640625,0.0353240966796875
1761315156936813300,5.269813232421875,-0.962677001953125,-0.1851654052734375,0.03704833984375
1761315156946861300,5.279861328125,-0.96038818359375,-0.1915435791015625,0.0357513427734375
1761315156956908300,5.289908203125,-0.954833984375,-0.19793701171875,0.03204345703125
1761315156966956000,5.2999560546875,-0.9548187255859375,-0.2027740478515625,0.028564453125
1761315156977003300,5.310003173828125,-0.959808349609375,-0.20654296875,0.024749755859375
1761315156987050200,5.32005029296875,-0.9637603759765625,-0.206787109375,0.02105712890625
1761315156997098200,5.33009814453125,-0.967437744140625,-0.20233154296875,0.017974853515625
1761315157007145200,5.340145263671875,-0.969573974609375,-0.19549560546875,0.0176849365234375
1761315157017193200,5.350193115234375,-0.971099853515625,-0.1938934326171875,0.0173187255859375
1761315157027240200,5.360240234375,-0.967803955078125,-0.1953277587890625,0.021820068359375
1761315157037288200,5.3702880859375,-0.9674530029296875,-0.19586181640625,0.0271453857421875
1761315157047335200,5.380335205078125,-0.961578369140625,-0.1951446533203125,0.0337982177734375
1761315157057382400,5.39038232421875,-0.956329345703125,-0.1953582763671875,0.0417327880859375
1761315157067430100,5.40043017578125,-0.9528045654296875,-0.196014404296875,0.04229736328125
1761315157077477000,5.41047705078125,-0.9508819580078125,-0.1939849853515625,0.0385894775390625
1761315157087525400,5.420525390625,-0.953643798828125,-0.1923370361328125,0.0341644287109375
1761315157097572400,5.430572265625,-0.9543609619140625,-0.19097900390625,0.0285186767578125
1761315157107620400,5.440620361328125,-0.9547119140625,-0.192230224609375,0.02203369140625
1761315157117667000,5.4506669921875,-0.9566802978515625,-0.191741943359375,0.0196990966796875
1761315157127714000,5.460714111328125,-0.9600067138671875,-0.193603515625,0.0234527587890625
1761315157137762300,5.47076220703125,-0.9587554931640625,-0.196990966796875,0.023406982421875
1761315157147809300,5.480809326171875,-0.9565582275390625,-0.1985015869140625,0.019744873046875
1761315157157857300,5.490857177734375,-0.9554595947265625,-0.2016143798828125,0.0143890380859375
1761315157167904300,5.500904296875,-0.9595184326171875,-0.2034759521484375,0.00811767578125
1761315157177951200,5.510951171875,-0.9659576416015625,-0.2038421630859375,0.0034332275390625
1761315157187999200,5.520999267578125,-0.969818115234375,-0.1972808837890625,0.006011962890625
1761315157198046200,5.531046142578125,-0.97430419921875,-0.188873291015625,0.012603759765625
1761315157208094500,5.541094482421875,-0.9726715087890625,-0.1885223388671875,0.021575927734375
1761315157218141400,5.551141357421875,-0.9737396240234375,-0.191864013671875,0.0279693603515625
1761315157228189200,5.561189208984375,-0.9735260009765625,-0.1938323974609375,0.0299072265625
1761315157238236200,5.571236083984375,-0.9744873046875,-0.1907501220703125,0.0354156494140625
1761315157248280000,5.581280029296875,-0.9797210693359375,-0.1883392333984375,0.04193115234375
1761315157258328000,5.591328125,-0.968109130859375,-0.1854248046875,0.039581298828125
1761315157268375000,5.601375,-0.96282958984375,-0.18267822265625,0.0402069091796875
1761315157278423000,5.611423095703125,-0.9641571044921875,-0.1857452392578125,0.0449676513671875
1761315157288470000,5.621469970703125,-0.9642791748046875,-0.1944427490234375,0.041259765625
1761315157298517000,5.63151708984375,-0.970489501953125,-0.197052001953125,0.0337371826171875
1761315157308565000,5.64156494140625,-0.9720306396484375,-0.19305419921875,0.0219879150390625
1761315157318612200,5.6516123046875,-0.982635498046875,-0.189422607421875,0.0179595947265625
1761315157328660000,5.661659912109375,-0.9888763427734375,-0.188751220703125,0.0157623291015625
1761315157338707000,5.67170703125,-0.984344482421875,-0.189239501953125,0.0167999267578125
1761315157348755000,5.6817548828125,-0.9727325439453125,-0.1808319091796875,0.0284423828125
1761315157358802200,5.69180224609375,-1.012359619140625,-0.1875457763671875,0.06610107421875
1761315157368849200,5.70184912109375,-0.9947509765625,-0.2182159423828125,0.0678863525390625
1761315157378897000,5.71189697265625,-0.9682159423828125,-0.2155914306640625,0.0493927001953125
1761315157388944000,5.72194384765625,-0.9724578857421875,-0.2028045654296875,0.0387725830078125
1761315157398992100,5.7319921875,-0.963775634765625,-0.196685791015625,0.0222930908203125
1761315157409039000,5.7420390625,-0.9544677734375,-0.195159912109375,0.009246826171875
1761315157419086000,5.752086181640625,-0.9530029296875,-0.192230224609375,0.00335693359375
1761315157429133800,5.7621337890625,-0.9394073486328125,-0.190399169921875,-0.0020751953125
1761315157439181000,5.77218115234375,-0.94036865234375,-0.1915130615234375,0.001983642578125
