time,seconds_elapsed,z,y,x
1761315151732244000,0.065243896484375,0.013623666949570179,-0.013163206167519093,0.07846444845199585
1761315151742291000,0.075291015625,0.023393206298351288,0.0004239752306602895,0.09381117671728134
1761315151752339200,0.085339111328125,0.032874058932065964,0.010097641497850418,0.10123953223228455
1761315151762386200,0.09538623046875,0.030732346698641777,-0.001508414396084845,0.09526899456977844
1761315151772434000,0.105433837890625,0.02563904970884323,-0.01630307361483574,0.08567096292972565
1761315151782481000,0.11548095703125,0.024954885244369507,-0.019214972853660583,0.07227499783039093
1761315151792529200,0.125529052734375,0.025463281199336052,-0.02610590308904648,0.05534288287162781
1761315151802576100,0.135576171875,0.0287629384547472,-0.028569325804710388,0.03780011087656021
1761315151812623000,0.145623046875,0.027244670316576958,-0.026791401207447052,0.023869380354881287
1761315151822670800,0.1556708984375,0.028963740915060043,-0.02731551043689251,0.011559983715415001
1761315151832718000,0.165718017578125,0.024886973202228546,-0.027426298707723618,0.009368734434247017
1761315151842766000,0.17576611328125,0.01907462440431118,-0.028480643406510353,0.015208513475954533
1761315151852813000,0.18581298828125,0.00845393817871809,-0.022355638444423676,0.0241391584277153
1761315151862861000,0.195861083984375,-0.0002490055630914867,-0.011107511818408966,0.03112036921083927
1761315151872908000,0.205907958984375,-0.001627191435545683,-0.001106809708289802,0.0389372780919075
1761315151882956000,0.2159560546875,-0.0027414578944444656,0.01113174669444561,0.029997579753398895
1761315151893003000,0.2260029296875,-0.004987035412341356,0.016531571745872498,0.013307017274200916
1761315151903050000,0.236050048828125,-0.007833422161638737,0.014038054272532463,-0.014848721213638783
1761315151913098000,0.246097900390625,-0.015809589996933937,0.014967497438192368,-0.0474250391125679
1761315151923145000,0.25614501953125,-0.022043250501155853,0.03269030153751373,-0.08010628819465637
1761315151933193000,0.26619287109375,-0.031858332455158234,0.04116953909397125,-0.1069251149892807
1761315151943240000,0.276239990234375,-0.03134940192103386,0.037931669503450394,-0.12920965254306793
1761315151953288200,0.2862880859375,-0.03365596383810043,0.035351067781448364,-0.13224992156028748
1761315151963335000,0.2963349609375,-0.03268124908208847,0.02822258323431015,-0.12369797378778458
1761315151973382000,0.3063818359375,-0.0348205640912056,0.023360449820756912,-0.11603152751922607
1761315151983430100,0.31643017578125,-0.03855857625603676,0.024264059960842133,-0.11003649234771729
1761315151993477000,0.32647705078125,-0.03749570995569229,0.032233305275440216,-0.10244674980640411
1761315152003525000,0.336525146484375,-0.02761591412127018,0.0353902131319046,-0.10158947110176086
1761315152013572000,0.346572021484375,-0.020535634830594063,0.03302479535341263,-0.0972389355301857
1761315152023620000,0.3566201171875,-0.008043811656534672,0.030356308445334435,-0.09194856882095337
1761315152033667000,0.3666669921875,-0.006100769154727459,0.018489794805645943,-0.08108340203762054
1761315152043715000,0.376715087890625,-0.0017502295086160302,0.0006197175825946033,-0.06310439854860306
1761315152053762000,0.386761962890625,0.0014953649369999766,-0.0017861821688711643,-0.04286464303731918
1761315152063809300,0.396809326171875,-0.0002972087822854519,-0.002417883835732937,-0.01870684139430523
1761315152073857000,0.40685693359375,0.011997007764875889,0.0001030643325066194,0.010635600425302982
1761315152083904000,0.416904052734375,0.025709889829158783,0.0036975329276174307,0.03363226354122162
1761315152093952000,0.426951904296875,0.029410352930426598,0.013142167590558529,0.058092597872018814
1761315152103999200,0.436999267578125,0.02725159376859665,0.0170303825289011,0.06833457946777344
1761315152114047000,0.447046875,0.02057691477239132,0.008165784180164337,0.06252782791852951
1761315152124094000,0.457093994140625,0.0235894825309515,0.00851332675665617,0.06059090793132782
1761315152134141000,0.467140869140625,0.034579016268253326,0.007877630181610584,0.06397046148777008
1761315152144189200,0.477189208984375,0.04466573894023895,0.01038313191384077,0.07014446705579758
1761315152154236200,0.487236083984375,0.05211353302001953,0.019205918535590172,0.07727721333503723
1761315152164284000,0.497283935546875,0.05588963255286217,0.0377710796892643,0.09470999985933304
1761315152174331000,0.507330810546875,0.04549877345561981,0.0400179885327816,0.1121039018034935
1761315152184379100,0.517379150390625,0.04306517913937569,0.033665020018815994,0.11681503057479858
1761315152194426000,0.527426025390625,0.03497209772467613,0.028692098334431648,0.1060718446969986
1761315152204473900,0.537473876953125,0.03609595075249672,0.010342918336391449,0.07308379560709
1761315152214520800,0.547520751953125,0.04602155461907387,-0.01387027557939291,0.03810823708772659
1761315152224568000,0.557568115234375,0.05361981689929962,-0.024326112121343613,0.026133332401514053
1761315152234619000,0.567618896484375,0.06063937768340111,-0.018096977844834328,0.027968252077698708
1761315152244665900,0.577665771484375,0.06386366486549377,0.015414642170071602,0.03160879388451576
1761315152254713900,0.5877138671875,0.06238321587443352,0.054979097098112106,0.03939907252788544
1761315152264760800,0.5977607421875,0.06623920798301697,0.07492005079984665,0.05025145411491394
1761315152274808800,0.607808837890625,0.06625385582447052,0.08050522953271866,0.061163488775491714
1761315152284855800,0.617855712890625,0.06593294441699982,0.07810971885919571,0.07235915213823318
1761315152294902800,0.62790283203125,0.06016373634338379,0.09052830189466476,0.09095334261655807
1761315152304950800,0.63795068359375,0.050036270171403885,0.09078290313482285,0.10590832680463791
1761315152314997800,0.647997802734375,0.03460671380162239,0.0792708545923233,0.11558039486408234
1761315152325045800,0.658045654296875,0.02365020103752613,0.06178054213523865,0.1182134598493576
1761315152335092700,0.6680927734375,0.01924986019730568,0.034206971526145935,0.12024331837892532
1761315152345140700,0.678140625,0.018984610214829445,0.01671799272298813,0.11669599264860153
1761315152355188000,0.68818798828125,0.022301044315099716,0.020605675876140594,0.11344293504953384
1761315152365235000,0.69823486328125,0.03694683313369751,0.03550739213824272,0.10060570389032364
1761315152375282700,0.70828271484375,0.05649363622069359,0.0594412237405777,0.08259288221597672
1761315152385329700,0.71832958984375,0.08143094182014465,0.0776098370552063,0.055628642439842224
1761315152395378000,0.7283779296875,0.09745091944932938,0.09259704500436783,0.038726624101400375
1761315152405425000,0.7384248046875,0.10195699334144592,0.09147745370864868,0.03136351704597473
1761315152415472600,0.74847265625,0.10242703557014465,0.07169735431671143,0.029982132837176323
1761315152425519600,0.75851953125,0.09678193926811218,0.08812586218118668,0.011974903754889965
1761315152435567900,0.76856787109375,0.11324639618396759,-0.07934142649173737,-0.05874613672494888
1761315152445614800,0.77861474609375,0.14027509093284607,-0.13452239334583282,-0.12670308351516724
1761315152455661800,0.788661865234375,0.14185699820518494,-0.0997079536318779,-0.14613963663578033
1761315152465709600,0.79870947265625,0.10767453163862228,-0.06196962669491768,-0.13895708322525024
1761315152475756800,0.8087568359375,0.05590427666902542,-0.04061507061123848,-0.12629961967468262
1761315152485804800,0.8188046875,0.01182150561362505,-0.032155539840459824,-0.117213174700737
1761315152495851800,0.828851806640625,-0.025683525949716568,-0.03038054332137108,-0.09805332869291306
1761315152505900000,0.838900146484375,-0.05258304998278618,-0.0244267787784338,-0.07257220149040222
1761315152515946800,0.84894677734375,-0.06650526076555252,-0.008577775210142136,-0.07255595922470093
1761315152525994800,0.858994873046875,-0.07807003706693649,-0.06618674099445343,-0.09505514055490494
1761315152536041700,0.869041748046875,-0.06157441437244415,-0.13018490374088287,-0.11052890866994858
1761315152546088700,0.879088623046875,-0.02846093662083149,-0.15720772743225098,-0.10721034556627274
1761315152556137000,0.889136962890625,-0.004473844077438116,-0.1733856350183487,-0.09866639226675034
1761315152566183700,0.89918359375,-0.012198609299957752,-0.15180844068527222,-0.0842839851975441
1761315152576231700,0.909231689453125,-0.03183409571647644,-0.10224194824695587,-0.073567695915699
1761315152586278700,0.919278564453125,-0.060143496841192245,-0.03826190158724785,-0.06656783819198608
1761315152596327000,0.929326904296875,-0.07131652534008026,0.02195989340543747,-0.0550675131380558
1761315152606374000,0.939373779296875,-0.07720663398504257,0.04766898602247238,-0.045406896620988846
1761315152616420900,0.9494208984375,-0.06873086094856262,0.06378909945487976,-0.03001915104687214
1761315152626468900,0.95946875,-0.06726319342851639,0.07623724639415741,-0.019821641966700554
1761315152636515800,0.969515869140625,-0.06351479142904282,0.06703735888004303,-0.01618296466767788
1761315152646563800,0.979563720703125,-0.055273640900850296,0.04047871753573418,-0.012342154048383236
1761315152656610800,0.98961083984375,-0.041738659143447876,0.011628692969679832,-0.0009366337326355278
1761315152666658800,0.999658935546875,-0.03500165790319443,-0.024865401908755302,0.01001934427767992
1761315152676705800,1.009705810546875,-0.03164714202284813,-0.03898122161626816,0.023620108142495155
1761315152686752800,1.019752685546875,-0.02792670577764511,-0.04044462740421295,0.031066305935382843
1761315152696800800,1.02980078125,-0.030423685908317566,-0.03605999797582626,0.023861922323703766
1761315152706848000,1.039847900390625,-0.027641747146844864,-0.028001541271805763,0.018817629665136337
1761315152716895700,1.049895751953125,-0.019584087654948235,-0.024207068607211113,0.012978648766875267
1761315152726942700,1.059942626953125,-0.014599715359508991,-0.028420189395546913,0.013069995678961277
1761315152736990700,1.06999072265625,-0.0036828855518251657,-0.024026772007346153,0.019467707723379135
1761315152747038000,1.080037841796875,0.0022029669489711523,-0.0013046825770288706,0.0317227765917778
1761315152757085700,1.090085693359375,0.01414458081126213,0.001288171042688191,0.04320153221487999
1761315152767132700,1.100132568359375,0.027187146246433258,-0.0010644654976204038,0.05986147001385689
1761315152777179600,1.1101796875,0.04614246264100075,-0.00421418622136116,0.07389552891254425
1761315152787228000,1.120227783203125,0.056894708424806595,-0.005941246170550585,0.0847465768456459
1761315152797275000,1.13027490234375,0.06311345845460892,-0.013145629316568375,0.08004982769489288
1761315152807322600,1.140322509765625,0.0688680112361908,-0.01525911409407854,0.07363773882389069
1761315152817369600,1.15036962890625,0.06312224268913269,-0.016112390905618668,0.060978930443525314
1761315152827417900,1.16041796875,0.05645715072751045,-0.01894519478082657,0.04528891667723656
1761315152837464800,1.17046484375,0.04688787832856178,-0.020115921273827553,0.03867069631814957
1761315152847511800,1.18051171875,0.04212215170264244,-0.016381636261940002,0.0364789143204689
1761315152857559800,1.190559814453125,0.03459206596016884,-0.021462148055434227,0.029523270204663277
1761315152867606800,1.200606689453125,0.034919898957014084,-0.018278872594237328,0.020922858268022537
1761315152877654800,1.21065478515625,0.03159254789352417,-0.002225603675469756,0.016957677900791168
1761315152887701800,1.22070166015625,0.03257232531905174,0.010089118964970112,0.004612861201167107
1761315152897750000,1.23075,0.025734391063451767,0.01221778430044651,-0.018243985250592232
1761315152907796700,1.240796630859375,0.0208863727748394,0.001208009896799922,-0.04963066801428795
1761315152917844700,1.2508447265625,0.021438712254166603,-0.01661199890077114,-0.09050992876291275
1761315152927891700,1.2608916015625,0.01872335374355316,-0.03175393491983414,-0.11374840140342712
1761315152937938700,1.270938720703125,0.011724832467734814,-0.029870547354221344,-0.13198253512382507
1761315152947987000,1.280987060546875,0.008235293440520763,-0.00692022405564785,-0.13753469288349152
1761315152958034000,1.291033935546875,0.0012471582740545273,0.023448068648576736,-0.13635677099227905
1761315152968081700,1.30108154296875,-0.005558816250413656,0.03730742633342743,-0.12718777358531952
1761315152978128600,1.311128662109375,-0.012955212965607643,0.03915299475193024,-0.10770036280155182
1761315152988177000,1.321177001953125,-0.005290635861456394,0.04657522588968277,-0.08746353536844254
1761315152998224000,1.331223876953125,0.0003001382574439049,0.04850788041949272,-0.0658184289932251
1761315153008270800,1.341270751953125,0.002282062778249383,0.038359906524419785,-0.058152519166469574
1761315153018318800,1.35131884765625,0.008606803603470325,0.02076386846601963,-0.05429999157786369
1761315153028365800,1.36136572265625,0.009017197415232658,0.017539046704769135,-0.04615044966340065
1761315153038413800,1.371413818359375,0.0007661914569325745,0.0032437301706522703,-0.04647216200828552
1761315153048460800,1.381460693359375,-0.010410563088953495,-0.008510397747159004,-0.041189514100551605
1761315153058508800,1.3915087890625,-0.015229552984237671,-0.012404737994074821,-0.03176458552479744
1761315153068555800,1.4015556640625,-0.018444521352648735,-0.010848119854927063,-0.016411464661359787
1761315153078603800,1.411603759765625,-0.017587782815098763,0.002931075170636177,-0.0023425165563821793
1761315153088650800,1.421650634765625,-0.010105364955961704,0.003931358456611633,0.013944577425718307
1761315153098698000,1.431697998046875,0.0013334447285160422,-0.004865062423050404,0.020295152440667152
1761315153108745700,1.441745849609375,0.011305651627480984,-0.02942872792482376,0.022056300193071365
1761315153118792700,1.451792724609375,0.016277773305773735,-0.05361955240368843,0.02003229781985283
1761315153128840700,1.4618408203125,0.016760870814323425,-0.0628197118639946,0.01695900969207287
1761315153138888000,1.471887939453125,0.014645787887275219,-0.05348346382379532,0.0120662497356534
1761315153148935700,1.481935791015625,-0.006331399083137512,-0.03111823834478855,0.007969776168465614
1761315153158982700,1.491982666015625,-0.023682426661252975,-0.0014879080699756742,0.0037169738207012415
1761315153169029600,1.502029541015625,-0.0325145348906517,0.016346216201782227,-0.0002665824140422046
1761315153179078000,1.512077880859375,-0.034205906093120575,0.02448723278939724,0.004531102254986763
1761315153189124900,1.522124755859375,-0.03341974318027496,0.007256048731505871,-0.0035108451265841722
1761315153199172600,1.532172607421875,-0.023511184379458427,-0.01852814480662346,-0.015905728563666344
1761315153209219600,1.542219482421875,-0.004394748248159885,-0.030403180047869682,-0.032213062047958374
1761315153219267800,1.552267822265625,0.013733122497797012,-0.042087264358997345,-0.05026530101895332
1761315153229314800,1.562314697265625,0.01497948169708252,-0.04725220054388046,-0.06676651537418365
1761315153239358700,1.572358642578125,0.013965883292257786,-0.04703941568732262,-0.07616134732961655
1761315153249405700,1.58240576171875,0.007788414601236582,-0.04045155271887779,-0.0827859565615654
1761315153259452700,1.59245263671875,0.004054662771522999,-0.02786039374768734,-0.07792435586452484
1761315153269500700,1.602500732421875,0.0005912217311561108,-0.011620436795055866,-0.05850085988640785
1761315153279547600,1.612547607421875,0.0032719597220420837,-0.002416286151856184,-0.03136058524250984
1761315153289595600,1.622595703125,0.0065710837952792645,-0.005538309924304485,-0.010641992092132568
1761315153299642600,1.632642578125,0.016272446140646935,-0.011662248522043228,0.005356681998819113
1761315153309690600,1.642690673828125,0.028051607310771942,-0.015472699888050556,0.017427725717425346
1761315153319737600,1.652737548828125,0.0384959951043129,-0.030775755643844604,0.028811408206820488
1761315153329785600,1.66278564453125,0.04173732548952103,-0.036020584404468536,0.034022681415081024
1761315153339832800,1.672832763671875,0.038412902504205704,-0.03850105404853821,0.043966926634311676
1761315153349879800,1.6828798828125,0.03970400243997574,-0.027062511071562767,0.04986263066530228
1761315153359927600,1.692927490234375,0.0342479832470417,-0.025061678141355515,0.05252153053879738
1761315153369974500,1.702974609375,0.02690218761563301,-0.021263210102915764,0.0601608082652092
1761315153380022800,1.713022705078125,0.020868264138698578,-0.008609999902546406,0.07178311049938202
1761315153390069800,1.72306982421875,0.014994928613305092,0.0017014936311170459,0.07061877846717834
1761315153400117800,1.73311767578125,0.01082947850227356,0.007090666331350803,0.0682046189904213
1761315153410164500,1.74316455078125,0.011318701319396496,-0.0007725830073468387,0.0595027431845665
1761315153420211500,1.75321142578125,0.012312060222029686,-0.0007206514128483832,0.05850831791758537
1761315153430259700,1.763259765625,0.007837150245904922,-0.0011044129496440291,0.04950043931603432
1761315153440306700,1.773306640625,0.0018343853298574686,-0.00914263166487217,0.034624822437763214
1761315153450354700,1.783354736328125,0.012524580582976341,-0.01968155987560749,0.02419641613960266
1761315153460401700,1.793401611328125,0.012673716992139816,-0.02436153218150139,0.014756042510271072
1761315153470449700,1.80344970703125,0.004986236337572336,-0.022518092766404152,-0.0009004147723317146
1761315153480496600,1.81349658203125,-0.0015307849971577525,-0.031443942338228226,-0.02664785645902157
1761315153490543600,1.823543701171875,-0.0025334651581943035,-0.04296078160405159,-0.04505482688546181
1761315153500591900,1.833591796875,-0.0008804410463199019,-0.027062244713306427,-0.047199737280607224
1761315153510638600,1.843638671875,-0.006250971462577581,-0.016037555411458015,-0.050269030034542084
1761315153520686600,1.8536865234375,-0.01722133159637451,-0.012836968526244164,-0.04661916568875313
1761315153530733600,1.863733642578125,-0.024831846356391907,0.004748149774968624,-0.04025900736451149
1761315153540781800,1.87378173828125,-0.03087322786450386,0.017971809953451157,-0.02793016843497753
1761315153550828800,1.883828857421875,-0.03313771262764931,0.01938488334417343,-0.013472399674355984
1761315153560876500,1.89387646484375,-0.03376728296279907,0.008155131712555885,0.0006042712484486401
1761315153570923500,1.903923583984375,-0.03167270869016647,-0.007071491796523333,0.003793140407651663
1761315153580970800,1.913970703125,-0.02317802421748638,-0.02371305227279663,0.007982824929058552
1761315153591018800,1.924018798828125,-0.01528601162135601,-0.024174312129616737,0.010404970496892929
1761315153601065700,1.934065673828125,-0.007561513222754002,-0.011291270144283772,0.010605772957205772
1761315153611113500,1.944113525390625,-0.005885586142539978,-0.015729693695902824,0.0011685950448736548
1761315153621160700,1.95416064453125,-0.00881133507937193,-0.020363328978419304,0.0013880395563319325
1761315153631208700,1.964208740234375,-0.006374542135745287,-0.002567553659901023,0.01185399666428566
1761315153641255700,1.974255615234375,-0.009254218079149723,0.01979687437415123,0.017716946080327034
1761315153651302700,1.984302734375,-0.0172096136957407,0.02093777246773243,0.016522783786058426
1761315153661350700,1.9943505859375,-0.005175587255507708,0.008008924312889576,0.012764264829456806
1761315153671397600,2.004397705078125,0.009674731642007828,-0.005138569511473179,0.01486683078110218
1761315153681445600,2.014445556640625,0.017647702246904373,-0.008888300508260727,0.009253685362637043
1761315153691492600,2.02449267578125,0.015745140612125397,-0.0123056685552001,0.004995823837816715
1761315153701540600,2.03454052734375,0.015575231052935123,-0.007778560742735863,-0.004603806417435408
1761315153711587600,2.044587646484375,0.016633572056889534,-0.01236212719231844,-0.017704162746667862
1761315153721635600,2.054635498046875,0.00872265174984932,-0.027218304574489594,-0.024205736815929413
1761315153731682800,2.064682861328125,0.0009893643436953425,-0.027234284207224846,-0.02232794277369976
1761315153741729800,2.074729736328125,-0.006717557553201914,-0.012477708980441093,-0.015667110681533813
1761315153751777500,2.084777587890625,-0.017245566472411156,-0.004766525700688362,-0.009461145848035812
1761315153761824500,2.094824462890625,-0.020298346877098083,0.0031619712244719267,-0.001019990653730929
1761315153771872800,2.104872802734375,-0.025052089244127274,0.010333331301808357,0.009616674855351448
1761315153781919700,2.114919677734375,-0.031323302537202835,0.01058979332447052,0.01324176974594593
1761315153791967700,2.1249677734375,-0.03460724651813507,-0.003769704606384039,0.012081430293619633
1761315153802014500,2.135014404296875,-0.02423955872654915,-0.013105149380862713,0.008846222423017025
1761315153812062700,2.145062744140625,-0.014490791596472263,-0.015733422711491585,0.004727377090603113
1761315153822109700,2.155109619140625,-0.012074505910277367,-0.013801299966871738,0.0018572885310277343
1761315153832156700,2.16515673828125,-0.010657438077032566,-0.004454136826097965,0.0006817692192271352
1761315153842204700,2.17520458984375,-0.014153103344142437,0.002555569401010871,0.0001637844106880948
1761315153852251600,2.185251708984375,-0.014307034201920033,0.001002413802780211,0.0035140409599989653
1761315153862299600,2.195299560546875,-0.00686269998550415,-0.002058357233181596,0.004449076950550079
1761315153872346600,2.2053466796875,0.0029622339643538,-0.013337642885744572,0.003686880227178335
1761315153882394600,2.21539453125,0.017887920141220093,-0.019699135795235634,0.002766757970675826
1761315153892441900,2.22544189453125,0.025059014558792114,-0.015459650196135044,0.0005773733137175441
1761315153902488800,2.23548876953125,0.02382916584610939,-0.012182364240288734,-0.008044078014791012
1761315153912536600,2.24553662109375,0.017051421105861664,-0.01101323589682579,-0.014585600234568119
1761315153922583600,2.25558349609375,0.008766060695052147,0.0015896408585831523,-0.016763800755143166
1761315153932631800,2.2656318359375,0.0026996464002877474,0.0038344194181263447,-0.019245333969593048
1761315153942678800,2.2756787109375,-0.0013084110105410218,0.0013869742397218943,-0.00433109886944294
1761315153952726500,2.2857265625,0.0006191849242895842,0.002043976215645671,0.009855826385319233
1761315153962773500,2.2957734375,0.0035451999865472317,-0.004294081125408411,0.014998923055827618
1761315153972821800,2.30582177734375,0.005638444796204567,-0.011884089559316635,0.01625140756368637
1761315153982868700,2.31586865234375,0.008921856060624123,-0.012114985845983028,0.01239541731774807
1761315153992915700,2.325915771484375,0.0026290726382285357,-0.012499812990427017,0.0019065570086240768
1761315154002963700,2.335963623046875,-0.00436065997928381,-0.02149091102182865,-0.014622352086007595
1761315154013010700,2.3460107421875,-0.0004593952908180654,-0.017673535272479057,-0.020987307652831078
1761315154023058700,2.35605859375,-0.0010274475207552314,-0.006148439832031727,-0.01708444394171238
1761315154033105700,2.366105712890625,-0.002370745874941349,-0.00029587719473056495,-0.009616941213607788
1761315154043153700,2.376153564453125,0.002552639925852418,0.009786584414541721,0.000251402409048751
1761315154053200600,2.38620068359375,0.00691995769739151,0.010156497359275818,0.010976218618452549
1761315154063247600,2.39624755859375,0.012945625931024551,0.0017891116440296173,0.01600373350083828
1761315154073295600,2.406295654296875,0.016473514959216118,-0.00993066094815731,0.017909225076436996
1761315154083342600,2.416342529296875,0.01841575838625431,-0.019523900002241135,0.009892578236758709
1761315154093390600,2.426390625,0.012673983350396156,-0.019048258662223816,0.004917527083307505
1761315154103437600,2.4364375,0.003304982790723443,-0.015721438452601433,-0.0009084042394533753
1761315154113485600,2.446485595703125,-0.006678941659629345,-0.012259063310921192,-0.0022280006669461727
1761315154123532800,2.45653271484375,-0.015750467777252197,-0.004770254250615835,-0.005259210709482431
1761315154133580800,2.466580810546875,-0.028073979541659355,0.00027803401462733746,-0.005274390336126089
1761315154143627500,2.47662744140625,-0.038718901574611664,-0.006845389027148485,-0.004960403777658939
1761315154153674500,2.486674560546875,-0.040770065039396286,-0.010814830660820007,-0.007417436223477125
1761315154163722800,2.49672265625,-0.03373772278428078,-0.014535266906023026,-0.003939347807317972
1761315154173769700,2.506769775390625,-0.03359471261501312,-0.01500904280692339,0.003352120751515031
1761315154183817700,2.516817626953125,-0.03430311381816864,-0.010575945489108562,0.00920415110886097
1761315154193864700,2.52686474609375,-0.035348668694496155,-0.011697668582201004,0.005763346794992685
1761315154203912700,2.53691259765625,-0.03567011281847954,-0.014287859201431274,0.006989466026425362
1761315154213959700,2.546959716796875,-0.03394518420100212,-0.018634138628840446,0.006536728702485561
1761315154224006700,2.557006591796875,-0.029336050152778625,-0.028475316241383553,0.0033601103350520134
1761315154234054700,2.5670546875,-0.023139407858252525,-0.03329377621412277,-0.0006740460521541536
1761315154244105500,2.57710546875,-0.01938435062766075,-0.026680080220103264,0.00452923821285367
1761315154254153700,2.58715380859375,-0.02262461930513382,-0.0070608388632535934,0.012548549100756645
1761315154264200700,2.59720068359375,-0.02660045213997364,0.00007403588097076863,0.023970313370227814
1761315154274248700,2.607248779296875,-0.028003938496112823,0.0024104269687086344,0.026226278394460678
1761315154284295700,2.617295654296875,-0.024398550391197205,-0.01221405528485775,0.029326463118195534
1761315154294342700,2.6273427734375,-0.022305838763713837,-0.022063756361603737,0.025247300043702126
1761315154304390700,2.637390625,-0.015176023356616497,-0.02154950052499771,0.02467658370733261
1761315154314437600,2.647437744140625,-0.010101103223860264,-0.019835757091641426,0.02671869657933712
1761315154324486000,2.65748583984375,-0.010065949521958828,-0.01787513680756092,0.02461373433470726
1761315154334532900,2.667532958984375,-0.006214752793312073,-0.019333750009536743,0.022817697376012802
1761315154344580600,2.67758056640625,-0.00657534459605813,-0.017116935923695564,0.022946061566472054
1761315154354627600,2.687627685546875,-0.007380152121186256,-0.014474812895059586,0.01834278739988804
1761315154364675800,2.69767578125,-0.006254167295992374,-0.012286227196455002,0.015748603269457817
1761315154374722800,2.707722900390625,-0.0004623247659765184,-0.014491857029497623,0.005607019178569317
1761315154384769800,2.717769775390625,0.0024628913961350918,-0.021097294986248016,-0.0012716593919321895
1761315154394817500,2.727817626953125,0.001969940261915326,-0.01372113823890686,-0.0023515713401138783
1761315154404864500,2.737864501953125,-0.006046707276254892,-0.0022362563759088516,0.0057500312104821205
1761315154414912800,2.747912841796875,-0.0154916075989604,-0.0025390577502548695,0.0037025928031653166
1761315154424959700,2.757959716796875,-0.018002435564994812,-0.0011997540714219213,0.006756439805030823
1761315154435007500,2.768007568359375,-0.018562233075499535,-0.007339405361562967,0.007711182814091444
1761315154445054700,2.7780546875,-0.02027757465839386,-0.011727496050298214,0.009206813760101795
1761315154455102700,2.788102783203125,-0.02214604802429676,-0.010943993926048279,0.01828952506184578
1761315154465149700,2.798149658203125,-0.017673535272479057,-0.010477674193680286,0.024516794830560684
1761315154475196700,2.80819677734375,-0.01577416993677616,-0.014071610756218433,0.03219974786043167
1761315154485244700,2.81824462890625,-0.013831925578415394,-0.012308863922953606,0.03467169404029846
1761315154495291600,2.828291748046875,-0.013264672830700874,-0.014160560443997383,0.03656493499875069
1761315154505339600,2.838339599609375,-0.019352659583091736,-0.02016119472682476,0.02929557114839554
1761315154515386600,2.84838671875,-0.021226191893219948,-0.023187078535556793,0.01811402291059494
1761315154525434600,2.8584345703125,-0.01709616184234619,-0.03099733032286167,0.006074670236557722
1761315154535481600,2.868481689453125,-0.010765562765300274,-0.03068387694656849,0.0023454460315406322
1761315154545528600,2.878528564453125,-0.004811799619346857,-0.029046032577753067,0.002192314248532057
1761315154555576600,2.88857666015625,-0.0026405241806060076,-0.027408454567193985,-0.00018082863243762404
1761315154565623800,2.898623779296875,-0.002614957746118307,-0.01890338398516178,0.002115348819643259
1761315154575671600,2.908671630859375,-0.003165965899825096,-0.011934157460927963,-0.0006157228490337729
1761315154585718500,2.918718505859375,0.002267149044200778,-0.009034241549670696,-0.005941778887063265
1761315154595766800,2.928766845703125,0.0036932716611772776,-0.005947371479123831,-0.007843808270990849
1761315154605813800,2.938813720703125,0.004230164922773838,-0.00999084860086441,-0.005940180737525225
1761315154615860700,2.94886083984375,0.007477889768779278,-0.008158061653375626,-0.0018815232906490564
1761315154625908700,2.95890869140625,0.005625395104289055,-0.009791644290089607,-0.005283445119857788
1761315154635955500,2.96895556640625,0.004971855320036411,-0.009285910055041313,-0.00893890019506216
1761315154646003700,2.979003662109375,0.003643736941739917,-0.014645787887275219,-0.01678590476512909
1761315154656050700,2.98905078125,0.005369731690734625,-0.02220543660223484,-0.030472954735159874
1761315154666098700,2.9990986328125,0.006256564520299435,-0.030426083132624626,-0.04671743884682655
1761315154676145700,3.009145751953125,0.016286827623844147,-0.0381026454269886,-0.06153899431228638
1761315154686193700,3.019193603515625,0.02154417335987091,-0.03448953479528427,-0.06579525768756866
1761315154696240600,3.02924072265625,0.022473350167274475,-0.03265701234340668,-0.0655747503042221
1761315154706287600,3.03928759765625,0.027940021827816963,-0.02256443165242672,-0.056835852563381195
1761315154716335900,3.0493359375,0.029019134119153023,-0.011505655013024807,-0.04484523460268974
1761315154726382800,3.0593828125,0.026402845978736877,-0.007131146267056465,-0.033976078033447266
1761315154736430600,3.0694306640625,0.023325562477111816,0.0046152579598128796,-0.02045147866010666
1761315154746477600,3.0794775390625,0.02047118730843067,0.012002600356936455,-0.014149108901619911
1761315154756525800,3.08952587890625,0.011173292063176632,0.010334396734833717,-0.0022301310673356056
1761315154766572800,3.09957275390625,0.00609277980402112,0.002133724745362997,0.005222192499786615
1761315154776619800,3.109619873046875,0.004495682194828987,-0.004317782819271088,0.01007713470607996
1761315154786667500,3.11966748046875,0.002808836055919528,-0.013659353367984295,0.01660480909049511
1761315154796714800,3.12971484375,0.005834985990077257,-0.023551132529973984,0.01739337109029293
1761315154806762800,3.1397626953125,0.008192149922251701,-0.019097261130809784,0.019820310175418854
1761315154816809700,3.149809814453125,0.010248376056551933,-0.005668005906045437,0.019171830266714096
1761315154826857500,3.159857421875,0.009983125142753124,-0.0012831110507249832,0.015913452953100204
1761315154836904700,3.16990478515625,0.011406319215893745,0.0003810983616858721,0.01973828487098217
1761315154846952700,3.17995263671875,0.015630358830094337,0.0008732505375519395,0.023434486240148544
1761315154856999700,3.189999755859375,0.01866023615002632,0.0034671693574637175,0.022402776405215263
1761315154867046700,3.200046630859375,0.02149224281311035,0.0011230550007894635,0.017957428470253944
1761315154877094700,3.2100947265625,0.025009745731949806,-0.006399842444807291,0.01233576238155365
1761315154887141600,3.2201416015625,0.033954769372940063,-0.008402805775403976,0.006707437336444855
1761315154897189600,3.230189697265625,0.03665681555867195,-0.01122282724827528,-0.0023068301379680634
1761315154907236600,3.240236572265625,0.033792849630117416,-0.012319516390562057,-0.013509416952729225
1761315154917284600,3.25028466796875,0.02815147675573826,-0.015894277021288872,-0.020352143794298172
1761315154927331600,3.26033154296875,0.024459004402160645,-0.00947925541549921,-0.024337297305464745
1761315154937378600,3.270378662109375,0.01830150932073593,-0.005697034299373627,-0.019210180267691612
1761315154947426600,3.280426513671875,0.008712797425687313,0.004722317215055227,-0.012688631191849709
1761315154957473800,3.290473876953125,0.004728176165372133,0.0044165863655507565,-0.006685866042971611
1761315154967521800,3.300521728515625,0.003279150230810046,0.007919974625110626,0.0015134743880480528
1761315154977568500,3.310568603515625,0.0027108315844088793,0.005425391718745232,0.011963718570768833
1761315154987616800,3.32061669921875,0.006335127633064985,0.0031411985401064157,0.018257034942507744
1761315154997663700,3.330663818359375,0.011078217066824436,0.0012263857061043382,0.025413747876882553
1761315155007710700,3.340710693359375,0.013048424385488033,-0.0002247707889182493,0.03164820745587349
1761315155017758700,3.3507587890625,0.013100089505314827,-0.001156877144239843,0.0338788703083992
1761315155027805400,3.360805419921875,0.0080898841843009,-0.0036248285323381424,0.030372019857168198
1761315155037853700,3.370853759765625,0.0041007352992892265,-0.00600436283275485,0.024986043572425842
1761315155047900700,3.380900634765625,0.004609665367752314,-0.007685616612434387,0.016158996149897575
1761315155057948700,3.39094873046875,0.003982757218182087,-0.010565558448433876,0.010394318029284477
1761315155067995600,3.40099560546875,0.01218582596629858,-0.008942361921072006,0.010577542707324028
1761315155078042600,3.411042724609375,0.018940402194857597,-0.015835154801607132,0.01088700257241726
1761315155088090600,3.421090576171875,0.025831064209342003,-0.017250891774892807,0.015507853589951992
1761315155098137600,3.4311376953125,0.03213609755039215,-0.018484733998775482,0.017074057832360268
1761315155108185900,3.441185791015625,0.03062954731285572,-0.016341421753168106,0.026562634855508804
1761315155118232800,3.45123291015625,0.024266190826892853,-0.015022625215351582,0.033783797174692154
1761315155128280600,3.461280517578125,0.020503411069512367,-0.007867244072258472,0.03525812178850174
1761315155138327600,3.47132763671875,0.013337642885744572,-0.008607869036495686,0.0284633319824934
1761315155148375800,3.481375732421875,0.00242081331089139,-0.008098939433693886,0.02828543446958065
1761315155158422800,3.4914228515625,0.0006399576086550951,-0.006445914972573519,0.027112310752272606
1761315155168469800,3.5014697265625,0.001865011639893055,-0.007089867256581783,0.02809847891330719
1761315155178517500,3.511517578125,0.0022778017446398735,-0.0031292142812162638,0.035046666860580444
1761315155188564700,3.521564697265625,0.0008756473544053733,-0.002545981900766492,0.034448787569999695
1761315155198612700,3.53161279296875,0.0003701793903019279,0.0015006912872195244,0.033792849630117416
1761315155208659700,3.54165966796875,-0.002953978255391121,-0.008021174930036068,0.023605460301041603
1761315155218707500,3.55170751953125,-0.004805407952517271,-0.02002883516252041,0.013805294409394264
1761315155228754700,3.561754638671875,-0.005596899427473545,-0.02845907211303711,0.006238454952836037
1761315155238798300,3.57179833984375,-0.004357464145869017,-0.025371668860316277,0.0014045510906726122
1761315155248846600,3.5818466796875,-0.002546248259022832,-0.01444179005920887,-0.002406965009868145
1761315155258893600,3.5918935546875,-0.004307130351662636,-0.008987902663648129,0.005315402988344431
1761315155268941300,3.60194140625,-0.006529804784804583,-0.004481301177293062,0.006612362805753946
1761315155278988500,3.611988525390625,-0.009702428244054317,-0.002311623888090253,0.009101619012653828
1761315155289036500,3.62203662109375,-0.009213738143444061,-0.003820837242528796,0.011364241130650043
1761315155299083500,3.63208349609375,-0.01245214231312275,-0.007398793939501047,0.008279767818748951
1761315155309130500,3.642130615234375,-0.01498241163790226,-0.007632886059582233,0.010118946433067322
1761315155319178500,3.652178466796875,-0.015362710691988468,-0.007928230799734592,0.005905027035623789
1761315155329225500,3.6622255859375,-0.014301974326372147,-0.019648535177111626,0.003796602366492152
1761315155339273500,3.6722734375,-0.01110271830111742,-0.020729247480630875,-0.0005411543534137309
1761315155349320400,3.682320556640625,-0.00743075180798769,-0.022779081016778946,-0.010751713998615742
1761315155359368400,3.692368408203125,-0.010325607843697071,-0.028202343732118607,-0.028554946184158325
1761315155369415400,3.70241552734375,-0.009949303232133389,-0.03778493031859398,-0.04489397257566452
1761315155379462400,3.71246240234375,-0.013007677160203457,-0.033308688551187515,-0.05369199067354202
1761315155389510400,3.722510498046875,-0.016653545200824738,-0.02261822670698166,-0.051424309611320496
1761315155399557600,3.7325576171875,-0.02381744794547558,-0.012634302489459515,-0.034819766879081726
1761315155409605400,3.74260546875,-0.026433737948536873,-0.007081078831106424,-0.008770588785409927
1761315155419652400,3.75265234375,-0.03105671890079975,-0.0011861718958243728,0.01312299259006977
1761315155429700600,3.76270068359375,-0.02828862890601158,-0.004055461846292019,0.03278084844350815
1761315155439747600,3.77274755859375,-0.021625665947794914,-0.010923488065600395,0.043713923543691635
1761315155449794600,3.782794677734375,-0.012630041688680649,-0.022640597075223923,0.05118701979517937
1761315155459842600,3.792842529296875,-0.006937268190085888,-0.023547669872641563,0.0543532520532608
1761315155469889300,3.80288916015625,-0.005648298189043999,-0.026798857375979424,0.05016037076711655
1761315155479937500,3.8129375,-0.007552458439022303,-0.022854182869195938,0.0467054545879364
1761315155489984500,3.822984619140625,-0.007095193490386009,-0.012961071915924549,0.039078693836927414
1761315155500032500,3.833032470703125,-0.008524245582520962,-0.006036054342985153,0.031984031200408936
1761315155510079500,3.84307958984375,-0.0025238776579499245,-0.007474161684513092,0.026446254923939705
1761315155520126500,3.85312646484375,0.008560731075704098,-0.00686110183596611,0.015670305117964745
1761315155530174500,3.863174560546875,0.024472586810588837,-0.001422128058038652,0.008929046802222729
1761315155540221400,3.873221435546875,0.03530951961874962,-0.0041276332922279835,-0.006061354652047157
1761315155550269700,3.883269775390625,0.041424937546253204,-0.009295230731368065,-0.022284798324108124
1761315155560316700,3.893316650390625,0.04494936391711235,-0.01727113127708435,-0.03844486176967621
1761315155570364400,3.903364501953125,0.05116518214344978,-0.019828299060463905,-0.04078098386526108
1761315155580411400,3.913411376953125,0.04468943923711777,-0.015680160373449326,-0.04048244655132294
1761315155590458400,3.923458251953125,0.03862595558166504,-0.012182896956801414,-0.039021968841552734
1761315155600506600,3.933506591796875,0.03328445181250572,-0.0020160130225121975,-0.03746588155627251
1761315155610553600,3.9435537109375,0.029097432270646095,0.005854160524904728,-0.032282304018735886
1761315155620601300,3.953601318359375,0.02594105340540409,0.0043896883726119995,-0.027295803651213646
1761315155630648600,3.963648681640625,0.02473464049398899,0.0031201594974845648,-0.011154649779200554
1761315155640696600,3.973696533203125,0.027721643447875977,0.009341304190456867,0.005768673028796911
1761315155650743600,3.98374365234375,0.02478950284421444,0.012427641078829765,0.018808841705322266
1761315155660790500,3.99379052734375,0.021445104852318764,-0.0002716424351092428,0.025404958054423332
1761315155670838500,4.003838623046875,0.02008955553174019,-0.015459916554391384,0.02389334887266159
1761315155680885500,4.013885498046875,0.024754082784056664,-0.03301893547177315,0.018457304686307907
1761315155690933500,4.02393359375,0.025475798174738884,-0.034335337579250336,0.009349026717245579
1761315155700980500,4.03398046875,0.026982082054018974,-0.042637743055820465,-0.004606735892593861
1761315155711028500,4.044028564453125,0.029315544292330742,-0.04681810364127159,-0.0014181332662701607
1761315155721075500,4.054075439453125,0.0331004299223423,-0.04333069548010826,0.010241718962788582
1761315155731122400,4.064122314453125,0.021939653903245926,-0.024047279730439186,0.02809128910303116
1761315155741170400,4.07417041015625,0.017256485298275948,0.006259493995457888,0.04886181652545929
1761315155751217700,4.0842177734375,0.0076094502583146095,0.020067451521754265,0.05910832807421684
1761315155761265400,4.094265380859375,0.005845638457685709,0.022170815616846085,0.0629400834441185
1761315155771312400,4.1043125,0.00868936162441969,0.00430047232657671,0.060746971517801285
1761315155781360400,4.1143603515625,0.015740081667900085,-0.010913367383182049,0.05295775830745697
1761315155791407600,4.12440771484375,0.019540412351489067,-0.011533884331583977,0.04646124318242073
1761315155801454600,4.13445458984375,0.018211495131254196,-0.007159376051276922,0.042688872665166855
1761315155811502300,4.14450244140625,0.01631132885813713,-0.008123706094920635,0.0259248074144125
1761315155821549300,4.15454931640625,0.016019180417060852,-0.015034609474241734,0.011806059628725052
1761315155831597600,4.16459765625,0.011513377539813519,-0.01756993867456913,0.0003259709046687931
1761315155841644500,4.17464453125,0.011438809335231781,-0.02346617728471756,-0.013264140114188194
1761315155851692500,4.184692626953125,0.008488559164106846,-0.01543781254440546,-0.0176375824958086
1761315155861739500,4.194739501953125,0.002426938619464636,-0.0007752461824566126,-0.01769936829805374
1761315155871786500,4.204786376953125,-0.0030839405953884125,0.009308546781539917,-0.012614861130714417
1761315155881834500,4.21483447265625,-0.004674912896007299,0.009994843043386936,-0.008078965358436108
1761315155891881500,4.224881591796875,-0.002484462922438979,0.0005289037944748998,-0.005037635564804077
1761315155901929700,4.2349296875,0.005052815657109022,-0.002019474981352687,-0.002880475018173456
1761315155911976400,4.2449765625,0.002948119305074215,-0.006431533955037594,-0.006460295990109444
1761315155922024400,4.2550244140625,0.0028551749419420958,-0.011951201595366001,-0.012442288920283318
1761315155932071400,4.265071533203125,-0.0034168355632573366,-0.012522183358669281,-0.020676782354712486
1761315155942118400,4.275118408203125,-0.014303038828074932,-0.016597086563706398,-0.023384151980280876
1761315155952166700,4.285166748046875,-0.015325693413615227,-0.02387896738946438,-0.029318740591406822
1761315155962213600,4.295213623046875,-0.017193367704749107,-0.028209000825881958,-0.03236539661884308
1761315155972261400,4.305261474609375,-0.016038620844483376,-0.02594158612191677,-0.02287069521844387
1761315155982308400,4.315308349609375,-0.011058776639401913,-0.022339927032589912,-0.01336054690182209
1761315155992356600,4.325356689453125,-0.006984139792621136,-0.014167750254273415,0.0006897587445564568
1761315156002403600,4.335403564453125,-0.009096825495362282,-0.0033220271579921246,0.017343303188681602
1761315156012450600,4.345450439453125,-0.009123989380896091,0.00088976213010028,0.025769012048840523
1761315156022498600,4.35549853515625,-0.008086688816547394,0.0015582155901938677,0.029385318979620934
1761315156032545500,4.365545654296875,-0.006617422681301832,-0.005001682788133621,0.03309989720582962
1761315156042593500,4.375593505859375,-0.003064233111217618,-0.008028632029891014,0.03280055522918701
1761315156052640500,4.385640625,0.0020003002136945724,-0.007730091456323862,0.02708354964852333
1761315156062688500,4.3956884765625,0.008291752077639103,-0.011990616098046303,0.01937716081738472
1761315156072735500,4.405735595703125,0.007446464616805315,-0.018544122576713562,0.012145878747105598
1761315156082782500,4.415782470703125,0.005148955620825291,-0.019059976562857628,0.006459231022745371
1761315156092830500,4.42583056640625,0.00737402681261301,-0.009673932567238808,-0.0054549528285861015
1761315156102877700,4.435877685546875,0.0015169365797191858,-0.014867362566292286,-0.016559801995754242
1761315156112925400,4.445925537109375,-0.0011736550368368626,-0.01696193963289261,-0.02707795612514019
1761315156122972400,4.455972412109375,-0.0021813951898366213,-0.007489341776818037,-0.023750869557261467
1761315156133019400,4.466019287109375,-0.002379534300416708,0.002704173792153597,-0.014277473092079163
1761315156143067600,4.476067626953125,-0.01028619334101677,0.0018722022650763392,-0.004461061209440231
1761315156153114600,4.486114501953125,-0.012076104059815407,0.0003158508916385472,0.006610764656215906
1761315156163162400,4.496162353515625,-0.009064069017767906,-0.0035052525345236063,0.015049257315695286
1761315156173209300,4.506209228515625,-0.006599313113838434,-0.013065202161669731,0.019877834245562553
1761315156183257600,4.516257568359375,-0.006632070057094097,-0.018881279975175858,0.021755894646048546
1761315156193304600,4.5263046875,-0.0046573360450565815,-0.020986242219805717,0.02467179112136364
1761315156203351600,4.5363515625,-0.006337524391710758,-0.017374197021126747,0.02075454592704773
1761315156213399300,4.5463994140625,-0.012839099392294884,-0.012997024692595005,0.014898255467414856
1761315156223446500,4.556446533203125,-0.017899371683597565,-0.004312456585466862,0.006292250473052263
1761315156233494500,4.56649462890625,-0.017527062445878983,0.004010720644146204,0.007415305823087692
1761315156243544300,4.57654443359375,-0.0181659534573555,0.0070579093880951405,0.0010239854454994202
1761315156253592300,4.58659228515625,-0.017491109669208527,0.0036786242853850126,-0.002805640222504735
1761315156263639300,4.596639404296875,-0.008295480161905289,0.0018607506062835455,-0.004734834190458059
1761315156273686300,4.606686279296875,-0.004029362928122282,0.000024234765078290366,-0.007330883294343948
1761315156283734300,4.616734375,0.003023486817255616,-0.0051622712053358555,-0.014654044061899185
1761315156293781200,4.62678125,0.010941597633063793,-0.00618093041703105,-0.023061642423272133
1761315156303829200,4.636829345703125,0.01498241163790226,-0.010090450756251812,-0.035652536898851395
1761315156313876200,4.646876220703125,0.01290381420403719,-0.009060073643922806,-0.038896266371011734
1761315156323924200,4.65692431640625,0.018222946673631668,-0.0032748891972005367,-0.0442044772207737
1761315156333971200,4.66697119140625,0.020073309540748596,-0.0020746025256812572,-0.040702953934669495
1761315156344018200,4.67701806640625,0.026577282696962357,-0.0014817827614024282,-0.03285009041428566
1761315156354066200,4.687066162109375,0.03632578253746033,0.0016383767360821366,-0.027479294687509537
1761315156364113400,4.697113525390625,0.04290485754609108,0.003513242118060589,-0.016929980367422104
1761315156374161200,4.7071611328125,0.05650242418050766,0.0010399643797427416,-0.01203748770058155
1761315156384208100,4.7172080078125,0.06527168303728104,0.007844873704016209,0.00039175100391730666
1761315156394256400,4.72725634765625,0.07088296115398407,0.011090467683970928,0.0028690234757959843
1761315156404303400,4.737303466796875,0.06923259794712067,0.01056529302150011,0.01130937971174717
1761315156414350300,4.747350341796875,0.0660189613699913,0.018312694504857063,0.02636662684381008
1761315156424398000,4.757398193359375,0.056222524493932724,0.03567836806178093,0.045823682099580765
1761315156434445000,4.767445068359375,0.050328683108091354,0.03515612334012985,0.05653917416930199
1761315156444493300,4.777493408203125,0.04824982210993767,0.028602883219718933,0.058509115129709244
1761315156454540300,4.787540283203125,0.04836593568325043,0.007195594720542431,0.05609655752778053
1761315156464587300,4.797587158203125,0.053518086671829224,-0.00875114742666483,0.055755406618118286
1761315156474635300,4.80763525390625,0.05018647015094757,-0.015220764093101025,0.04840082302689552
1761315156484682200,4.81768212890625,0.04838670790195465,-0.012629775330424309,0.03749491274356842
1761315156494730200,4.827730224609375,0.04110908508300781,-0.00905474741011858,0.01793079636991024
1761315156504777200,4.837777099609375,0.032771527767181396,-0.008255000226199627,-0.0019068233668804169
1761315156514825500,4.847825439453125,0.024588700383901596,-0.011816445738077164,-0.023902669548988342
1761315156524872200,4.8578720703125,0.020192619413137436,-0.010607902891933918,-0.03169827535748482
1761315156534919200,4.867919189453125,0.016217319294810295,-0.0006838997360318899,-0.03636519983410835
1761315156544964400,4.87796435546875,0.011004980653524399,0.0059875850565731525,-0.03755110502243042
1761315156555011300,4.88801123046875,0.008041148073971272,0.008026767522096634,-0.03808107227087021
1761315156565059000,4.89805908203125,0.009070194326341152,-0.00011904330312972888,-0.04018949717283249
1761315156575106000,4.90810595703125,0.0035148400347679853,-0.01227211207151413,-0.036730848252773285
1761315156585154300,4.918154296875,-0.006732737645506859,-0.023901870474219322,-0.03514573723077774
1761315156595201300,4.928201171875,-0.01612517423927784,-0.0276260357350111,-0.037030722945928574
1761315156605249300,4.938249267578125,-0.0243745818734169,-0.030361633747816086,-0.03784564882516861
1761315156615296300,4.948296142578125,-0.03134540468454361,-0.0258070956915617,-0.03538888320326805
1761315156625343200,4.95834326171875,-0.03904833272099495,-0.008317052386701107,-0.029897179454565048
1761315156635391200,4.96839111328125,-0.050086069852113724,0.011115235276520252,-0.023454725742340088
1761315156645438200,4.978438232421875,-0.06411879509687424,0.010354103520512581,-0.018810972571372986
1761315156655486500,4.988486572265625,-0.06953806430101395,-0.005368666257709265,-0.022424083203077316
1761315156665533200,4.998533203125,-0.06391719728708267,-0.0253362488001585,-0.032820265740156174
1761315156675581200,5.008581298828125,-0.04891933873295784,-0.04122147336602211,-0.03954847529530525
1761315156685628200,5.018628173828125,-0.03489619866013527,-0.045281995087862015,-0.04290032759308815
1761315156695675100,5.028675048828125,-0.02863350883126259,-0.0601019524037838,-0.05805398151278496
1761315156705723400,5.038723388671875,-0.019631225615739822,-0.05903668701648712,-0.06350786983966827
1761315156715770400,5.048770263671875,-0.016103336587548256,-0.02732563018798828,-0.06597208976745605
1761315156725818000,5.058818115234375,-0.010522149503231049,0.023445671424269676,-0.06747891008853912
1761315156735865300,5.068865234375,-0.00043516053119674325,0.06043591350317001,-0.06702430546283722
1761315156745912300,5.078912353515625,-0.00012223910016473383,0.0747930109500885,-0.062132347375154495
1761315156755960300,5.088960205078125,-0.0026964505668729544,0.07286914438009262,-0.05139102041721344
1761315156766007300,5.09900732421875,-0.005506884306669235,0.06651964038610458,-0.03933728486299515
1761315156776055300,5.10905517578125,-0.004542820155620575,0.06637529283761978,-0.026377812027931213
1761315156786102300,5.119102294921875,-0.007330084685236216,0.0548616498708725,-0.012836170382797718
1761315156796150300,5.129150390625,-0.006548979319632053,0.03989601880311966,0.0064927865751087666
1761315156806197200,5.139197265625,-0.007068828213959932,0.02815680392086506,0.024639032781124115
1761315156816244500,5.149244384765625,-0.016743293032050133,0.017583254724740982,0.04363935440778732
1761315156826292200,5.159292236328125,-0.027347467839717865,0.012084092944860458,0.058460112661123276
1761315156836339200,5.169339111328125,-0.03536970913410187,0.021830463781952858,0.07280736416578293
1761315156846387200,5.17938720703125,-0.03970346972346306,0.04104836657643318,0.07422149926424026
1761315156856434400,5.189434326171875,-0.035408057272434235,0.04326891154050827,0.06827279925346375
1761315156866482200,5.199482177734375,-0.02436659298837185,0.031189611181616783,0.05813946947455406
1761315156876529200,5.209529052734375,-0.014632205478847027,0.008311991579830647,0.04940083995461464
1761315156886576000,5.219576171875,-0.01624075509607792,-0.021221132948994637,0.056110139936208725
1761315156896624400,5.229624267578125,-0.01714463159441948,-0.05440491810441017,0.07734964787960052
1761315156906671400,5.23967138671875,-0.02209251932799816,-0.0569373182952404,0.09872578084468842
1761315156916719000,5.249718994140625,-0.022366823628544807,-0.03922782838344574,0.10303397476673126
1761315156926766000,5.25976611328125,-0.013338175602257252,-0.03200799971818924,0.10662977397441864
1761315156936813300,5.269813232421875,-0.007260575890541077,-0.03039146214723587,0.09741869568824768
1761315156946861300,5.279861328125,-0.0008064051507972181,-0.032393891364336014,0.08372072875499725
1761315156956908300,5.289908203125,0.008896023035049438,-0.032469525933265686,0.0649651512503624
1761315156966956000,5.2999560546875,0.011921107769012451,-0.038432344794273376,0.04385906830430031
1761315156977003300,5.310003173828125,0.01068007480353117,-0.04164544865489006,0.03596705570816994
1761315156987050200,5.32005029296875,0.0017033577896654606,-0.04320952296257019,0.03243543580174446
1761315156997098200,5.33009814453125,-0.012347480282187462,-0.033553432673215866,0.04432325437664986
1761315157007145200,5.340145263671875,-0.026912573724985123,-0.024717064574360847,0.05059473216533661
1761315157017193200,5.350193115234375,-0.035708993673324585,-0.006072539836168289,0.06581922620534897
1761315157027240200,5.360240234375,-0.03971012681722641,0.001680720946751535,0.07266221940517426
1761315157037288200,5.3702880859375,-0.026667030528187752,-0.002907373011112213,0.07477676868438721
1761315157047335200,5.380335205078125,-0.013918478973209858,-0.02100754715502262,0.060980528593063354
1761315157057382400,5.39038232421875,0.008322911337018013,-0.04164385050535202,0.03362853452563286
1761315157067430100,5.40043017578125,0.024990305304527283,-0.052503954619169235,0.0073356772772967815
1761315157077477000,5.41047705078125,0.035946283489465714,-0.05846916884183884,-0.016701215878129005
1761315157087525400,5.420525390625,0.03941105678677559,-0.05855359137058258,-0.029290243983268738
1761315157097572400,5.430572265625,0.03966006264090538,-0.04939844086766243,-0.03573349490761757
1761315157107620400,5.440620361328125,0.03609035909175873,-0.036289032548666,-0.03274436295032501
1761315157117667000,5.4506669921875,0.02815147675573826,-0.03117363154888153,-0.03561471775174141
1761315157127714000,5.460714111328125,0.02160729095339775,-0.030483873561024666,-0.03904034197330475
1761315157137762300,5.47076220703125,0.02257721498608589,-0.031799741089344025,-0.04670731723308563
1761315157147809300,5.480809326171875,0.016107862815260887,-0.026164226233959198,-0.06703629344701767
1761315157157857300,5.490857177734375,0.0008016114588826895,-0.015239939093589783,-0.09744559973478317
1761315157167904300,5.500904296875,-0.024109596386551857,-0.011907259002327919,-0.11415719985961914
1761315157177951200,5.510951171875,-0.05024532601237297,-0.000547279603779316,-0.10910438001155853
1761315157187999200,5.520999267578125,-0.0653023049235344,0.011320298537611961,-0.08818472176790237
1761315157198046200,5.531046142578125,-0.06716412305831909,0.02076786197721958,-0.07492271065711975
1761315157208094500,5.541094482421875,-0.05067436397075653,0.026269953697919846,-0.067284494638443
1761315157218141400,5.551141357421875,-0.029346436262130737,0.025707228109240532,-0.062361910939216614
1761315157228189200,5.561189208984375,-0.00694951880723238,0.005923935677856207,-0.04932919889688492
1761315157238236200,5.571236083984375,0.0017829863354563713,-0.027398334816098213,-0.0400046743452549
1761315157248280000,5.581280029296875,0.009757556021213531,-0.04303588345646858,-0.03207431361079216
1761315157258328000,5.591328125,0.015971509739756584,-0.03491457551717758,-0.030764304101467133
1761315157268375000,5.601375,0.01744290627539158,-0.03380243852734566,-0.04331604763865471
1761315157278423000,5.611423095703125,0.02798236533999443,-0.03308871015906334,-0.06101302057504654
1761315157288470000,5.621469970703125,0.03580620139837265,-0.02244299091398716,-0.06560058146715164
1761315157298517000,5.63151708984375,0.03846936300396919,0.005594768561422825,-0.0483398362994194
1761315157308565000,5.64156494140625,0.03310282528400421,0.04747510701417923,-0.02159184403717518
1761315157318612200,5.6516123046875,0.02666276879608631,0.08675593137741089,-0.002930009737610817
1761315157328660000,5.661659912109375,0.03790583834052086,0.1499016135931015,0.033976342529058456
1761315157338707000,5.67170703125,0.05594902113080025,0.1875952035188675,0.09289585053920746
1761315157348755000,5.6817548828125,0.052129779011011124,0.1159612238407135,0.15093465149402618
1761315157358802200,5.69180224609375,0.07502923905849457,-0.005489573813974857,0.13417431712150574
1761315157368849200,5.70184912109375,0.123619943857193,-0.04885515570640564,0.12458506971597672
1761315157378897000,5.71189697265625,0.14609675109386444,-0.07985088974237442,0.11360352486371994
1761315157388944000,5.72194384765625,0.12750868499279022,-0.08819963037967682,0.08831921219825745
1761315157398992100,5.7319921875,0.10078439861536026,-0.058937620371580124,0.06285300105810165
1761315157409039000,5.7420390625,0.07294344902038574,-0.03484266996383667,0.040178846567869186
1761315157419086000,5.752086181640625,0.03743019700050354,-0.020320983603596687,0.037940725684165955
1761315157429133800,5.7621337890625,0.02087385579943657,0.0119117870926857,0.04838963598012924
1761315157439181000,5.77218115234375,0.004053330980241299,-0.013697436079382896,0.0366072803735733
