time,seconds_elapsed,z,y,x
1761315802187112400,0.059112548828125,-0.98541259765625,-0.003021240234375,-0.01580810546875
1761315802197162800,0.069162841796875,-0.9839324951171875,-0.0029296875,-0.015960693359375
1761315802207206400,0.079206298828125,-0.985076904296875,-0.0024871826171875,-0.01593017578125
1761315802217254700,0.089254638671875,-0.9850921630859375,-0.002044677734375,-0.0161285400390625
1761315802227301600,0.099301513671875,-0.98529052734375,-0.0024261474609375,-0.01666259765625
1761315802237348600,0.1093486328125,-0.984619140625,-0.0019073486328125,-0.0162200927734375
1761315802247395600,0.1193955078125,-0.9857940673828125,-0.0028228759765625,-0.0153656005859375
1761315802257443600,0.129443603515625,-0.9847869873046875,-0.0028533935546875,-0.0152740478515625
1761315802267490600,0.139490478515625,-0.986053466796875,-0.002960205078125,-0.016021728515625
1761315802277537500,0.14953759765625,-0.983551025390625,-0.001678466796875,-0.0160980224609375
1761315802287585500,0.15958544921875,-0.984619140625,-0.00225830078125,-0.016754150390625
1761315802297632500,0.169632568359375,-0.9849700927734375,-0.00115966796875,-0.016693115234375
1761315802307679700,0.1796796875,-0.9859771728515625,-0.0026702880859375,-0.0154876708984375
1761315802317726700,0.189726806640625,-0.9858551025390625,-0.0029296875,-0.01513671875
1761315802327774500,0.1997744140625,-0.98406982421875,-0.0018157958984375,-0.0159912109375
1761315802337821400,0.209821533203125,-0.9853363037109375,-0.00189208984375,-0.0168914794921875
1761315802347868400,0.219868408203125,-0.9853363037109375,-0.0025482177734375,-0.0164031982421875
1761315802357915600,0.22991552734375,-0.985076904296875,-0.0018157958984375,-0.01568603515625
1761315802367963600,0.239963623046875,-0.984344482421875,-0.001983642578125,-0.01654052734375
1761315802378010600,0.2500107421875,-0.9846954345703125,-0.0027618408203125,-0.0162200927734375
1761315802388057300,0.260057373046875,-0.984222412109375,-0.00274658203125,-0.01556396484375
1761315802398104600,0.2701044921875,-0.98492431640625,-0.0025482177734375,-0.01568603515625
1761315802408152600,0.280152587890625,-0.985076904296875,-0.0028228759765625,-0.016326904296875
1761315802418199600,0.290199462890625,-0.985260009765625,-0.00274658203125,-0.016326904296875
1761315802428246500,0.30024658203125,-0.9846649169921875,-0.002105712890625,-0.0152130126953125
1761315802438293500,0.31029345703125,-0.984527587890625,-0.002288818359375,-0.0151824951171875
1761315802448341500,0.320341552734375,-0.985137939453125,-0.0025482177734375,-0.0159454345703125
1761315802458388500,0.330388427734375,-0.98443603515625,-0.00250244140625,-0.0153045654296875
1761315802468435500,0.340435546875,-0.9857330322265625,-0.0027618408203125,-0.0155487060546875
1761315802478483500,0.3504833984375,-0.984771728515625,-0.002410888671875,-0.016021728515625
1761315802488530700,0.36053076171875,-0.9848480224609375,-0.0016326904296875,-0.016265869140625
1761315802498577700,0.37057763671875,-0.9858856201171875,-0.001800537109375,-0.0164642333984375
1761315802508624600,0.380624755859375,-0.98529052734375,-0.0019073486328125,-0.0160980224609375
1761315802518672400,0.39067236328125,-0.9849853515625,-0.0020904541015625,-0.015106201171875
1761315802528719600,0.4007197265625,-0.985809326171875,-0.0024261474609375,-0.015289306640625
1761315802538766600,0.4107666015625,-0.984466552734375,-0.0020751953125,-0.016082763671875
1761315802548813600,0.4208134765625,-0.9846954345703125,-0.00250244140625,-0.0160369873046875
1761315802558861600,0.430861572265625,-0.98516845703125,-0.0020904541015625,-0.0158233642578125
1761315802568908500,0.440908447265625,-0.9854888916015625,-0.0025482177734375,-0.01617431640625
1761315802578955800,0.450955810546875,-0.9850616455078125,-0.002349853515625,-0.015960693359375
1761315802589003500,0.46100341796875,-0.985260009765625,-0.002685546875,-0.0157318115234375
1761315802599050500,0.471050537109375,-0.9862213134765625,-0.00274658203125,-0.0162353515625
1761315802609097500,0.481097412109375,-0.985198974609375,-0.0018768310546875,-0.016632080078125
1761315802619144400,0.49114453125,-0.9849853515625,-0.0022430419921875,-0.0164642333984375
1761315802629192700,0.501192626953125,-0.9852752685546875,-0.00274658203125,-0.016021728515625
1761315802639239400,0.511239501953125,-0.9857940673828125,-0.0020599365234375,-0.0158538818359375
1761315802649286400,0.521286376953125,-0.985443115234375,-0.0022735595703125,-0.01568603515625
1761315802659333400,0.53133349609375,-0.984710693359375,-0.002197265625,-0.0158843994140625
1761315802669381600,0.541381591796875,-0.9854888916015625,-0.0020599365234375,-0.0165252685546875
1761315802679428600,0.5514287109375,-0.985198974609375,-0.0026702880859375,-0.0159912109375
1761315802689475600,0.5614755859375,-0.985321044921875,-0.002593994140625,-0.015472412109375
1761315802699522600,0.5715224609375,-0.986083984375,-0.001678466796875,-0.015899658203125
1761315802709570600,0.581570556640625,-0.98577880859375,-0.0022735595703125,-0.0156402587890625
1761315802719617500,0.591617431640625,-0.985931396484375,-0.002349853515625,-0.0157012939453125
1761315802729664500,0.60166455078125,-0.9858856201171875,-0.00274658203125,-0.0157470703125
1761315802739712500,0.61171240234375,-0.9855499267578125,-0.0020751953125,-0.016082763671875
1761315802749759500,0.621759521484375,-0.98468017578125,-0.0023651123046875,-0.0158843994140625
1761315802759806700,0.631806640625,-0.9854583740234375,-0.0022125244140625,-0.015106201171875
1761315802769853700,0.641853759765625,-0.9859161376953125,-0.0025482177734375,-0.0159149169921875
1761315802779901400,0.6519013671875,-0.986114501953125,-0.00262451171875,-0.015716552734375
1761315802789948400,0.661948486328125,-0.9857025146484375,-0.0020751953125,-0.016265869140625
1761315802799995600,0.67199560546875,-0.985382080078125,-0.0023651123046875,-0.0155487060546875
1761315802810042600,0.682042724609375,-0.98541259765625,-0.001861572265625,-0.0155029296875
1761315802820090600,0.692090576171875,-0.984832763671875,-0.002197265625,-0.01593017578125
1761315802830137600,0.7021376953125,-0.9854583740234375,-0.0029449462890625,-0.0161895751953125
1761315802840184600,0.7121845703125,-0.9854278564453125,-0.00250244140625,-0.015594482421875
1761315802850232600,0.722232666015625,-0.986083984375,-0.0021514892578125,-0.015533447265625
1761315802860279600,0.732279541015625,-0.9871368408203125,-0.0028228759765625,-0.0156097412109375
1761315802870322700,0.74232275390625,-0.985015869140625,-0.00238037109375,-0.0154876708984375
1761315802880370000,0.752369873046875,-0.98577880859375,-0.0018463134765625,-0.0154876708984375
1761315802890418000,0.76241796875,-0.985748291015625,-0.001373291015625,-0.015777587890625
1761315802900465000,0.77246484375,-0.986053466796875,-0.002899169921875,-0.015625
1761315802910511600,0.78251171875,-0.9815216064453125,-0.002960205078125,-0.0162200927734375
1761315802920558600,0.79255859375,-0.988189697265625,-0.0035247802734375,-0.0142974853515625
1761315802930606800,0.80260693359375,-0.9860687255859375,-0.002838134765625,-0.0156402587890625
1761315802940653800,0.81265380859375,-0.98583984375,-0.0019683837890625,-0.017120361328125
1761315802950700800,0.82270068359375,-0.9854736328125,-0.000091552734375,-0.017486572265625
1761315802960748800,0.832748779296875,-0.9856109619140625,-0.0014495849609375,-0.016845703125
1761315802970795800,0.842795654296875,-0.986419677734375,-0.003265380859375,-0.015533447265625
1761315802980842800,0.8528427734375,-0.9863433837890625,-0.0047760009765625,-0.0149993896484375
1761315802990889700,0.8628896484375,-0.9861297607421875,-0.004486083984375,-0.013702392578125
1761315803000937700,0.872937744140625,-0.9861297607421875,-0.002349853515625,-0.015350341796875
1761315803010985000,0.88298486328125,-0.9862213134765625,-0.000885009765625,-0.0182647705078125
1761315803021032000,0.893031982421875,-0.985626220703125,-0.0012359619140625,-0.0178985595703125
1761315803031079700,0.90307958984375,-0.984619140625,-0.002593994140625,-0.0167083740234375
1761315803041126700,0.913126708984375,-0.985260009765625,-0.00299072265625,-0.014251708984375
1761315803051173600,0.923173583984375,-0.9849700927734375,-0.00469970703125,-0.0134429931640625
1761315803061220900,0.933220947265625,-0.984832763671875,-0.0037078857421875,-0.01617431640625
1761315803071268900,0.943268798828125,-0.984893798828125,-0.002044677734375,-0.016815185546875
1761315803081315800,0.95331591796875,-0.9856109619140625,-0.0011749267578125,-0.0160675048828125
1761315803091362800,0.96336279296875,-0.985931396484375,-0.0009765625,-0.0157012939453125
1761315803101409800,0.973409912109375,-0.9853057861328125,-0.00274658203125,-0.0166473388671875
1761315803111457800,0.983457763671875,-0.9852752685546875,-0.003692626953125,-0.0157928466796875
1761315803121504800,0.9935048828125,-0.9852294921875,-0.00323486328125,-0.0158233642578125
1761315803131551700,1.0035517578125,-0.9855804443359375,-0.002532958984375,-0.0153045654296875
1761315803141600000,1.01360009765625,-0.985748291015625,-0.001495361328125,-0.0162506103515625
1761315803151647000,1.02364697265625,-0.98541259765625,-0.001312255859375,-0.01641845703125
1761315803161693700,1.033693603515625,-0.984771728515625,-0.0019378662109375,-0.015960693359375
1761315803171740700,1.04374072265625,-0.9851226806640625,-0.002838134765625,-0.0148468017578125
1761315803181789000,1.053788818359375,-0.9856109619140625,-0.0028076171875,-0.0156402587890625
1761315803191836000,1.0638359375,-0.9861297607421875,-0.003662109375,-0.0162811279296875
1761315803201883000,1.0738828125,-0.9862518310546875,-0.0024871826171875,-0.0165557861328125
1761315803211930600,1.0839306640625,-0.9855804443359375,-0.0009613037109375,-0.0155181884765625
1761315803221977600,1.0939775390625,-0.9857940673828125,-0.0013885498046875,-0.015960693359375
1761315803232024800,1.10402490234375,-0.984954833984375,-0.0018768310546875,-0.0161895751953125
1761315803242071800,1.11407177734375,-0.985107421875,-0.002716064453125,-0.0164337158203125
1761315803252119800,1.124119873046875,-0.9844970703125,-0.0029144287109375,-0.0158233642578125
1761315803262166800,1.134166748046875,-0.9853515625,-0.003021240234375,-0.0160980224609375
1761315803272213800,1.1442138671875,-0.9865264892578125,-0.0020599365234375,-0.015960693359375
1761315803282261000,1.154260986328125,-0.9854736328125,-0.00189208984375,-0.015289306640625
1761315803292308700,1.164308837890625,-0.984588623046875,-0.0012359619140625,-0.0154571533203125
1761315803302355700,1.174355712890625,-0.9852294921875,-0.002105712890625,-0.015838623046875
1761315803312402700,1.184402587890625,-0.9861297607421875,-0.002716064453125,-0.015350341796875
1761315803322451000,1.194450927734375,-0.985198974609375,-0.0024261474609375,-0.015655517578125
1761315803332498000,1.204497802734375,-0.9854888916015625,-0.00274658203125,-0.016082763671875
1761315803342545000,1.214544921875,-0.985107421875,-0.002593994140625,-0.0155792236328125
1761315803352592000,1.224591796875,-0.9856719970703125,-0.0019683837890625,-0.0165863037109375
1761315803362640000,1.234639892578125,-0.9858245849609375,-0.001800537109375,-0.016632080078125
1761315803372686800,1.244686767578125,-0.9855194091796875,-0.00323486328125,-0.0156707763671875
1761315803382733800,1.25473388671875,-0.9857025146484375,-0.0025177001953125,-0.0163116455078125
1761315803392780800,1.26478076171875,-0.9846038818359375,-0.0019378662109375,-0.016265869140625
1761315803402828800,1.274828857421875,-0.98553466796875,-0.00244140625,-0.0162506103515625
1761315803412875800,1.284875732421875,-0.98577880859375,-0.0029296875,-0.0153656005859375
1761315803422922800,1.2949228515625,-0.985137939453125,-0.0023193359375,-0.0160369873046875
1761315803432970800,1.304970703125,-0.985076904296875,-0.0026397705078125,-0.016326904296875
1761315803443017700,1.315017822265625,-0.98504638671875,-0.0023345947265625,-0.015777587890625
1761315803453065000,1.32506494140625,-0.9848480224609375,-0.002532958984375,-0.0153350830078125
1761315803463112000,1.33511181640625,-0.9857177734375,-0.0021820068359375,-0.015655517578125
1761315803473159700,1.34515966796875,-0.9849090576171875,-0.002685546875,-0.0153045654296875
1761315803483206700,1.35520654296875,-0.9860382080078125,-0.00128173828125,-0.0160064697265625
1761315803493253600,1.365253662109375,-0.9856414794921875,-0.0016937255859375,-0.0160369873046875
1761315803503302000,1.375302001953125,-0.9861602783203125,-0.0018157958984375,-0.01544189453125
1761315803513348900,1.385348876953125,-0.985137939453125,-0.00244140625,-0.015289306640625
1761315803523395800,1.395395751953125,-0.98590087890625,-0.002105712890625,-0.0155181884765625
1761315803533442800,1.40544287109375,-0.9857177734375,-0.00286865234375,-0.0150604248046875
1761315803543490800,1.41549072265625,-0.9858856201171875,-0.00244140625,-0.01629638671875
1761315803553537800,1.425537841796875,-0.986114501953125,-0.0023193359375,-0.016876220703125
1761315803563584800,1.435584716796875,-0.9864959716796875,-0.00164794921875,-0.0166778564453125
1761315803573631700,1.4456318359375,-0.9852294921875,-0.002655029296875,-0.0157012939453125
1761315803583680000,1.455679931640625,-0.9853057861328125,-0.0029754638671875,-0.015289306640625
1761315803593727000,1.46572705078125,-0.9857025146484375,-0.002471923828125,-0.0154571533203125
1761315803603774000,1.47577392578125,-0.98541259765625,-0.0024871826171875,-0.0154266357421875
1761315803613821700,1.48582177734375,-0.984527587890625,-0.0027923583984375,-0.0154876708984375
1761315803623868700,1.49586865234375,-0.985137939453125,-0.0027313232421875,-0.0158538818359375
1761315803633916000,1.505916015625,-0.985687255859375,-0.002655029296875,-0.016326904296875
1761315803643963000,1.515962890625,-0.9858856201171875,-0.0018768310546875,-0.0160980224609375
1761315803654011000,1.526010986328125,-0.9853363037109375,-0.0022735595703125,-0.015411376953125
1761315803664057900,1.536057861328125,-0.9854278564453125,-0.00341796875,-0.0162506103515625
1761315803674104600,1.5461044921875,-0.9852294921875,-0.001861572265625,-0.0154876708984375
1761315803684152800,1.55615283203125,-0.9859161376953125,-0.001983642578125,-0.015411376953125
1761315803694199800,1.56619970703125,-0.986328125,-0.0021209716796875,-0.015350341796875
1761315803704246800,1.576246826171875,-0.9861297607421875,-0.002044677734375,-0.01617431640625
1761315803714293800,1.586293701171875,-0.98553466796875,-0.00244140625,-0.0157470703125
1761315803724341800,1.596341796875,-0.9850006103515625,-0.0025482177734375,-0.0157623291015625
1761315803734388700,1.606388671875,-0.9858551025390625,-0.0032806396484375,-0.0152587890625
1761315803744435700,1.616435791015625,-0.9850921630859375,-0.0032806396484375,-0.0159149169921875
1761315803754483700,1.626483642578125,-0.985382080078125,-0.0017547607421875,-0.01641845703125
1761315803764531000,1.636531005859375,-0.985382080078125,-0.003143310546875,-0.0162200927734375
1761315803774578000,1.646577880859375,-0.9865264892578125,-0.0019378662109375,-0.0157012939453125
1761315803784625000,1.656625,-0.9848785400390625,-0.0020751953125,-0.0155487060546875
1761315803794672600,1.666672607421875,-0.9853973388671875,-0.0028076171875,-0.0157623291015625
1761315803804719600,1.6767197265625,-0.9852447509765625,-0.0026702880859375,-0.015777587890625
1761315803814766800,1.686766845703125,-0.986083984375,-0.002349853515625,-0.0161285400390625
1761315803824814800,1.69681494140625,-0.986053466796875,-0.00274658203125,-0.0155792236328125
1761315803834861800,1.70686181640625,-0.9852142333984375,-0.0023345947265625,-0.015533447265625
1761315803844908800,1.71690869140625,-0.9863128662109375,-0.0021820068359375,-0.015655517578125
1761315803854956000,1.7269560546875,-0.985137939453125,-0.0025482177734375,-0.0157623291015625
1761315803865004000,1.737004150390625,-0.9859771728515625,-0.0025787353515625,-0.0156402587890625
1761315803875051000,1.747051025390625,-0.9857025146484375,-0.0032958984375,-0.01641845703125
1761315803885098000,1.757097900390625,-0.98583984375,-0.001922607421875,-0.0165557861328125
1761315803895145000,1.76714501953125,-0.9856719970703125,-0.00201416015625,-0.0159149169921875
1761315803905193200,1.777193115234375,-0.9855194091796875,-0.0020904541015625,-0.0153961181640625
1761315803915240000,1.787239990234375,-0.9861907958984375,-0.0023040771484375,-0.01611328125
1761315803925287000,1.797286865234375,-0.9853973388671875,-0.0024871826171875,-0.01580810546875
1761315803935335200,1.807335205078125,-0.984893798828125,-0.00286865234375,-0.0165557861328125
1761315803945382100,1.817382080078125,-0.9853668212890625,-0.0028839111328125,-0.015533447265625
1761315803955429000,1.82742919921875,-0.98614501953125,-0.0029144287109375,-0.0152740478515625
1761315803965476000,1.83747607421875,-0.9863128662109375,-0.0021820068359375,-0.0158233642578125
1761315803975523800,1.84752392578125,-0.986663818359375,-0.00177001953125,-0.016021728515625
1761315803985571000,1.857571044921875,-0.9852142333984375,-0.0024261474609375,-0.0157470703125
1761315803995618000,1.8676181640625,-0.9853057861328125,-0.002777099609375,-0.0160369873046875
1761315804005666000,1.877666015625,-0.9861602783203125,-0.002899169921875,-0.0161590576171875
1761315804015713000,1.887713134765625,-0.9854278564453125,-0.0027008056640625,-0.016082763671875
1761315804025760000,1.897760009765625,-0.9862060546875,-0.0022430419921875,-0.01519775390625
1761315804035807200,1.90780712890625,-0.9859466552734375,-0.002288818359375,-0.016326904296875
1761315804045855000,1.91785498046875,-0.985809326171875,-0.0022735595703125,-0.015716552734375
1761315804055902000,1.92790185546875,-0.9865875244140625,-0.0029754638671875,-0.01507568359375
1761315804065949000,1.937948974609375,-0.9861907958984375,-0.0020751953125,-0.0164642333984375
1761315804075996200,1.94799609375,-0.9860992431640625,-0.002777099609375,-0.0158538818359375
1761315804086044200,1.958044189453125,-0.9853515625,-0.0019073486328125,-0.016021728515625
1761315804096091100,1.968091064453125,-0.9862518310546875,-0.0023040771484375,-0.0168609619140625
1761315804106138000,1.97813818359375,-0.9858245849609375,-0.002410888671875,-0.0161895751953125
1761315804116186000,1.98818603515625,-0.985992431640625,-0.0020294189453125,-0.015625
1761315804126233000,1.998233154296875,-0.984619140625,-0.0031280517578125,-0.015869140625
1761315804136280000,2.008280029296875,-0.9859161376953125,-0.0029144287109375,-0.0157012939453125
1761315804146327000,2.0183271484375,-0.985382080078125,-0.002899169921875,-0.0159149169921875
1761315804156375300,2.028375244140625,-0.9849395751953125,-0.0017547607421875,-0.015869140625
1761315804166422000,2.038422119140625,-0.985565185546875,-0.0021820068359375,-0.0159149169921875
1761315804176469000,2.048468994140625,-0.985107421875,-0.002838134765625,-0.0153350830078125
1761315804186517000,2.05851708984375,-0.9862823486328125,-0.0030670166015625,-0.016357421875
1761315804196564000,2.06856396484375,-0.98516845703125,-0.0024871826171875,-0.015777587890625
1761315804206611200,2.078611083984375,-0.9858245849609375,-0.002105712890625,-0.015167236328125
1761315804216658200,2.088658203125,-0.9857177734375,-0.002288818359375,-0.0163116455078125
1761315804226706000,2.098705810546875,-0.98577880859375,-0.0018463134765625,-0.0156707763671875
1761315804236753000,2.1087529296875,-0.986114501953125,-0.0027008056640625,-0.015838623046875
1761315804246800000,2.1187998046875,-0.9853515625,-0.00244140625,-0.0159149169921875
1761315804256847000,2.12884716796875,-0.9849700927734375,-0.002105712890625,-0.0157928466796875
1761315804266895000,2.13889501953125,-0.985992431640625,-0.0015106201171875,-0.0160980224609375
1761315804276942000,2.148942138671875,-0.986297607421875,-0.00311279296875,-0.016754150390625
1761315804286989000,2.158989013671875,-0.9855194091796875,-0.0029754638671875,-0.01654052734375
1761315804297037000,2.169037109375,-0.984954833984375,-0.0021514892578125,-0.0147857666015625
1761315804307084000,2.179083984375,-0.98504638671875,-0.002105712890625,-0.0150909423828125
1761315804317131000,2.189131103515625,-0.986053466796875,-0.0024871826171875,-0.015716552734375
1761315804327178000,2.199177978515625,-0.986083984375,-0.0024566650390625,-0.015472412109375
1761315804337226200,2.209226318359375,-0.9858551025390625,-0.00286865234375,-0.0162506103515625
1761315804347273200,2.219273193359375,-0.9849700927734375,-0.0017547607421875,-0.016357421875
1761315804357320200,2.2293203125,-0.9859771728515625,-0.001678466796875,-0.0155181884765625
1761315804367368000,2.239367919921875,-0.985687255859375,-0.0030059814453125,-0.0153656005859375
1761315804377415000,2.249414794921875,-0.98583984375,-0.003204345703125,-0.0165557861328125
1761315804387462100,2.259462158203125,-0.9849395751953125,-0.00213623046875,-0.0170440673828125
1761315804397509000,2.269509033203125,-0.985321044921875,-0.00213623046875,-0.016632080078125
1761315804407557000,2.27955712890625,-0.9857940673828125,-0.0021209716796875,-0.0164337158203125
1761315804417604000,2.28960400390625,-0.986053466796875,-0.00152587890625,-0.0157012939453125
1761315804427651000,2.299651123046875,-0.9853973388671875,-0.002288818359375,-0.0154876708984375
1761315804437699000,2.309698974609375,-0.9861602783203125,-0.0019073486328125,-0.015533447265625
1761315804447746000,2.31974609375,-0.9861602783203125,-0.001922607421875,-0.01605224609375
1761315804457793000,2.32979296875,-0.9850006103515625,-0.0023345947265625,-0.01519775390625
1761315804467840000,2.339840087890625,-0.985321044921875,-0.0029296875,-0.0158538818359375
1761315804477888000,2.349887939453125,-0.98565673828125,-0.0023040771484375,-0.0158538818359375
1761315804487935000,2.35993505859375,-0.9864654541015625,-0.0020599365234375,-0.0164794921875
1761315804497982000,2.36998193359375,-0.9857177734375,-0.0026092529296875,-0.0150604248046875
1761315804508029000,2.38002880859375,-0.9855804443359375,-0.0018768310546875,-0.0150604248046875
1761315804518077200,2.3900771484375,-0.9863433837890625,-0.0024261474609375,-0.0157623291015625
1761315804528124200,2.400124267578125,-0.9852142333984375,-0.001861572265625,-0.0157318115234375
1761315804538171100,2.410171142578125,-0.9856414794921875,-0.002105712890625,-0.01568603515625
1761315804548219000,2.420218994140625,-0.9852294921875,-0.002044677734375,-0.0162200927734375
1761315804558266000,2.43026611328125,-0.9851837158203125,-0.00238037109375,-0.0160675048828125
1761315804568313000,2.44031298828125,-0.985504150390625,-0.002777099609375,-0.0164794921875
1761315804578360000,2.450360107421875,-0.9864044189453125,-0.0022125244140625,-0.0164337158203125
1761315804588408000,2.460407958984375,-0.9859161376953125,-0.0019989013671875,-0.015655517578125
1761315804598455000,2.470455078125,-0.9849395751953125,-0.001953125,-0.016357421875
1761315804608502300,2.480502197265625,-0.9856109619140625,-0.0022125244140625,-0.0156097412109375
1761315804618550000,2.490550048828125,-0.986328125,-0.0031890869140625,-0.0157012939453125
1761315804628597000,2.500596923828125,-0.9856109619140625,-0.00177001953125,-0.0159759521484375
1761315804638644000,2.51064404296875,-0.985809326171875,-0.0023345947265625,-0.0158538818359375
1761315804648691000,2.52069091796875,-0.985321044921875,-0.0023193359375,-0.015899658203125
1761315804658739200,2.5307392578125,-0.984954833984375,-0.002593994140625,-0.0157318115234375
1761315804668786200,2.5407861328125,-0.9854278564453125,-0.0019073486328125,-0.015289306640625
1761315804678833000,2.5508330078125,-0.9860076904296875,-0.0024261474609375,-0.01531982421875
1761315804688879900,2.5608798828125,-0.9854583740234375,-0.002593994140625,-0.016082763671875
1761315804698928000,2.57092822265625,-0.9858856201171875,-0.0026397705078125,-0.01666259765625
1761315804708975000,2.58097509765625,-0.9857635498046875,-0.0017852783203125,-0.0162506103515625
1761315804719022000,2.59102197265625,-0.9865264892578125,-0.001800537109375,-0.0162506103515625
1761315804729069800,2.60106982421875,-0.985870361328125,-0.002105712890625,-0.0155487060546875
1761315804739117000,2.611116943359375,-0.9852447509765625,-0.0023956298828125,-0.0148773193359375
1761315804749164000,2.6211640625,-0.9850006103515625,-0.0028076171875,-0.0162200927734375
1761315804759211000,2.6312109375,-0.985931396484375,-0.0020599365234375,-0.01629638671875
1761315804769259000,2.641259033203125,-0.9855804443359375,-0.0018768310546875,-0.015869140625
1761315804779306000,2.651305908203125,-0.9850311279296875,-0.0018768310546875,-0.0167999267578125
1761315804789353200,2.661353271484375,-0.9852142333984375,-0.0019989013671875,-0.0164794921875
1761315804799400200,2.671400146484375,-0.9852447509765625,-0.0024261474609375,-0.015289306640625
1761315804809448000,2.681447998046875,-0.985748291015625,-0.0027618408203125,-0.0163421630859375
1761315804819495000,2.691494873046875,-0.9857177734375,-0.0023956298828125,-0.01666259765625
1761315804829542100,2.701542236328125,-0.9853057861328125,-0.0026092529296875,-0.0156707763671875
1761315804839590100,2.711590087890625,-0.9856414794921875,-0.0025177001953125,-0.0158538818359375
1761315804849637000,2.72163720703125,-0.9860992431640625,-0.002227783203125,-0.01544189453125
1761315804859684000,2.73168408203125,-0.985198974609375,-0.002532958984375,-0.01519775390625
1761315804869730600,2.74173046875,-0.9866180419921875,-0.002044677734375,-0.0154571533203125
1761315804879778300,2.7517783203125,-0.98565673828125,-0.0022430419921875,-0.016326904296875
1761315804889825300,2.7618251953125,-0.9862823486328125,-0.0016937255859375,-0.015350341796875
1761315804899872500,2.77187255859375,-0.986358642578125,-0.00177001953125,-0.0152130126953125
1761315804909919500,2.78191943359375,-0.985809326171875,-0.0022735595703125,-0.0152740478515625
1761315804919967500,2.791967529296875,-0.9846649169921875,-0.0024566650390625,-0.0158233642578125
1761315804930014500,2.802014404296875,-0.98675537109375,-0.00201416015625,-0.0164031982421875
1761315804940061400,2.8120615234375,-0.9853363037109375,-0.0023040771484375,-0.016143798828125
1761315804950109400,2.822109375,-0.9853515625,-0.0021209716796875,-0.015472412109375
1761315804960156400,2.832156494140625,-0.985076904296875,-0.0020751953125,-0.0162200927734375
1761315804970203400,2.842203369140625,-0.9864654541015625,-0.0021820068359375,-0.0165252685546875
1761315804980250400,2.85225048828125,-0.986114501953125,-0.00238037109375,-0.016387939453125
1761315804990298600,2.862298583984375,-0.9854888916015625,-0.0021209716796875,-0.0160369873046875
1761315805000345300,2.872345458984375,-0.9857635498046875,-0.0024566650390625,-0.015899658203125
1761315805010392300,2.882392333984375,-0.9860076904296875,-0.0024871826171875,-0.0158538818359375
1761315805020440300,2.8924404296875,-0.985076904296875,-0.0023193359375,-0.015594482421875
1761315805030487600,2.902487548828125,-0.9860382080078125,-0.0027923583984375,-0.0164031982421875
1761315805040534500,2.912534423828125,-0.9861602783203125,-0.0025482177734375,-0.0161590576171875
1761315805050581500,2.92258154296875,-0.9853668212890625,-0.0020751953125,-0.015960693359375
1761315805060629200,2.932629150390625,-0.98565673828125,-0.002197265625,-0.0168304443359375
1761315805070676200,2.94267626953125,-0.986297607421875,-0.002044677734375,-0.016876220703125
1761315805080723500,2.952723388671875,-0.986236572265625,-0.0023956298828125,-0.0152587890625
1761315805090770400,2.9627705078125,-0.985015869140625,-0.002716064453125,-0.0150299072265625
1761315805100818400,2.972818359375,-0.98541259765625,-0.00238037109375,-0.01593017578125
1761315805110865400,2.982865478515625,-0.9861907958984375,-0.0022125244140625,-0.0162506103515625
1761315805120912400,2.992912353515625,-0.9853973388671875,-0.0029754638671875,-0.0153045654296875
1761315805130960400,3.00296044921875,-0.986480712890625,-0.0027008056640625,-0.0157928466796875
1761315805141007400,3.01300732421875,-0.985626220703125,-0.0033111572265625,-0.0155792236328125
1761315805151054300,3.023054443359375,-0.9859161376953125,-0.002838134765625,-0.016693115234375
1761315805161101300,3.033101318359375,-0.987091064453125,-0.0025634765625,-0.0163726806640625
1761315805171149600,3.043149658203125,-0.986663818359375,-0.002716064453125,-0.0155029296875
1761315805181196500,3.053196533203125,-0.985870361328125,-0.002410888671875,-0.0149993896484375
1761315805191243500,3.063243408203125,-0.9853668212890625,-0.0029144287109375,-0.01507568359375
1761315805201290500,3.07329052734375,-0.9856414794921875,-0.0024261474609375,-0.015167236328125
1761315805211338500,3.08333837890625,-0.9863433837890625,-0.002532958984375,-0.0162506103515625
1761315805221385500,3.093385498046875,-0.985626220703125,-0.00250244140625,-0.0161590576171875
1761315805231432400,3.103432373046875,-0.986053466796875,-0.002655029296875,-0.01593017578125
1761315805241480400,3.11348046875,-0.9858856201171875,-0.0025177001953125,-0.0153656005859375
1761315805251527400,3.12352734375,-0.9855194091796875,-0.002410888671875,-0.01617431640625
1761315805261574400,3.133574462890625,-0.985565185546875,-0.0021514892578125,-0.01641845703125
1761315805271621400,3.143621337890625,-0.985809326171875,-0.002410888671875,-0.0158843994140625
1761315805281669400,3.15366943359375,-0.985198974609375,-0.002471923828125,-0.015869140625
1761315805291716400,3.16371630859375,-0.9855194091796875,-0.0012969970703125,-0.0159149169921875
1761315805301763600,3.173763671875,-0.9859619140625,-0.0021820068359375,-0.0147552490234375
1761315805311810600,3.183810546875,-0.9851531982421875,-0.002410888671875,-0.0157318115234375
1761315805321858300,3.1938583984375,-0.9860992431640625,-0.0027008056640625,-0.016204833984375
1761315805331905300,3.2039052734375,-0.9857025146484375,-0.00323486328125,-0.0152130126953125
1761315805341952300,3.2139521484375,-0.985260009765625,-0.0013275146484375,-0.0155487060546875
1761315805351999500,3.22399951171875,-0.985931396484375,-0.00286865234375,-0.015533447265625
1761315805362047500,3.234047607421875,-0.986053466796875,-0.002777099609375,-0.0160980224609375
1761315805372094500,3.244094482421875,-0.98577880859375,-0.0024566650390625,-0.015167236328125
1761315805382141400,3.254141357421875,-0.986968994140625,-0.001800537109375,-0.01641845703125
1761315805392189400,3.264189453125,-0.9860382080078125,-0.002960205078125,-0.0159149169921875
1761315805402236400,3.274236328125,-0.9854888916015625,-0.0025634765625,-0.015960693359375
1761315805412283400,3.284283447265625,-0.986297607421875,-0.0017852783203125,-0.0156707763671875
1761315805422330400,3.294330322265625,-0.986663818359375,-0.002716064453125,-0.0157928466796875
1761315805432378600,3.304378662109375,-0.986083984375,-0.0029449462890625,-0.0156097412109375
1761315805442425600,3.314425537109375,-0.98541259765625,-0.00311279296875,-0.0156097412109375
1761315805452472600,3.32447265625,-0.9856414794921875,-0.0021514892578125,-0.0162811279296875
1761315805462519300,3.334519287109375,-0.9849090576171875,-0.0020599365234375,-0.016021728515625
1761315805472567300,3.3445673828125,-0.986419677734375,-0.0016326904296875,-0.01654052734375
1761315805482614500,3.354614501953125,-0.986572265625,-0.00189208984375,-0.015838623046875
1761315805492661500,3.36466162109375,-0.9861907958984375,-0.0023651123046875,-0.0157470703125
1761315805502708500,3.37470849609375,-0.9856414794921875,-0.002471923828125,-0.016326904296875
1761315805512756200,3.384756103515625,-0.984832763671875,-0.00274658203125,-0.0159912109375
1761315805522803500,3.394803466796875,-0.98565673828125,-0.002227783203125,-0.015899658203125
1761315805532850400,3.404850341796875,-0.9860992431640625,-0.0022125244140625,-0.015960693359375
1761315805542898400,3.4148984375,-0.9864654541015625,-0.0021514892578125,-0.015960693359375
1761315805552945400,3.4249453125,-0.985504150390625,-0.00262451171875,-0.014678955078125
1761315805562992400,3.434992431640625,-0.9861297607421875,-0.002471923828125,-0.0156707763671875
1761315805573039600,3.44503955078125,-0.9863433837890625,-0.002471923828125,-0.01544189453125
1761315805583087400,3.45508740234375,-0.986236572265625,-0.0020599365234375,-0.016021728515625
1761315805593134300,3.46513427734375,-0.9862823486328125,-0.0019073486328125,-0.015869140625
1761315805603181300,3.475181396484375,-0.985443115234375,-0.00250244140625,-0.0165863037109375
1761315805613228300,3.485228271484375,-0.985595703125,-0.0031890869140625,-0.0161285400390625
1761315805623276500,3.495276611328125,-0.986083984375,-0.002044677734375,-0.01593017578125
1761315805633323500,3.505323486328125,-0.98602294921875,-0.00238037109375,-0.015472412109375
1761315805643370500,3.51537060546875,-0.9859466552734375,-0.003204345703125,-0.01556396484375
1761315805653417500,3.52541748046875,-0.98626708984375,-0.00238037109375,-0.015380859375
1761315805663465500,3.535465576171875,-0.9851837158203125,-0.0023956298828125,-0.0151214599609375
1761315805673512400,3.545512451171875,-0.985687255859375,-0.00238037109375,-0.0157623291015625
1761315805683559400,3.555559326171875,-0.985992431640625,-0.00244140625,-0.0160369873046875
1761315805693607400,3.565607421875,-0.986328125,-0.0030364990234375,-0.01580810546875
1761315805703654400,3.575654296875,-0.9856719970703125,-0.0021209716796875,-0.0161590576171875
1761315805713701400,3.585701416015625,-0.9857940673828125,-0.002532958984375,-0.0160369873046875
1761315805723748400,3.595748291015625,-0.9855499267578125,-0.00286865234375,-0.0157470703125
1761315805733796400,3.60579638671875,-0.98583984375,-0.002227783203125,-0.01641845703125
1761315805743843300,3.61584326171875,-0.9864349365234375,-0.00201416015625,-0.0164794921875
1761315805753890600,3.625890625,-0.9861602783203125,-0.001953125,-0.015472412109375
1761315805763937500,3.6359375,-0.98553466796875,-0.00274658203125,-0.0146026611328125
1761315805773985300,3.6459853515625,-0.9857330322265625,-0.0023040771484375,-0.0160980224609375
1761315805784032300,3.6560322265625,-0.986541748046875,-0.0014801025390625,-0.01531982421875
1761315805794079500,3.66607958984375,-0.985015869140625,-0.001861572265625,-0.0164031982421875
1761315805804126500,3.67612646484375,-0.9860687255859375,-0.0019989013671875,-0.01629638671875
1761315805814174500,3.686174560546875,-0.98590087890625,-0.0024871826171875,-0.0159149169921875
1761315805824221400,3.696221435546875,-0.984893798828125,-0.00262451171875,-0.015411376953125
1761315805834268400,3.706268310546875,-0.98541259765625,-0.0025482177734375,-0.0159912109375
1761315805844316400,3.71631640625,-0.9856414794921875,-0.002349853515625,-0.0162506103515625
1761315805854363400,3.72636328125,-0.9861602783203125,-0.0027008056640625,-0.0162353515625
1761315805864410400,3.736410400390625,-0.9857025146484375,-0.002716064453125,-0.016693115234375
1761315805874457900,3.746457763671875,-0.986053466796875,-0.0018768310546875,-0.0164794921875
1761315805884505900,3.756505859375,-0.9866180419921875,-0.002349853515625,-0.015411376953125
1761315805894552800,3.766552734375,-0.986724853515625,-0.00164794921875,-0.01593017578125
1761315805904599800,3.776599853515625,-0.9853057861328125,-0.0021514892578125,-0.01629638671875
1761315805914646800,3.786646728515625,-0.985443115234375,-0.0019683837890625,-0.016510009765625
1761315805924694800,3.79669482421875,-0.9863433837890625,-0.0027008056640625,-0.0159454345703125
1761315805934741800,3.80674169921875,-0.98504638671875,-0.002227783203125,-0.01611328125
1761315805944789000,3.8167890625,-0.98614501953125,-0.0020599365234375,-0.01568603515625
1761315805954836000,3.8268359375,-0.98583984375,-0.00152587890625,-0.0149078369140625
1761315805964883700,3.8368837890625,-0.9860076904296875,-0.0022125244140625,-0.0164031982421875
1761315805974930700,3.8469306640625,-0.9854888916015625,-0.0032806396484375,-0.0164947509765625
1761315805984978000,3.85697802734375,-0.98614501953125,-0.0026702880859375,-0.0155792236328125
1761315805995025000,3.86702490234375,-0.986541748046875,-0.002197265625,-0.0155181884765625
1761315806005073000,3.877072998046875,-0.9851226806640625,-0.00238037109375,-0.01580810546875
1761315806015120000,3.887119873046875,-0.9860687255859375,-0.0021514892578125,-0.0159912109375
1761315806025166800,3.897166748046875,-0.98638916015625,-0.0022430419921875,-0.015899658203125
1761315806035213800,3.9072138671875,-0.9857330322265625,-0.00225830078125,-0.0155029296875
1761315806045261800,3.91726171875,-0.98638916015625,-0.0018157958984375,-0.01556396484375
1761315806055308800,3.927308837890625,-0.9866180419921875,-0.0024566650390625,-0.0157318115234375
1761315806065355800,3.937355712890625,-0.9856719970703125,-0.00201416015625,-0.01593017578125
1761315806075404000,3.947404052734375,-0.9852447509765625,-0.002044677734375,-0.01580810546875
1761315806085451000,3.957450927734375,-0.9862213134765625,-0.002532958984375,-0.0155792236328125
1761315806095497700,3.967497802734375,-0.9859161376953125,-0.0029449462890625,-0.016571044921875
1761315806105544700,3.977544677734375,-0.9855194091796875,-0.0023345947265625,-0.0166168212890625
1761315806115593000,3.987593017578125,-0.986236572265625,-0.0023345947265625,-0.016357421875
1761315806125640000,3.997639892578125,-0.98638916015625,-0.0026702880859375,-0.0159759521484375
1761315806135687000,4.00768701171875,-0.9858245849609375,-0.002410888671875,-0.0156707763671875
1761315806145734000,4.01773388671875,-0.985107421875,-0.0026397705078125,-0.01556396484375
1761315806155781600,4.02778173828125,-0.985565185546875,-0.0023040771484375,-0.01611328125
1761315806165828900,4.037828857421875,-0.985504150390625,-0.0026092529296875,-0.015655517578125
1761315806175875800,4.047875732421875,-0.98590087890625,-0.00250244140625,-0.015869140625
1761315806185922800,4.0579228515625,-0.9862213134765625,-0.002685546875,-0.0156402587890625
1761315806195970800,4.067970703125,-0.984405517578125,-0.00244140625,-0.0163726806640625
1761315806206017800,4.078017822265625,-0.9864501953125,-0.0017242431640625,-0.01513671875
1761315806216065000,4.08806494140625,-0.9864501953125,-0.0026397705078125,-0.0151214599609375
1761315806226112000,4.098112060546875,-0.986083984375,-0.00262451171875,-0.0153350830078125
1761315806236159700,4.10815966796875,-0.985504150390625,-0.0023345947265625,-0.015869140625
1761315806246206700,4.118206787109375,-0.98675537109375,-0.0021514892578125,-0.015960693359375
1761315806256254000,4.12825390625,-0.986480712890625,-0.003021240234375,-0.015350341796875
1761315806266301000,4.138301025390625,-0.986297607421875,-0.0024871826171875,-0.0159759521484375
1761315806276349000,4.148348876953125,-0.9861297607421875,-0.0026092529296875,-0.0158233642578125
1761315806286396000,4.15839599609375,-0.98565673828125,-0.0026092529296875,-0.0151214599609375
1761315806296442600,4.168442626953125,-0.9854278564453125,-0.00286865234375,-0.0159149169921875
1761315806306489900,4.17848974609375,-0.9859466552734375,-0.0021820068359375,-0.0149993896484375
1761315806316537900,4.188537841796875,-0.986053466796875,-0.002655029296875,-0.0163116455078125
1761315806326584800,4.198584716796875,-0.98614501953125,-0.002532958984375,-0.0158843994140625
1761315806336631800,4.2086318359375,-0.986236572265625,-0.0026702880859375,-0.01556396484375
1761315806346678800,4.2186787109375,-0.9861602783203125,-0.0027923583984375,-0.015869140625
1761315806356726800,4.228726806640625,-0.986724853515625,-0.0031890869140625,-0.0154876708984375
1761315806366773800,4.238773681640625,-0.9861297607421875,-0.00238037109375,-0.0157470703125
1761315806376820700,4.24882080078125,-0.986083984375,-0.00201416015625,-0.0162506103515625
1761315806386869000,4.258868896484375,-0.9855804443359375,-0.002593994140625,-0.016326904296875
1761315806396916000,4.268916015625,-0.98614501953125,-0.002166748046875,-0.01727294921875
1761315806406963000,4.278962890625,-0.98602294921875,-0.002655029296875,-0.0157318115234375
1761315806417010000,4.289010009765625,-0.9863128662109375,-0.00286865234375,-0.015594482421875
1761315806427057700,4.2990576171875,-0.98583984375,-0.00286865234375,-0.0172882080078125
1761315806437105000,4.30910498046875,-0.986297607421875,-0.002960205078125,-0.016510009765625
1761315806447151900,4.31915185546875,-0.985809326171875,-0.002410888671875,-0.01483154296875
1761315806457198800,4.32919873046875,-0.98492431640625,-0.0021209716796875,-0.0158843994140625
1761315806467246800,4.339246826171875,-0.9857330322265625,-0.00225830078125,-0.015777587890625
1761315806477293800,4.3492939453125,-0.9854278564453125,-0.002410888671875,-0.0161285400390625
1761315806487340800,4.3593408203125,-0.9865570068359375,-0.0021820068359375,-0.0162811279296875
1761315806497387800,4.3693876953125,-0.9860076904296875,-0.0028533935546875,-0.0163421630859375
1761315806507435800,4.379435791015625,-0.985260009765625,-0.00238037109375,-0.016632080078125
1761315806517482800,4.389482666015625,-0.9860687255859375,-0.0024261474609375,-0.0163116455078125
1761315806527530000,4.399530029296875,-0.9863128662109375,-0.002960205078125,-0.0160675048828125
1761315806537577000,4.409576904296875,-0.98590087890625,-0.0026702880859375,-0.015655517578125
1761315806547624700,4.419624755859375,-0.9858245849609375,-0.00238037109375,-0.015716552734375
1761315806557671700,4.429671630859375,-0.985687255859375,-0.0030059814453125,-0.015838623046875
1761315806567718700,4.43971875,-0.9853668212890625,-0.002349853515625,-0.0157318115234375
1761315806577766000,4.449765869140625,-0.9854888916015625,-0.0020599365234375,-0.0161285400390625
1761315806587814000,4.45981396484375,-0.985015869140625,-0.002410888671875,-0.0153350830078125
1761315806597860900,4.46986083984375,-0.9858245849609375,-0.0023345947265625,-0.0154266357421875
1761315806607907800,4.479907958984375,-0.9861907958984375,-0.002105712890625,-0.0165557861328125
1761315806617954800,4.489954833984375,-0.9859161376953125,-0.0021820068359375,-0.01611328125
1761315806628002800,4.5000029296875,-0.98583984375,-0.0025177001953125,-0.01605224609375
1761315806638049800,4.5100498046875,-0.986297607421875,-0.0024261474609375,-0.015625
1761315806648096800,4.5200966796875,-0.986480712890625,-0.0020294189453125,-0.015777587890625
1761315806658143700,4.530143798828125,-0.9864501953125,-0.001953125,-0.0160980224609375
1761315806668192000,4.54019189453125,-0.986419677734375,-0.00225830078125,-0.0162353515625
1761315806678239000,4.550239013671875,-0.9854278564453125,-0.002288818359375,-0.01556396484375
1761315806688286000,4.560285888671875,-0.986480712890625,-0.0027008056640625,-0.0165863037109375
1761315806698332700,4.570332763671875,-0.9862060546875,-0.00189208984375,-0.0164031982421875
1761315806708381000,4.580380859375,-0.9859161376953125,-0.001983642578125,-0.0149383544921875
1761315806718428000,4.590427978515625,-0.9864044189453125,-0.001922607421875,-0.01568603515625
1761315806728475000,4.600474853515625,-0.9860382080078125,-0.0016021728515625,-0.015411376953125
1761315806738521900,4.61052197265625,-0.985076904296875,-0.00201416015625,-0.01513671875
1761315806748569600,4.620569580078125,-0.9861297607421875,-0.00347900390625,-0.016082763671875
1761315806758616800,4.630616943359375,-0.98565673828125,-0.002655029296875,-0.015899658203125
1761315806768663800,4.640663818359375,-0.9851226806640625,-0.002166748046875,-0.015655517578125
1761315806778710800,4.650710693359375,-0.9858551025390625,-0.0019989013671875,-0.0162506103515625
1761315806788758800,4.6607587890625,-0.985626220703125,-0.0024261474609375,-0.0161895751953125
1761315806798806000,4.670805908203125,-0.9862518310546875,-0.001739501953125,-0.0156402587890625
1761315806808853000,4.68085302734375,-0.9857025146484375,-0.0019683837890625,-0.015411376953125
1761315806818900000,4.69089990234375,-0.9862213134765625,-0.003173828125,-0.01556396484375
1761315806828947700,4.70094775390625,-0.985443115234375,-0.00238037109375,-0.0158843994140625
1761315806838994700,4.71099462890625,-0.9861907958984375,-0.0025787353515625,-0.0165252685546875
1761315806849042000,4.7210419921875,-0.985626220703125,-0.002655029296875,-0.01580810546875
1761315806859089000,4.7310888671875,-0.986114501953125,-0.0018157958984375,-0.0153961181640625
1761315806869140500,4.741140380859375,-0.986358642578125,-0.0022430419921875,-0.0159149169921875
1761315806879187500,4.7511875,-0.987030029296875,-0.0023956298828125,-0.01702880859375
1761315806889234400,4.761234375,-0.9865264892578125,-0.00244140625,-0.015228271484375
1761315806899281400,4.771281494140625,-0.9852447509765625,-0.0024871826171875,-0.015869140625
1761315806909329400,4.781329345703125,-0.985504150390625,-0.0025787353515625,-0.0160369873046875
1761315806919376400,4.79137646484375,-0.985565185546875,-0.0024566650390625,-0.015380859375
1761315806929423400,4.80142333984375,-0.9860992431640625,-0.002777099609375,-0.01495361328125
1761315806939470600,4.811470703125,-0.985809326171875,-0.002166748046875,-0.0156402587890625
1761315806949518300,4.821518310546875,-0.9858551025390625,-0.0020294189453125,-0.0158843994140625
1761315806959565300,4.8315654296875,-0.9864654541015625,-0.00225830078125,-0.0161590576171875
1761315806969612300,4.8416123046875,-0.9873504638671875,-0.001983642578125,-0.0169525146484375
1761315806979657500,4.851657470703125,-0.987060546875,-0.0022430419921875,-0.01629638671875
1761315806989704400,4.861704345703125,-0.985382080078125,-0.0024261474609375,-0.0164031982421875
1761315806999751400,4.87175146484375,-0.98565673828125,-0.0020599365234375,-0.0157623291015625
1761315807009798400,4.88179833984375,-0.985809326171875,-0.001678466796875,-0.015533447265625
1761315807019846400,4.891846435546875,-0.986297607421875,-0.0020294189453125,-0.0154266357421875
1761315807029893400,4.901893310546875,-0.986297607421875,-0.0022430419921875,-0.0153656005859375
1761315807039940400,4.9119404296875,-0.9858551025390625,-0.002838134765625,-0.0152587890625
1761315807049987300,4.9219873046875,-0.9857635498046875,-0.0028839111328125,-0.015655517578125
1761315807060035600,4.93203564453125,-0.9857940673828125,-0.0027618408203125,-0.0162811279296875
1761315807070082300,4.942082275390625,-0.9855499267578125,-0.0022430419921875,-0.0152435302734375
1761315807080129300,4.95212939453125,-0.986114501953125,-0.0023345947265625,-0.0156097412109375
1761315807090176300,4.96217626953125,-0.9857330322265625,-0.0026397705078125,-0.0145721435546875
1761315807100224500,4.972224609375,-0.98553466796875,-0.003204345703125,-0.0154571533203125
1761315807110271500,4.982271484375,-0.9860076904296875,-0.0024871826171875,-0.016204833984375
1761315807120318500,4.992318359375,-0.98577880859375,-0.002685546875,-0.0161285400390625
1761315807130365400,5.002365478515625,-0.9856719970703125,-0.0027313232421875,-0.0157928466796875
1761315807140413400,5.012413330078125,-0.9869537353515625,-0.00213623046875,-0.0152435302734375
1761315807150460400,5.02246044921875,-0.9864654541015625,-0.0016632080078125,-0.015106201171875
1761315807160507400,5.03250732421875,-0.9854736328125,-0.003021240234375,-0.015777587890625
1761315807170554400,5.042554443359375,-0.9856109619140625,-0.0024871826171875,-0.015899658203125
1761315807180602400,5.052602294921875,-0.9858245849609375,-0.0022125244140625,-0.01580810546875
1761315807190649600,5.062649658203125,-0.9862823486328125,-0.0027008056640625,-0.015960693359375
1761315807200696600,5.072696533203125,-0.9857635498046875,-0.0019378662109375,-0.0164947509765625
1761315807210743600,5.08274365234375,-0.9866180419921875,-0.0026397705078125,-0.015594482421875
1761315807220791300,5.092791259765625,-0.9864044189453125,-0.0015106201171875,-0.0158538818359375
1761315807230838500,5.102838623046875,-0.9860992431640625,-0.00225830078125,-0.014984130859375
1761315807240885500,5.112885498046875,-0.9861297607421875,-0.001983642578125,-0.0151519775390625
1761315807250932500,5.122932373046875,-0.9859161376953125,-0.0022735595703125,-0.016510009765625
1761315807260980500,5.13298046875,-0.98553466796875,-0.00238037109375,-0.016571044921875
1761315807271027200,5.143027099609375,-0.98468017578125,-0.002838134765625,-0.0164337158203125
1761315807281074400,5.153074462890625,-0.9868011474609375,-0.0029754638671875,-0.0157623291015625
1761315807291121400,5.163121337890625,-0.985809326171875,-0.0017547607421875,-0.0157623291015625
1761315807301169400,5.17316943359375,-0.9859161376953125,-0.0026092529296875,-0.0159149169921875
1761315807311216400,5.18321630859375,-0.9860382080078125,-0.0027313232421875,-0.014862060546875
1761315807321263400,5.193263427734375,-0.9856414794921875,-0.0020751953125,-0.0169677734375
1761315807331310600,5.203310546875,-0.985382080078125,-0.0031585693359375,-0.0165863037109375
1761315807341357600,5.213357666015625,-0.9849853515625,-0.0019989013671875,-0.0153045654296875
1761315807351405300,5.2234052734375,-0.98638916015625,-0.0030517578125,-0.0164947509765625
1761315807361452300,5.233452392578125,-0.98638916015625,-0.0025787353515625,-0.015533447265625
1761315807371499500,5.24349951171875,-0.9857635498046875,-0.002166748046875,-0.0149993896484375
1761315807381546500,5.25354638671875,-0.986358642578125,-0.002685546875,-0.015838623046875
1761315807391594500,5.263594482421875,-0.9864044189453125,-0.00238037109375,-0.0167083740234375
1761315807401641500,5.273641357421875,-0.986358642578125,-0.0020294189453125,-0.015960693359375
1761315807411688400,5.2836884765625,-0.9870147705078125,-0.002410888671875,-0.01513671875
1761315807421735400,5.2937353515625,-0.98583984375,-0.00250244140625,-0.0158233642578125
1761315807431783400,5.303783447265625,-0.986175537109375,-0.002777099609375,-0.0153961181640625
1761315807441830400,5.313830322265625,-0.9859161376953125,-0.0029144287109375,-0.0162353515625
1761315807451877400,5.32387744140625,-0.986114501953125,-0.002899169921875,-0.0160064697265625
1761315807461924400,5.33392431640625,-0.9851837158203125,-0.0027008056640625,-0.0157928466796875
1761315807471972400,5.343972412109375,-0.9854888916015625,-0.00244140625,-0.0157623291015625
1761315807482019300,5.354019287109375,-0.9859771728515625,-0.0025634765625,-0.01611328125
1761315807492066300,5.36406640625,-0.9856414794921875,-0.0026397705078125,-0.0159454345703125
1761315807502113300,5.37411328125,-0.9863128662109375,-0.001953125,-0.015625
1761315807512161500,5.38416162109375,-0.985107421875,-0.0023193359375,-0.0161285400390625
1761315807522208500,5.39420849609375,-0.9856719970703125,-0.0023345947265625,-0.0151214599609375
1761315807532255500,5.40425537109375,-0.985565185546875,-0.002655029296875,-0.0155181884765625
1761315807542302500,5.414302490234375,-0.9850616455078125,-0.0022125244140625,-0.016357421875
1761315807552350500,5.4243505859375,-0.9858551025390625,-0.0020751953125,-0.015899658203125
1761315807562397400,5.4343974609375,-0.9858551025390625,-0.0025177001953125,-0.015625
1761315807572444400,5.4444443359375,-0.985870361328125,-0.0020904541015625,-0.015960693359375
1761315807582491400,5.454491455078125,-0.984954833984375,-0.002349853515625,-0.015228271484375
1761315807592539400,5.464539306640625,-0.98504638671875,-0.002105712890625,-0.0153656005859375
1761315807602586600,5.474586669921875,-0.9860992431640625,-0.0031585693359375,-0.0165252685546875
1761315807612633300,5.48463330078125,-0.986053466796875,-0.00250244140625,-0.015869140625
1761315807622680300,5.494680419921875,-0.9864501953125,-0.001708984375,-0.0157928466796875
1761315807632727300,5.504727294921875,-0.9864654541015625,-0.0019073486328125,-0.0157012939453125
1761315807642775600,5.514775634765625,-0.9861602783203125,-0.002227783203125,-0.0157012939453125
1761315807652822500,5.524822509765625,-0.9859161376953125,-0.00189208984375,-0.0165252685546875
1761315807662869500,5.534869384765625,-0.9862060546875,-0.001617431640625,-0.0157928466796875
1761315807672916500,5.54491650390625,-0.985992431640625,-0.003021240234375,-0.0158538818359375
1761315807682964200,5.554964111328125,-0.987060546875,-0.0026092529296875,-0.015777587890625
1761315807693011500,5.565011474609375,-0.9871673583984375,-0.0017242431640625,-0.0167388916015625
1761315807703058400,5.575058349609375,-0.98614501953125,-0.002655029296875,-0.0159912109375
1761315807713105400,5.58510546875,-0.985321044921875,-0.0025177001953125,-0.0156707763671875
1761315807723153400,5.5951533203125,-0.985748291015625,-0.001708984375,-0.016143798828125
1761315807733200400,5.605200439453125,-0.98681640625,-0.001708984375,-0.0158843994140625
1761315807743247600,5.61524755859375,-0.9860076904296875,-0.0030517578125,-0.0155487060546875
1761315807753294600,5.625294677734375,-0.986358642578125,-0.0025482177734375,-0.016204833984375
1761315807763342300,5.63534228515625,-0.98577880859375,-0.002716064453125,-0.0167694091796875
1761315807773389300,5.645389404296875,-0.9864501953125,-0.002838134765625,-0.0157470703125
1761315807783436500,5.6554365234375,-0.9861297607421875,-0.001800537109375,-0.0157623291015625
1761315807793483500,5.6654833984375,-0.986572265625,-0.001953125,-0.01611328125
1761315807803531500,5.675531494140625,-0.9856719970703125,-0.002349853515625,-0.0150299072265625
1761315807813578200,5.685578125,-0.9854736328125,-0.0026092529296875,-0.0154571533203125
1761315807823625200,5.695625244140625,-0.9862823486328125,-0.0025787353515625,-0.0167388916015625
1761315807833672400,5.70567236328125,-0.9859161376953125,-0.00213623046875,-0.0159759521484375
1761315807843719400,5.715719482421875,-0.9857025146484375,-0.0028839111328125,-0.0158538818359375
1761315807853767400,5.725767333984375,-0.9854583740234375,-0.003021240234375,-0.0158843994140625
1761315807863814400,5.735814453125,-0.9866180419921875,-0.0023956298828125,-0.0157012939453125
1761315807873857500,5.745857421875,-0.9860076904296875,-0.00177001953125,-0.015533447265625
1761315807883904500,5.755904541015625,-0.9866485595703125,-0.00262451171875,-0.0157623291015625
1761315807893952300,5.7659521484375,-0.9859771728515625,-0.002685546875,-0.015625
1761315807903999200,5.775999267578125,-0.98504638671875,-0.00250244140625,-0.01593017578125
1761315807914046500,5.78604638671875,-0.9861907958984375,-0.002593994140625,-0.016632080078125
1761315807924093400,5.796093505859375,-0.9864959716796875,-0.002349853515625,-0.01617431640625
1761315807934141400,5.806141357421875,-0.9854278564453125,-0.0024566650390625,-0.0162200927734375
1761315807944188400,5.8161884765625,-0.98651123046875,-0.0023345947265625,-0.0163726806640625
1761315807954235400,5.8262353515625,-0.986785888671875,-0.0028076171875,-0.0166015625
1761315807964282600,5.83628271484375,-0.9858551025390625,-0.00286865234375,-0.01519775390625
1761315807974330400,5.846330322265625,-0.985809326171875,-0.002685546875,-0.0153045654296875
1761315807984377300,5.85637744140625,-0.9856109619140625,-0.00274658203125,-0.0158233642578125
1761315807994424300,5.86642431640625,-0.9861297607421875,-0.002716064453125,-0.0156402587890625
1761315808004471600,5.876471435546875,-0.9857330322265625,-0.0025634765625,-0.0160369873046875
1761315808014519600,5.88651953125,-0.985748291015625,-0.00201416015625,-0.0160064697265625
1761315808024566500,5.89656640625,-0.9853363037109375,-0.0026092529296875,-0.015869140625
1761315808034613200,5.90661328125,-0.9859466552734375,-0.0020751953125,-0.016632080078125
1761315808044660200,5.91666015625,-0.98614501953125,-0.001983642578125,-0.016571044921875
1761315808054707500,5.92670751953125,-0.98614501953125,-0.0022430419921875,-0.0153656005859375
1761315808064755500,5.93675537109375,-0.9870452880859375,-0.00244140625,-0.0160369873046875
1761315808074802400,5.946802490234375,-0.9859161376953125,-0.0024566650390625,-0.0165863037109375
1761315808084849400,5.956849365234375,-0.985382080078125,-0.002532958984375,-0.0158538818359375
1761315808094896400,5.966896484375,-0.9856719970703125,-0.0025634765625,-0.01544189453125
1761315808104944400,5.9769443359375,-0.986602783203125,-0.0024261474609375,-0.01580810546875
1761315808114991400,5.986991455078125,-0.9858551025390625,-0.002716064453125,-0.0164794921875
1761315808125038300,5.997038330078125,-0.9869232177734375,-0.0028076171875,-0.0157470703125
1761315808135085300,6.007085205078125,-0.985870361328125,-0.0018768310546875,-0.0156097412109375
1761315808145133600,6.017133544921875,-0.9854583740234375,-0.0025177001953125,-0.0157928466796875
1761315808155180500,6.0271806640625,-0.986236572265625,-0.002105712890625,-0.0159454345703125
1761315808165227500,6.0372275390625,-0.9858245849609375,-0.002044677734375,-0.0155029296875
1761315808175274500,6.0472744140625,-0.9850921630859375,-0.0024261474609375,-0.0166473388671875
1761315808185321200,6.0573212890625,-0.9854278564453125,-0.001922607421875,-0.0161895751953125
1761315808195369500,6.067369384765625,-0.98638916015625,-0.0022125244140625,-0.0165863037109375
1761315808205416400,6.07741650390625,-0.986419677734375,-0.0018310546875,-0.0163421630859375
1761315808215463400,6.08746337890625,-0.98529052734375,-0.002197265625,-0.015411376953125
1761315808225510400,6.097510498046875,-0.9853668212890625,-0.0025177001953125,-0.015777587890625
1761315808235558400,6.107558349609375,-0.98577880859375,-0.0023651123046875,-0.015472412109375
1761315808245605400,6.11760546875,-0.9858856201171875,-0.0023345947265625,-0.0156097412109375
1761315808255652400,6.12765234375,-0.986114501953125,-0.0018310546875,-0.0149078369140625
1761315808265699300,6.13769921875,-0.986236572265625,-0.002716064453125,-0.01556396484375
1761315808275747600,6.14774755859375,-0.9860076904296875,-0.002410888671875,-0.016937255859375
1761315808285794600,6.157794677734375,-0.985992431640625,-0.002532958984375,-0.015777587890625
1761315808295841500,6.167841552734375,-0.9853363037109375,-0.001922607421875,-0.0153045654296875
1761315808305888500,6.177888427734375,-0.9852447509765625,-0.0029144287109375,-0.0157928466796875
1761315808315935500,6.187935546875,-0.986358642578125,-0.0025482177734375,-0.0170745849609375
1761315808325983500,6.1979833984375,-0.9860076904296875,-0.002655029296875,-0.015960693359375
1761315808336030500,6.208030517578125,-0.9859161376953125,-0.0027923583984375,-0.0160980224609375
1761315808346077400,6.218077392578125,-0.98675537109375,-0.00189208984375,-0.01556396484375
1761315808356124400,6.22812451171875,-0.987030029296875,-0.0016021728515625,-0.0160675048828125
1761315808366172400,6.23817236328125,-0.9865570068359375,-0.0017852783203125,-0.0153656005859375
1761315808376219400,6.248219482421875,-0.985687255859375,-0.0020904541015625,-0.015411376953125
1761315808386266400,6.258266357421875,-0.9849853515625,-0.00201416015625,-0.0158843994140625
1761315808396313300,6.268313232421875,-0.9852447509765625,-0.0020294189453125,-0.0157318115234375
1761315808406361300,6.278361328125,-0.9862518310546875,-0.0020599365234375,-0.0159912109375
1761315808416408600,6.28840869140625,-0.985626220703125,-0.002105712890625,-0.01556396484375
1761315808426455600,6.29845556640625,-0.9844818115234375,-0.002197265625,-0.0163421630859375
1761315808436502500,6.30850244140625,-0.985565185546875,-0.0020904541015625,-0.015472412109375
1761315808446549500,6.318549560546875,-0.985748291015625,-0.002410888671875,-0.0157012939453125
1761315808456597200,6.32859716796875,-0.985198974609375,-0.0021514892578125,-0.0159454345703125
1761315808466644500,6.33864453125,-0.9859466552734375,-0.00213623046875,-0.0160369873046875
1761315808476691500,6.34869140625,-0.986175537109375,-0.0021820068359375,-0.016387939453125
1761315808486738400,6.358738525390625,-0.98614501953125,-0.0030670166015625,-0.0155029296875
1761315808496786400,6.368786376953125,-0.986328125,-0.0025482177734375,-0.015655517578125
1761315808506833400,6.37883349609375,-0.98577880859375,-0.00213623046875,-0.0158843994140625
1761315808516880600,6.388880615234375,-0.98681640625,-0.002410888671875,-0.0150604248046875
1761315808526927400,6.39892724609375,-0.98687744140625,-0.0027923583984375,-0.0159149169921875
1761315808536975400,6.408975341796875,-0.9860076904296875,-0.001800537109375,-0.01654052734375
1761315808547022300,6.419022216796875,-0.9861907958984375,-0.002838134765625,-0.015533447265625
1761315808557069600,6.429069580078125,-0.9856109619140625,-0.002166748046875,-0.0156402587890625
1761315808567116500,6.439116455078125,-0.9853668212890625,-0.002899169921875,-0.0153045654296875
1761315808577163500,6.44916357421875,-0.9866180419921875,-0.0027313232421875,-0.0150299072265625
1761315808587211300,6.459211181640625,-0.986053466796875,-0.00225830078125,-0.0164337158203125
1761315808597258200,6.46925830078125,-0.9861907958984375,-0.0018463134765625,-0.015716552734375
1761315808607305500,6.479305419921875,-0.98583984375,-0.002227783203125,-0.0160064697265625
1761315808617352400,6.4893525390625,-0.9857940673828125,-0.0018463134765625,-0.016204833984375
1761315808627400400,6.499400390625,-0.98565673828125,-0.002899169921875,-0.0162506103515625
1761315808637447400,6.509447509765625,-0.9864349365234375,-0.002349853515625,-0.0155029296875
1761315808647494400,6.519494384765625,-0.9864349365234375,-0.0021820068359375,-0.01568603515625
1761315808657541600,6.529541748046875,-0.9868316650390625,-0.002899169921875,-0.0160675048828125
1761315808667589400,6.53958935546875,-0.9862213134765625,-0.002960205078125,-0.0167999267578125
1761315808677636400,6.54963623046875,-0.98590087890625,-0.00274658203125,-0.015350341796875
1761315808687683300,6.559683349609375,-0.98602294921875,-0.0020599365234375,-0.0154266357421875
1761315808697730600,6.56973046875,-0.986328125,-0.0028076171875,-0.0156402587890625
1761315808707777500,6.579777587890625,-0.98626708984375,-0.002471923828125,-0.0166778564453125
1761315808717825500,6.589825439453125,-0.9865875244140625,-0.0022125244140625,-0.0160064697265625
1761315808727872300,6.599872314453125,-0.9853668212890625,-0.0019989013671875,-0.0157623291015625
1761315808737919200,6.609919189453125,-0.98565673828125,-0.002471923828125,-0.0161895751953125
1761315808747966500,6.619966552734375,-0.985870361328125,-0.0025177001953125,-0.015228271484375
1761315808758014500,6.630014404296875,-0.986297607421875,-0.0029449462890625,-0.0157012939453125
1761315808768061400,6.6400615234375,-0.986419677734375,-0.0030059814453125,-0.016143798828125
1761315808778108400,6.6501083984375,-0.9857025146484375,-0.0023651123046875,-0.01556396484375
1761315808788155400,6.6601552734375,-0.9862213134765625,-0.00189208984375,-0.01611328125
1761315808798202600,6.67020263671875,-0.985748291015625,-0.00262451171875,-0.0153656005859375
1761315808808250400,6.68025048828125,-0.9860076904296875,-0.0025634765625,-0.01617431640625
1761315808818297300,6.69029736328125,-0.9850006103515625,-0.0020904541015625,-0.0160675048828125
1761315808828344300,6.70034423828125,-0.98583984375,-0.002960205078125,-0.015960693359375
1761315808838391600,6.7103916015625,-0.986724853515625,-0.0021514892578125,-0.01641845703125
1761315808848439600,6.720439453125,-0.9875946044921875,-0.0026092529296875,-0.0162200927734375
1761315808858486500,6.730486572265625,-0.9867401123046875,-0.0019073486328125,-0.015533447265625
1761315808868533200,6.740533203125,-0.9864959716796875,-0.0033416748046875,-0.015594482421875
1761315808878581000,6.7505810546875,-0.986297607421875,-0.002166748046875,-0.0155487060546875
1761315808888629000,6.76062890625,-0.98492431640625,-0.0019073486328125,-0.0156097412109375
1761315808898676200,6.77067626953125,-0.9858245849609375,-0.002471923828125,-0.0150299072265625
1761315808908723200,6.78072314453125,-0.986083984375,-0.0025482177734375,-0.016021728515625
1761315808918770200,6.790770263671875,-0.986968994140625,-0.0027008056640625,-0.0157318115234375
1761315808928817200,6.800817138671875,-0.9869232177734375,-0.0031890869140625,-0.0159759521484375
1761315808938865000,6.810864990234375,-0.9857177734375,-0.002471923828125,-0.0162506103515625
1761315808948912000,6.820912109375,-0.986328125,-0.0019073486328125,-0.015869140625
1761315808958959000,6.830958984375,-0.98663330078125,-0.002410888671875,-0.01580810546875
1761315808969006000,6.841006103515625,-0.9864501953125,-0.0025634765625,-0.01580810546875
1761315808979054000,6.85105419921875,-0.986114501953125,-0.0016021728515625,-0.015350341796875
1761315808989101000,6.86110107421875,-0.98553466796875,-0.0024566650390625,-0.0165863037109375
1761315808999148000,6.87114794921875,-0.98577880859375,-0.002288818359375,-0.017303466796875
1761315809009195000,6.881195068359375,-0.98504638671875,-0.002410888671875,-0.016204833984375
1761315809019242000,6.891241943359375,-0.986175537109375,-0.0027313232421875,-0.01580810546875
1761315809029290000,6.9012900390625,-0.9857177734375,-0.0022735595703125,-0.016326904296875
1761315809039337200,6.911337158203125,-0.9851837158203125,-0.0019378662109375,-0.0153350830078125
1761315809049384200,6.92138427734375,-0.9867706298828125,-0.00213623046875,-0.0151519775390625
1761315809059431200,6.93143115234375,-0.986083984375,-0.0019989013671875,-0.01605224609375
1761315809069479000,6.94147900390625,-0.98590087890625,-0.0026702880859375,-0.0162353515625
1761315809079526000,6.95152587890625,-0.9858245849609375,-0.0026702880859375,-0.0157318115234375
1761315809089573000,6.961572998046875,-0.98602294921875,-0.0021514892578125,-0.01580810546875
1761315809099620000,6.9716201171875,-0.9857635498046875,-0.002105712890625,-0.0160064697265625
1761315809109667000,6.9816669921875,-0.9860076904296875,-0.0030364990234375,-0.01556396484375
1761315809119715000,6.991715087890625,-0.986297607421875,-0.00238037109375,-0.0155792236328125
1761315809129762000,7.001761962890625,-0.985107421875,-0.001251220703125,-0.0155487060546875
1761315809139809000,7.01180908203125,-0.9867401123046875,-0.0023956298828125,-0.0151519775390625
1761315809149856000,7.02185595703125,-0.9853668212890625,-0.001495361328125,-0.016326904296875
1761315809159904000,7.031904052734375,-0.986053466796875,-0.0019989013671875,-0.01593017578125
1761315809169951000,7.041950927734375,-0.9864959716796875,-0.002105712890625,-0.0158843994140625
1761315809179998200,7.051998291015625,-0.9854278564453125,-0.0017852783203125,-0.015350341796875
1761315809190045200,7.062045166015625,-0.986572265625,-0.002197265625,-0.01580810546875
1761315809200092200,7.072092041015625,-0.985443115234375,-0.0021209716796875,-0.0155792236328125
1761315809210140000,7.082139892578125,-0.9864349365234375,-0.0018157958984375,-0.015655517578125
1761315809220187000,7.092186767578125,-0.9857940673828125,-0.0018310546875,-0.0162353515625
1761315809230234000,7.102234130859375,-0.985504150390625,-0.0023345947265625,-0.01629638671875
1761315809240281000,7.112281005859375,-0.986053466796875,-0.0026702880859375,-0.016265869140625
1761315809250329000,7.1223291015625,-0.985198974609375,-0.00213623046875,-0.0168914794921875
1761315809260376000,7.1323759765625,-0.986053466796875,-0.0024261474609375,-0.016082763671875
1761315809270423000,7.142423095703125,-0.985443115234375,-0.0031585693359375,-0.01519775390625
1761315809280470000,7.152469970703125,-0.9862823486328125,-0.0034637451171875,-0.0157318115234375
1761315809290517000,7.16251708984375,-0.9864349365234375,-0.0023345947265625,-0.015533447265625
1761315809300565000,7.17256494140625,-0.9866943359375,-0.002349853515625,-0.0159912109375
1761315809310612000,7.182612060546875,-0.9868011474609375,-0.0025787353515625,-0.01611328125
1761315809320659200,7.1926591796875,-0.986541748046875,-0.0028076171875,-0.0159454345703125
1761315809330706200,7.2027060546875,-0.985992431640625,-0.0033416748046875,-0.0158233642578125
1761315809340754000,7.21275390625,-0.9860076904296875,-0.00262451171875,-0.015899658203125
1761315809350801000,7.22280078125,-0.9862213134765625,-0.00213623046875,-0.016326904296875
1761315809360848000,7.232847900390625,-0.985931396484375,-0.0024871826171875,-0.016143798828125
1761315809370895000,7.24289501953125,-0.986724853515625,-0.0020599365234375,-0.01513671875
1761315809380942000,7.252942138671875,-0.9861602783203125,-0.0024566650390625,-0.014862060546875
1761315809390990000,7.262989990234375,-0.987060546875,-0.0021514892578125,-0.015716552734375
1761315809401037000,7.273037109375,-0.9866943359375,-0.001739501953125,-0.0158843994140625
1761315809411084000,7.283083984375,-0.9860992431640625,-0.0020751953125,-0.0159149169921875
1761315809421131000,7.293131103515625,-0.986053466796875,-0.0026702880859375,-0.0150604248046875
1761315809431178000,7.303177978515625,-0.9858551025390625,-0.0024871826171875,-0.015045166015625
1761315809441226000,7.31322607421875,-0.98614501953125,-0.0018463134765625,-0.0153350830078125
1761315809451273000,7.32327294921875,-0.986175537109375,-0.0031585693359375,-0.0159149169921875
1761315809461320200,7.3333203125,-0.98638916015625,-0.0028076171875,-0.0170135498046875
1761315809471367200,7.3433671875,-0.98590087890625,-0.0021820068359375,-0.0160064697265625
1761315809481415000,7.353414794921875,-0.986297607421875,-0.0010528564453125,-0.01641845703125
1761315809491462000,7.3634619140625,-0.9862213134765625,-0.001983642578125,-0.0167236328125
1761315809501508900,7.3735087890625,-0.98614501953125,-0.0022125244140625,-0.01580810546875
1761315809511556000,7.38355615234375,-0.985809326171875,-0.0022735595703125,-0.0157318115234375
1761315809521603000,7.39360302734375,-0.9865570068359375,-0.003082275390625,-0.01605224609375
1761315809531651000,7.403651123046875,-0.9868621826171875,-0.00274658203125,-0.01605224609375
1761315809541698000,7.413697998046875,-0.986572265625,-0.0018310546875,-0.0157928466796875
1761315809551745000,7.4237451171875,-0.986602783203125,-0.0019683837890625,-0.0156097412109375
1761315809561792300,7.433792236328125,-0.9863433837890625,-0.00225830078125,-0.0160369873046875
1761315809571840000,7.443840087890625,-0.98699951171875,-0.0020904541015625,-0.015472412109375
1761315809581887000,7.453886962890625,-0.98583984375,-0.003448486328125,-0.016021728515625
1761315809591934000,7.463933837890625,-0.9862518310546875,-0.002685546875,-0.01666259765625
1761315809601981200,7.473981201171875,-0.9863433837890625,-0.002105712890625,-0.01654052734375
1761315809612028200,7.484028076171875,-0.9853668212890625,-0.002288818359375,-0.014892578125
1761315809622076200,7.494076171875,-0.9857940673828125,-0.0018157958984375,-0.0161285400390625
1761315809632123000,7.504122802734375,-0.9857177734375,-0.002685546875,-0.0159759521484375
1761315809642169900,7.514169921875,-0.9858856201171875,-0.002777099609375,-0.015899658203125
1761315809652217000,7.524217041015625,-0.9855499267578125,-0.002349853515625,-0.015411376953125
1761315809662264000,7.53426416015625,-0.985565185546875,-0.002777099609375,-0.0150146484375
1761315809672312000,7.54431201171875,-0.9851531982421875,-0.00225830078125,-0.01593017578125
1761315809682359000,7.554359130859375,-0.985443115234375,-0.0017547607421875,-0.0163116455078125
1761315809692406000,7.564406005859375,-0.985809326171875,-0.0017242431640625,-0.01580810546875
1761315809702453200,7.574453369140625,-0.98651123046875,-0.00262451171875,-0.0156707763671875
1761315809712501000,7.5845009765625,-0.9861907958984375,-0.0030517578125,-0.0159759521484375
1761315809722548000,7.5945478515625,-0.9861602783203125,-0.002288818359375,-0.015655517578125
1761315809732595000,7.604594970703125,-0.98590087890625,-0.0027008056640625,-0.0151519775390625
1761315809742642200,7.61464208984375,-0.985443115234375,-0.00311279296875,-0.0155029296875
1761315809752689200,7.624689208984375,-0.986297607421875,-0.0015411376953125,-0.0153961181640625
1761315809762737200,7.634737060546875,-0.9860687255859375,-0.00177001953125,-0.015594482421875
1761315809772783900,7.644783935546875,-0.98699951171875,-0.0027923583984375,-0.0167388916015625
1761315809782830800,7.654830810546875,-0.986785888671875,-0.0023193359375,-0.016143798828125
1761315809792878000,7.664878173828125,-0.9859771728515625,-0.0025634765625,-0.016082763671875
1761315809802925000,7.674925048828125,-0.9871063232421875,-0.0020751953125,-0.0152587890625
1761315809812973000,7.68497314453125,-0.9864959716796875,-0.002044677734375,-0.015289306640625
1761315809823020000,7.69502001953125,-0.9863128662109375,-0.0027008056640625,-0.016021728515625
1761315809833067000,7.70506689453125,-0.986297607421875,-0.0029144287109375,-0.0165557861328125
1761315809843114200,7.7151142578125,-0.98614501953125,-0.0030517578125,-0.0154266357421875
1761315809853161200,7.7251611328125,-0.986236572265625,-0.0022735595703125,-0.0157928466796875
1761315809863209000,7.735208984375,-0.986358642578125,-0.001617431640625,-0.0164031982421875
1761315809873256000,7.745255859375,-0.9864501953125,-0.0015716552734375,-0.01580810546875
1761315809883302000,7.755302001953125,-0.9860382080078125,-0.002166748046875,-0.0150604248046875
1761315809893349000,7.76534912109375,-0.9862213134765625,-0.0024261474609375,-0.0154266357421875
1761315809903397000,7.775397216796875,-0.9854736328125,-0.00262451171875,-0.01580810546875
1761315809913444000,7.785444091796875,-0.9860076904296875,-0.002685546875,-0.015350341796875
1761315809923491000,7.795490966796875,-0.9859161376953125,-0.002716064453125,-0.0158538818359375
1761315809933538000,7.8055380859375,-0.985198974609375,-0.0026702880859375,-0.015625
1761315809943585300,7.815585205078125,-0.9857177734375,-0.00262451171875,-0.0155181884765625
1761315809953633000,7.825633056640625,-0.986236572265625,-0.0023193359375,-0.0157470703125
1761315809963680000,7.835679931640625,-0.9857177734375,-0.002044677734375,-0.0152587890625
1761315809973727000,7.84572705078125,-0.9872894287109375,-0.0020751953125,-0.0162811279296875
1761315809983774000,7.85577392578125,-0.986297607421875,-0.0020294189453125,-0.0165252685546875
1761315809993821200,7.8658212890625,-0.985992431640625,-0.001068115234375,-0.0163116455078125
1761315810003869200,7.875869140625,-0.985626220703125,-0.001678466796875,-0.0155792236328125
1761315810013916000,7.885916015625,-0.985626220703125,-0.00335693359375,-0.0159149169921875
1761315810023963000,7.895962890625,-0.986328125,-0.0032958984375,-0.0150604248046875
