time,seconds_elapsed,z,y,x
1761315802233580500,0.10558056640625,0.007297594100236893,-0.005899700801819563,0.0009198558400385082
1761315802243627500,0.11562744140625,0.004485296085476875,-0.009015332907438278,0.00367143377661705
1761315802253674500,0.125674560546875,0.007447263691574335,-0.006586796138435602,0.0003174488083459437
1761315802263721500,0.135721435546875,0.0067844027653336525,-0.007274956908077002,0.000245543458731845
1761315802273769700,0.145769775390625,0.0073511237278580666,-0.005723665934056044,0.0010775149567052722
1761315802283816700,0.155816650390625,0.006323942448943853,-0.008747951127588749,0.0008594020619057119
1761315802293863400,0.165863525390625,0.008765527978539467,-0.008501342497766018,0.002665025182068348
1761315802303910400,0.175910400390625,0.00905874278396368,-0.008459797129034996,0.0008556736283935606
1761315802313958700,0.185958740234375,0.008387892507016659,-0.0068120998330414295,0.0015044197207316756
1761315802324005600,0.196005615234375,0.00751916877925396,-0.008776181377470493,-0.0009480853332206607
1761315802334052600,0.206052490234375,0.009636647999286652,-0.006998254451900721,0.0009592706337571144
1761315802344099600,0.216099609375,0.009031844325363636,-0.00734340026974678,-0.00038642468280158937
1761315802354147600,0.226147705078125,0.009328254498541355,-0.005510879214853048,0.00007057376933516935
1761315802364194600,0.236194580078125,0.007934888824820518,-0.007018228527158499,0.0008751147543080151
1761315802374241500,0.246241455078125,0.00469488650560379,-0.006447779480367899,-0.00041864890954457223
1761315802384289500,0.25628955078125,0.006341785658150911,-0.008994294330477715,0.0013145363191142678
1761315802394336500,0.26633642578125,0.006580404471606016,-0.00785605888813734,0.000693220819812268
1761315802404383700,0.2763837890625,0.00809361319988966,-0.008975652046501637,0.0005613943794742227
1761315802414430700,0.2864306640625,0.006797452457249165,-0.007837416604161263,0.003683151677250862
1761315802424478500,0.296478515625,0.004221376497298479,-0.006618221756070852,-0.0002897519152611494
1761315802434525400,0.306525390625,0.00615190202370286,-0.007846471853554249,0.0004117247008252889
1761315802444572400,0.316572509765625,0.007416104432195425,-0.0075724320486187935,0.0006199838826432824
1761315802454619600,0.32661962890625,0.008359129540622234,-0.007427556440234184,0.003041063668206334
1761315802464667600,0.336667724609375,0.005090366117656231,-0.00720411678776145,0.000006924218723725062
1761315802474714600,0.346714599609375,0.00908271037042141,-0.0073231603018939495,0.00047830372932367027
1761315802484761600,0.35676171875,0.008550078608095646,-0.009519735351204872,-0.0009025452891364694
1761315802494808300,0.366808349609375,0.007095726206898689,-0.005487443413585424,-0.00007669904152862728
1761315802504856600,0.376856689453125,0.00869335699826479,-0.006468551699072123,0.0005957491230219603
1761315802514903600,0.386903564453125,0.006329801399260759,-0.007505586836487055,0.00222001108340919
1761315802524950500,0.396950439453125,0.010835870169103146,-0.006677343975752592,-0.002448510378599167
1761315802534998500,0.40699853515625,0.010016415268182755,-0.009213471785187721,0.002296710154041648
1761315802545045500,0.41704541015625,0.008348743431270123,-0.007728493306785822,0.0012985573848709464
1761315802555092500,0.427092529296875,0.0065103634260594845,-0.007017695810645819,0.0007792409160174429
1761315802565139500,0.437139404296875,0.008746353909373283,-0.009276854805648327,-0.0005155879771336913
1761315802575187500,0.4471875,0.010499246418476105,-0.007187339011579752,0.0008583368035033345
1761315802585234700,0.457234619140625,0.009495234116911888,-0.006637396290898323,0.0007933556917123497
1761315802595281700,0.46728173828125,0.004000067710876465,-0.01008033100515604,0.002115082461386919
1761315802605328600,0.47732861328125,0.007562312297523022,-0.007511179428547621,0.0035329493694007397
1761315802615376400,0.48737646484375,0.0071095749735832214,-0.009156746789813042,0.0007326356135308743
1761315802625423600,0.497423583984375,0.0090542146936059,-0.008296279236674309,0.0007917577750049531
1761315802635470600,0.507470703125,0.008606537245213985,-0.007072556763887405,0.0008641957538202405
1761315802645517600,0.517517578125,0.005804359447211027,-0.00797536876052618,0.0025811356026679277
1761315802655565600,0.527565673828125,0.0054307179525494576,-0.007382016163319349,0.0018461032304912806
1761315802665612500,0.537612548828125,0.004963333252817392,-0.007167898118495941,0.002609631512314081
1761315802675659800,0.54765966796875,0.007890413515269756,-0.008815329521894455,0.0005645901546813548
1761315802685707500,0.55770751953125,0.006989732384681702,-0.00484402384608984,0.0002668487431947142
1761315802695754500,0.56775439453125,0.007134874816983938,-0.009278719313442707,0.001100950757972896
1761315802705801500,0.577801513671875,0.006309028714895248,-0.008392686024308205,0.0020652813836932182
1761315802715848400,0.587848388671875,0.0070800138637423515,-0.00785685796290636,-0.00005406216951087117
1761315802725896700,0.597896728515625,0.009252620860934258,-0.005468002520501614,0.002231728984043002
1761315802735943700,0.607943603515625,0.008702144958078861,-0.006364156026393175,0.00481259822845459
1761315802745990400,0.617990478515625,0.006352171767503023,-0.008018244989216328,0.0012660667998716235
1761315802756038700,0.62803857421875,0.00863343570381403,-0.006918360013514757,0.0016756609547883272
1761315802766085600,0.638085693359375,0.009253419004380703,-0.007968444377183914,0.0007890945998951793
1761315802776132600,0.648132568359375,0.009985256008803844,-0.005406483076512814,0.0026202842127531767
1761315802786179600,0.6581796875,0.008990032598376274,-0.007481618318706751,0.0023704797495156527
1761315802796227300,0.668227294921875,0.007217965554445982,-0.008361526764929295,0.0005824333056807518
1761315802806274600,0.678274658203125,0.004486893769353628,-0.007193197961896658,-0.0004013383586425334
1761315802816321500,0.688321533203125,0.007791610434651375,-0.00678227236494422,0.0013140037190169096
1761315802826368500,0.698368408203125,0.006648847833275795,-0.006441920530050993,-0.00024208133982028812
1761315802836416500,0.70841650390625,0.009215602651238441,-0.008038485422730446,0.0015579492319375277
1761315802846463500,0.71846337890625,0.006342317909002304,-0.006764961872249842,0.0006948187365196645
1761315802856510700,0.7285107421875,0.008097074925899506,-0.00768934516236186,0.0017382452497258782
1761315802866553900,0.738553955078125,0.007869374938309193,-0.007441671099513769,0.0021494373213499784
1761315802876601600,0.7486015625,0.0062421830371022224,-0.008779909461736679,0.0017973673529922962
1761315802886648800,0.75864892578125,0.00609357887879014,-0.004804076161235571,0.0000900148443179205
1761315802896695800,0.76869580078125,0.008012119680643082,-0.00911253783851862,-0.000618918624240905
1761315802906743800,0.778743896484375,0.007114901207387447,-0.006456567905843258,0.004057592246681452
1761315802916790800,0.788790771484375,0.007966846227645874,-0.008113586343824863,0.00413482403382659
1761315802926838000,0.798838134765625,0.00911600049585104,-0.00959883164614439,-0.0007621967233717442
1761315802936885000,0.808885009765625,0.0060325926169753075,-0.009401757270097733,0.001014398061670363
1761315802946932700,0.8189326171875,0.005218463949859142,-0.009855560027062893,0.0025768745690584183
1761315802956979700,0.828979736328125,0.009103483520448208,-0.008440623059868813,0.0018903117161244154
1761315802967026700,0.839026611328125,0.007501858286559582,-0.006928213406354189,0.0005760417552664876
1761315802977075000,0.849074951171875,0.007473895326256752,-0.006629140581935644,0.002698581200093031
1761315802987122000,0.859121826171875,0.007741276640444994,-0.008214253932237625,0.0015398397808894515
1761315802997169000,0.8691689453125,0.0052325790748000145,-0.00868989434093237,0.00007962851668708026
1761315803007215600,0.879215576171875,0.009435047395527363,-0.007440872024744749,0.00304692261852324
1761315803017263900,0.889263916015625,0.008079231716692448,-0.00759933004155755,0.001472728094086051
1761315803027310800,0.899310791015625,0.009003348648548126,-0.007904794998466969,0.0016801883466541767
1761315803037357800,0.90935791015625,0.006125536747276783,-0.008145011961460114,0.0018490327056497335
1761315803047404800,0.91940478515625,0.0076027922332286835,-0.0068328725174069405,0.0018751317402347922
1761315803057452800,0.929452880859375,0.0076030585914850235,-0.007316235918551683,0.0036719664931297302
1761315803067499800,0.939499755859375,0.006219546310603619,-0.008654474280774593,0.002672215923666954
1761315803077546800,0.949546630859375,0.008556203916668892,-0.008327704854309559,0.0009030779474414885
1761315803087594800,0.9595947265625,0.006681338418275118,-0.008675513789057732,0.0007912251749075949
1761315803097641700,0.969641845703125,0.010061156004667282,-0.008444084785878658,0.003763046581298113
1761315803107689000,0.97968896484375,0.007110107224434614,-0.006311691831797361,0.00230816169641912
1761315803117736000,0.98973583984375,0.004089816473424435,-0.007896538823843002,-0.0003861583536490798
1761315803127783700,0.99978369140625,0.0052261874079704285,-0.010597516782581806,0.0009361011325381696
1761315803137830700,1.00983056640625,0.004890096373856068,-0.00899828877300024,0.001889246515929699
1761315803147877600,1.019877685546875,0.003602990647777915,-0.006568952929228544,0.005607285536825657
1761315803157924900,1.0299248046875,0.0070552462711930275,-0.008109059184789658,0.00392762990668416
1761315803167972900,1.039972900390625,0.006189452484250069,-0.008628908544778824,0.0018647453980520368
1761315803178019800,1.050019775390625,0.007701063062995672,-0.00765978405252099,0.0026114957872778177
1761315803188066800,1.06006689453125,0.010937069542706013,-0.008737032301723957,0.0009510148083791137
1761315803198114800,1.07011474609375,0.00657641002908349,-0.005260808393359184,0.002319879597052932
1761315803208161800,1.080161865234375,0.00615136930719018,-0.00754979532212019,0.0043718451634049416
1761315803218208800,1.090208740234375,0.00788775086402893,-0.0070975907146930695,0.0025531724095344543
1761315803228255700,1.100255859375,0.0063002402894198895,-0.010613229125738144,-0.0005233111442066729
1761315803238304000,1.110303955078125,0.007172425277531147,-0.008494684472680092,0.0020519655663520098
1761315803248351000,1.12035107421875,0.006951382849365473,-0.009760485030710697,0.001258876291103661
1761315803258397700,1.130397705078125,0.010182596743106842,-0.007166832685470581,-0.0005371595616452396
1761315803268445700,1.14044580078125,0.006717024836689234,-0.008499478921294212,0.0033302828669548035
1761315803278492700,1.15049267578125,0.0072962623089551926,-0.008214520290493965,0.001335841603577137
1761315803288540000,1.160539794921875,0.00872131995856762,-0.008145544677972794,0.000015978966985130683
1761315803298587000,1.1705869140625,0.008420116268098354,-0.005020857788622379,0.003579022129997611
1761315803308635000,1.180634765625,0.005114334635436535,-0.00854501873254776,0.0025355955585837364
1761315803318681600,1.190681640625,0.0070435283705592155,-0.00848456472158432,-0.0008370315190404654
1761315803328728800,1.200728759765625,0.006456035189330578,-0.008143680170178413,0.0005701828049495816
1761315803338775800,1.21077587890625,0.0060091568157076836,-0.008386027999222279,0.00011611382069531828
1761315803348823800,1.22082373046875,0.006342584267258644,-0.008836101740598679,0.0005819007055833936
1761315803358870800,1.230870849609375,0.008241417817771435,-0.007888282649219036,0.0020458402577787638
1761315803368917800,1.240917724609375,0.006160424090921879,-0.009845173917710781,0.0014149374328553677
1761315803378965800,1.2509658203125,0.007726362906396389,-0.005871471017599106,0.002071140334010124
1761315803389012700,1.2610126953125,0.007801197934895754,-0.006865895353257656,-0.000143544384627603
1761315803399059700,1.271059814453125,0.007991347461938858,-0.006261890754103661,0.0007965514669194818
1761315803409106700,1.281106689453125,0.006168679799884558,-0.004536162130534649,-0.0004625910660251975
1761315803419155000,1.291155029296875,0.00771837355569005,-0.00752156600356102,-0.00016005597717594355
1761315803429202000,1.301201904296875,0.010550645180046558,-0.005733519326895475,0.001190433045849204
1761315803439249000,1.311248779296875,0.00860360823571682,-0.005819273181259632,-0.0008996158139780164
1761315803449296600,1.321296630859375,0.004864530172199011,-0.009253419004380703,0.0017749968683347106
1761315803459344000,1.33134375,0.009810552932322025,-0.006745520513504744,0.0024048343766480684
1761315803469390800,1.341390869140625,0.008011587895452976,-0.006079464219510555,-0.000316916179144755
1761315803479437800,1.351437744140625,0.005110872443765402,-0.0070280819199979305,0.0011025486746802926
1761315803489485800,1.36148583984375,0.007456851191818714,-0.0078059914521873,0.0010572749888524413
1761315803499532800,1.37153271484375,0.0075780246406793594,-0.006773217581212521,-0.0003480751474853605
1761315803509579800,1.381579833984375,0.0057127466425299644,-0.007414506748318672,0.00012516857532318681
1761315803519626800,1.391626708984375,0.008313589729368687,-0.006959639023989439,0.0005928196478635073
1761315803529674800,1.4016748046875,0.008673382923007011,-0.007482950109988451,0.0029784792568534613
1761315803539721700,1.4117216796875,0.008466188795864582,-0.007779359817504883,-0.0003296993381809443
1761315803549768700,1.421768798828125,0.006678675301373005,-0.007754059974104166,0.0007803061744198203
1761315803559817000,1.43181689453125,0.007483216468244791,-0.006783603690564632,0.0018895127577707171
1761315803569863700,1.44186376953125,0.00663340138271451,-0.008199074305593967,0.0019520970527082682
1761315803579910700,1.45191064453125,0.0065069012343883514,-0.0073258234187960625,0.0031824775505810976
1761315803589957600,1.46195751953125,0.007089600898325443,-0.007111439015716314,0.00205249828286469
1761315803600006000,1.472005859375,0.006739395204931498,-0.010071542114019394,0.0012269183062016964
1761315803610052900,1.482052978515625,0.006682403851300478,-0.007637679576873779,0.002356631215661764
1761315803620099800,1.492099853515625,0.006709568202495575,-0.008844624273478985,0.0008852347382344306
1761315803630147600,1.502147705078125,0.006532734259963036,-0.007054180838167667,0.003043993143364787
1761315803640194800,1.51219482421875,0.008374842815101147,-0.008833172731101513,0.0014570154016837478
1761315803650241800,1.52224169921875,0.006140450481325388,-0.008442752994596958,0.003072488820180297
1761315803660288800,1.532288818359375,0.00942119862884283,-0.007526093162596226,0.0013488910626620054
1761315803670336800,1.542336669921875,0.005711681675165892,-0.008509332314133644,0.004471180960536003
1761315803680384000,1.552384033203125,0.006719155237078667,-0.006493585649877787,0.0034048515371978283
1761315803690431000,1.562430908203125,0.009123723953962326,-0.006144977640360594,0.00353428116068244
1761315803700478000,1.57247802734375,0.009476060047745705,-0.0065351310186088085,0.0002972087822854519
1761315803710525700,1.582525634765625,0.00863396842032671,-0.006995857693254948,0.002272208919748664
1761315803720572700,1.59257275390625,0.006421413738280535,-0.006110356654971838,0.0021936458069831133
1761315803730620000,1.602619873046875,0.008639294654130936,-0.00765818590298295,0.0026527747977524996
1761315803740668000,1.61266796875,0.009665942750871181,-0.006852579768747091,0.00224877311848104
1761315803750715000,1.62271484375,0.00893969926983118,-0.008713862858712673,0.0009542105835862458
1761315803760761900,1.632761962890625,0.008717325516045094,-0.0073593794368207455,0.0017238641157746315
1761315803770808600,1.64280859375,0.005101551301777363,-0.008856608532369137,0.0018383801216259599
1761315803780856800,1.65285693359375,0.01131044514477253,-0.0062736086547374725,0.002305498579517007
1761315803790903800,1.66290380859375,0.009076585993170738,-0.007114368490874767,-0.000499875342939049
1761315803800950800,1.67295068359375,0.005111138802021742,-0.006317817140370607,0.0026043052785098553
1761315803810999000,1.6829990234375,0.006913299672305584,-0.008639294654130936,0.0002146507758880034
1761315803821045800,1.693045654296875,0.006101834587752819,-0.007481085602194071,0.0012831110507249832
1761315803831092700,1.7030927734375,0.005303685087710619,-0.006947654765099287,0.0021286646369844675
1761315803841139700,1.7131396484375,0.006473345682024956,-0.008269115351140499,0.0019944412633776665
1761315803851187700,1.723187744140625,0.0057127466425299644,-0.00965555664151907,0.0021643510553985834
1761315803861235000,1.73323486328125,0.0049510826356709,-0.006992129608988762,0.0010902981739491224
1761315803871282200,1.7432822265625,0.006624080706387758,-0.00863237027078867,0.0012314456980675459
1761315803881330000,1.753329833984375,0.007780425250530243,-0.006459497381001711,0.0022146848496049643
1761315803891377000,1.763376953125,0.006163886282593012,-0.005988916382193565,0.001826662220992148
1761315803901424000,1.773424072265625,0.0075971996411681175,-0.007451790850609541,0.0023965786676853895
1761315803911471000,1.78347119140625,0.00824008695781231,-0.007361509837210178,0.001764344167895615
1761315803921519000,1.79351904296875,0.0100238723680377,-0.008321046829223633,0.0007440872141160071
1761315803931566000,1.803566162109375,0.007639011368155479,-0.006301305256783962,0.00017363809456583112
1761315803941613000,1.813613037109375,0.008679241873323917,-0.00839508231729269,0.0017845842521637678
1761315803951661000,1.8236611328125,0.008315454237163067,-0.010029198601841927,0.002088717184960842
1761315803961708000,1.8337080078125,0.008134093135595322,-0.00700810831040144,0.0009890979854390025
1761315803971755000,1.843755126953125,0.006258694920688868,-0.007644603960216045,-0.000020506340661086142
1761315803981802000,1.853802001953125,0.0076209018006920815,-0.009268599562346935,-0.0008588694618083537
1761315803991850200,1.863850341796875,0.008086422458291054,-0.007862983271479607,0.0025656893849372864
1761315804001897200,1.873897216796875,0.005893841851502657,-0.006104231346398592,0.0036280243657529354
1761315804011944000,1.88394384765625,0.007930094376206398,-0.009067264385521412,0.002749181119725108
1761315804021991000,1.893990966796875,0.008221711032092571,-0.006928479764610529,0.0038567897863686085
1761315804032039200,1.9040390625,0.007662447169423103,-0.007552192080765963,0.0035396073944866657
1761315804042086100,1.914086181640625,0.0070336745120584965,-0.007524761371314526,0.0005659217131324112
1761315804052133000,1.924133056640625,0.006876015570014715,-0.004803809802979231,0.001668736687861383
1761315804062181000,1.93418115234375,0.006470149848610163,-0.008840097114443779,-0.00027084347675554454
1761315804072227800,1.944227783203125,0.009005479514598846,-0.00785818975418806,0.003629089565947652
1761315804082275000,1.954275146484375,0.00891013815999031,-0.008114918135106564,0.0012186624808236957
1761315804092322000,1.964322021484375,0.0063196811825037,-0.007979629561305046,0.001213868847116828
1761315804102370000,1.9743701171875,0.008069111965596676,-0.006150570698082447,0.0014199974248185754
1761315804112417000,1.9844169921875,0.006356433033943176,-0.00794367678463459,0.0026852653827518225
1761315804122464000,1.994464111328125,0.008949552662670612,-0.008294947445392609,0.00005379585491027683
1761315804132512000,2.004511962890625,0.009977532550692558,-0.007224090863019228,0.0002388855500612408
1761315804142559000,2.01455908203125,0.008251005783677101,-0.0059601543471217155,0.001814411603845656
1761315804152606000,2.02460595703125,0.007321562618017197,-0.006016613449901342,0.0017747305100783706
1761315804162653000,2.03465283203125,0.008797486312687397,-0.00708667142316699,0.0026253440883010626
1761315804172701200,2.044701171875,0.00506959343329072,-0.007649663835763931,0.004478105343878269
1761315804182748200,2.054748046875,0.007455253042280674,-0.006192914675921202,0.0030751521699130535
1761315804192795100,2.064795166015625,0.007907724007964134,-0.007920773699879646,-0.0007368966471403837
1761315804202842000,2.074842041015625,0.007714645005762577,-0.007469367701560259,-0.002365685999393463
1761315804212890000,2.08489013671875,0.0073103769682347775,-0.006984938867390156,0.0031760858837515116
1761315804222937000,2.09493701171875,0.007425159215927124,-0.007075486239045858,0.0021968416403979063
1761315804232984000,2.104984130859375,0.007212372962385416,-0.007131146267056465,0.0011853729374706745
1761315804243032000,2.115031982421875,0.0073447320610284805,-0.007186806295067072,0.0006250438746064901
1761315804253079000,2.1250791015625,0.007774033583700657,-0.006857106927782297,0.002432797569781542
1761315804263126000,2.1351259765625,0.006109291687607765,-0.008319182321429253,0.00236222380772233
1761315804273173000,2.145173095703125,0.007161240093410015,-0.009553823620080948,-0.00036218989407643676
1761315804283221000,2.155220947265625,0.007705057505518198,-0.006160157732665539,0.0016998957144096494
1761315804293268000,2.16526806640625,0.0064805359579622746,-0.0072355424053967,0.004040548112243414
1761315804303315200,2.175315185546875,0.006053631659597158,-0.007738879881799221,-0.00040506679215468466
1761315804313363200,2.18536328125,0.0070856064558029175,-0.008056328631937504,0.0025001754984259605
1761315804323410000,2.195409912109375,0.006952181924134493,-0.007872037589550018,0.0018442390719428658
1761315804333457000,2.205456787109375,0.007001983001828194,-0.009792443364858627,0.00227913330309093
1761315804343504000,2.21550390625,0.007702394388616085,-0.007101585157215595,0.0011598066193982959
1761315804353552100,2.22555224609375,0.0068115671165287495,-0.006880010478198528,0.0022924491204321384
1761315804363599000,2.23559912109375,0.007194263394922018,-0.009297361597418785,0.003166232258081436
1761315804373646000,2.24564599609375,0.0084262415766716,-0.008431567810475826,0.0014144048327580094
1761315804383693000,2.255693115234375,0.007382815238088369,-0.009000418707728386,-0.0001901497016660869
1761315804393741000,2.265740966796875,0.008670720271766186,-0.008537561632692814,-0.0003222425002604723
1761315804403788000,2.2757880859375,0.006010221783071756,-0.006509298458695412,0.0020160130225121975
1761315804413835000,2.2858349609375,0.009001217782497406,-0.0076243639923632145,0.0028567728586494923
1761315804423883000,2.295883056640625,0.007214503362774849,-0.007797469384968281,0.0021382521372288465
1761315804433930200,2.30593017578125,0.008188155479729176,-0.007620635442435741,-0.0013161342358216643
1761315804443977200,2.315977294921875,0.00800146721303463,-0.006813697516918182,0.0024282701779156923
1761315804454024200,2.326024169921875,0.007418235298246145,-0.00845793355256319,-0.000800279900431633
1761315804464072000,2.336072021484375,0.00818149745464325,-0.006170544307678938,0.0027244137600064278
1761315804474119000,2.346118896484375,0.008108526468276978,-0.008912268094718456,0.002222940558567643
1761315804484166100,2.356166259765625,0.009756224229931831,-0.006974020041525364,0.0018333201296627522
1761315804494214100,2.366214111328125,0.0052296495996415615,-0.0068118334747850895,0.0013917679898440838
1761315804504261000,2.37626123046875,0.006878945045173168,-0.009023322723805904,-0.0011797803454101086
1761315804514308000,2.38630810546875,0.01008113007992506,-0.008205199614167213,-0.0012679309584200382
1761315804524354800,2.396354736328125,0.006934871431440115,-0.00818069837987423,0.0005600627628155053
1761315804534403000,2.406403076171875,0.006527940277010202,-0.007316235918551683,-0.0000066579027588886674
1761315804544450000,2.416449951171875,0.007451790850609541,-0.005983057431876659,0.001957956003025174
1761315804554497000,2.4264970703125,0.009127452038228512,-0.007011304143816233,-0.0007416903390549123
1761315804564544000,2.4365439453125,0.006234726402908564,-0.009439840912818909,0.004000866785645485
1761315804574592000,2.446592041015625,0.00555295730009675,-0.007060572504997253,0.0034815503749996424
1761315804584639000,2.456638916015625,0.010038252919912338,-0.007517304737120867,-0.0007933556917123497
1761315804594686000,2.46668603515625,0.00675271125510335,-0.007740211207419634,0.0026008430868387222
1761315804604734000,2.47673388671875,0.006628874223679304,-0.006915430538356304,0.002058889716863632
1761315804614781200,2.48678125,0.006828611250966787,-0.00646642129868269,-0.0011169298086315393
1761315804624828200,2.496828125,0.008153533563017845,-0.0109253516420722,0.0032285500783473253
1761315804634875100,2.506875244140625,0.006682137493044138,-0.0067481836304068565,0.0024586303625255823
1761315804644923000,2.5169228515625,0.006704774219542742,-0.006976949516683817,0.0035116442013531923
1761315804654970000,2.52697021484375,0.008326106704771519,-0.007226753979921341,0.0003174488083459437
1761315804665017000,2.53701708984375,0.008190019056200981,-0.009324259124696255,-0.0012269183062016964
1761315804675065000,2.547065185546875,0.007964183576405048,-0.007707187905907631,0.002492984989657998
1761315804685112000,2.557112060546875,0.008330101147294044,-0.006858971435576677,0.0006540723843500018
1761315804695159000,2.567158935546875,0.008929844945669174,-0.010484332218766212,0.002825347473844886
1761315804705206300,2.577206298828125,0.008622516877949238,-0.008358864113688469,0.00010386328358436003
1761315804715254000,2.58725390625,0.007791077718138695,-0.005855492316186428,0.0031310785561800003
1761315804725301000,2.597301025390625,0.007121026515960693,-0.0068240840919315815,0.0016996293561533093
1761315804735348000,2.607347900390625,0.007858721539378166,-0.008639561012387276,0.003753991797566414
1761315804745395000,2.61739501953125,0.006689061876386404,-0.007872037589550018,0.0016881778137758374
1761315804755443200,2.627443115234375,0.006913033314049244,-0.006117547396570444,0.0018666095566004515
1761315804765490200,2.637490234375,0.008890963159501553,-0.008194279856979847,0.002240783767774701
1761315804775537000,2.647536865234375,0.006716492120176554,-0.01058926060795784,0.00133877107873559
1761315804785585200,2.657585205078125,0.005240568425506353,-0.0089953588321805,0.003424026072025299
1761315804795632000,2.667632080078125,0.006025401875376701,-0.008229433558881283,0.0012567456578835845
1761315804805679000,2.67767919921875,0.00592526700347662,-0.007819040678441525,0.0008511462947353721
1761315804815726000,2.68772607421875,0.004923918284475803,-0.006639793049544096,0.004217115696519613
1761315804825774000,2.697774169921875,0.005928196478635073,-0.007457117084413767,0.0010032127611339092
1761315804835821000,2.707821044921875,0.005555620416998863,-0.00993279181420803,0.0019374496769160032
1761315804845868000,2.717867919921875,0.006833404768258333,-0.008904279209673405,0.0034053840208798647
1761315804855915000,2.7279150390625,0.006966829299926758,-0.007400658447295427,0.0013930995482951403
1761315804865963000,2.737962890625,0.0068118334747850895,-0.007960188202559948,0.002694852650165558
1761315804876009500,2.748009521484375,0.007920773699879646,-0.007438208907842636,0.0009795106016099453
1761315804886056400,2.758056396484375,0.006444317288696766,-0.006934871431440115,0.002835201332345605
1761315804896104400,2.7681044921875,0.007574030198156834,-0.007497331127524376,0.0017070862231776118
1761315804906151400,2.7781513671875,0.009180448949337006,-0.007019559852778912,0.00358860963024199
1761315804916198400,2.788198486328125,0.010154632851481438,-0.007437409833073616,0.0031617048662155867
1761315804926245400,2.798245361328125,0.00515721132978797,-0.00621049152687192,0.0026732811238616705
1761315804936293400,2.80829345703125,0.007709585130214691,-0.00675271125510335,0.00061279337387532
1761315804946340400,2.81834033203125,0.009062737226486206,-0.007728226948529482,0.0013097425689920783
1761315804956387600,2.8283876953125,0.006984938867390156,-0.008418251760303974,0.00316037330776453
1761315804966434600,2.8384345703125,0.006700779777020216,-0.006363090593367815,0.0014317154418677092
1761315804976482300,2.848482421875,0.006637929007411003,-0.00983585324138403,0.0012098740553483367
1761315804986529300,2.858529296875,0.00884835235774517,-0.006368949543684721,0.0008362325606867671
1761315804996576500,2.868576416015625,0.006852047052234411,-0.006999053526669741,0.0007723167072981596
1761315805006624500,2.87862451171875,0.01068273838609457,-0.007261641323566437,-0.00007536746124969795
1761315805016671500,2.88867138671875,0.006986802909523249,-0.007044593803584576,0.0007544735562987626
1761315805026718500,2.898718505859375,0.008013717830181122,-0.009104815311729908,0.002223206916823983
1761315805036765400,2.908765380859375,0.00797430332750082,-0.009758355095982552,0.0006311691831797361
1761315805046813400,2.9188134765625,0.005758020561188459,-0.007969243451952934,-0.0008149272762238979
1761315805056860400,2.9288603515625,0.0044080642983317375,-0.0076272934675216675,-0.00048655952559784055
1761315805066907400,2.938907470703125,0.0041284323669970036,-0.00640783179551363,0.0006676545017398894
1761315805076954400,2.948954345703125,0.005279717035591602,-0.007601993158459663,0.0031092404387891293
1761315805087002600,2.959002685546875,0.005368399899452925,-0.006460029631853104,0.0036360137164592743
1761315805097049600,2.969049560546875,0.008844890631735325,-0.009653160348534584,0.0013640711549669504
1761315805107096300,2.979096435546875,0.008498413488268852,-0.006205698009580374,0.0016431703697890043
1761315805117144300,2.989144287109375,0.006474144756793976,-0.008076568134129047,-0.0013310478534549475
1761315805127191600,2.999191650390625,0.007225155830383301,-0.007952465675771236,0.0016498282784596086
1761315805137238500,3.009238525390625,0.007709052413702011,-0.008874984458088875,0.002812031889334321
1761315805147285500,3.019285400390625,0.009006012231111526,-0.008105064742267132,0.0005637911963276565
1761315805157333200,3.029333251953125,0.006327404174953699,-0.008653941564261913,0.0025835325941443443
1761315805167380200,3.039380126953125,0.00777563126757741,-0.005788912996649742,0.005021922755986452
1761315805177427500,3.049427490234375,0.008441953919827938,-0.007378820329904556,-0.00008495483780279756
1761315805187475500,3.059475341796875,0.007378021255135536,-0.009242233820259571,0.0014266553334891796
1761315805197522400,3.0695224609375,0.010913900099694729,-0.008710667490959167,0.0023518374655395746
1761315805207569400,3.0795693359375,0.010675547644495964,-0.007921839132905006,0.003748665563762188
1761315805217616400,3.089616455078125,0.008620386011898518,-0.009532518684864044,0.001972603378817439
1761315805227664400,3.099664306640625,0.0076182386837899685,-0.0065497783944010735,0.0015952334506437182
1761315805237711400,3.10971142578125,0.007434480357915163,-0.008790295571088791,0.00199390877969563
1761315805247758300,3.11975830078125,0.00749014038592577,-0.009430252946913242,0.0004913532175123692
1761315805257805300,3.129805419921875,0.005090366117656231,-0.008976717479526997,0.0023033679462969303
1761315805267853600,3.139853515625,0.009455020539462566,-0.008715727366507053,0.00339153571985662
1761315805277900500,3.149900634765625,0.00749014038592577,-0.008610532619059086,0.0007507451227866113
1761315805287947500,3.159947509765625,0.004581169690936804,-0.005626726895570755,0.00025007082149386406
1761315805297995300,3.169995361328125,0.006322610657662153,-0.007532751187682152,0.0022506373934447765
1761315805308042500,3.18004248046875,0.006677609868347645,-0.006406500469893217,0.0011787151452153921
1761315805318089500,3.19008935546875,0.006964432541280985,-0.007893876172602177,0.0014452975010499358
1761315805328136400,3.200136474609375,0.005019259639084339,-0.008835569024085999,0.002394448034465313
1761315805338184400,3.210184326171875,0.007092530373483896,-0.00589597225189209,0.0008514125947840512
1761315805348231400,3.2202314453125,0.007454187609255314,-0.007144995033740997,0.0012207929976284504
1761315805358278400,3.2302783203125,0.007668838836252689,-0.0067545752972364426,0.0029521139804273844
1761315805368325400,3.240325439453125,0.0064981128089129925,-0.008687231689691544,0.004096740856766701
1761315805378373400,3.250373291015625,0.007899468764662743,-0.007448861375451088,0.0024413196370005608
1761315805388420400,3.26042041015625,0.007545800413936377,-0.00893943291157484,0.0014016216155141592
1761315805398467600,3.270467529296875,0.007767109200358391,-0.007759918924421072,0.0009337042574770749
1761315805408514600,3.2805146484375,0.009514409117400646,-0.006027532275766134,0.0014929680619388819
1761315805418562300,3.290562255859375,0.006856041960418224,-0.008329303003847599,0.0005531385540962219
1761315805428609300,3.300609375,0.007762582041323185,-0.009305617772042751,0.0019254654180258512
1761315805438656300,3.31065625,0.007522897329181433,-0.009821738116443157,0.0014775217277929187
1761315805448704500,3.32070458984375,0.008054996840655804,-0.006395581178367138,0.0021233384031802416
1761315805458751500,3.33075146484375,0.008105597458779812,-0.007291735149919987,0.0021174794528633356
1761315805468798500,3.340798583984375,0.010145578533411026,-0.007784686051309109,0.003067695302888751
1761315805478845400,3.350845458984375,0.0070310113951563835,-0.0071164988912642,0.0005925533478148282
1761315805488893400,3.3608935546875,0.009154083207249641,-0.007309578359127045,0.0007717840489931405
1761315805498940400,3.3709404296875,0.007107710465788841,-0.00942279677838087,0.003370496677234769
1761315805508987400,3.3809873046875,0.006517554167658091,-0.007309312000870705,-0.00013182646944187582
1761315805519034400,3.391034423828125,0.005543369799852371,-0.007786284200847149,0.0007768440991640091
1761315805529082600,3.40108251953125,0.00842544250190258,-0.007704258430749178,0.00192200334277004
1761315805539129600,3.411129638671875,0.009135973639786243,-0.007666441611945629,-0.00029774141148664057
1761315805549176600,3.421176513671875,0.004323641769587994,-0.008198807947337627,0.0025308020412921906
1761315805559223300,3.431223388671875,0.005603291094303131,-0.006638195365667343,0.0017145430902019143
1761315805569271300,3.441271240234375,0.005691441707313061,-0.0075671058148145676,0.0025896579027175903
1761315805579318500,3.451318603515625,0.007613711059093475,-0.006738862954080105,0.0036165728233754635
1761315805589365500,3.461365478515625,0.0062855929136276245,-0.009133044630289078,0.0010921623324975371
1761315805599413500,3.47141357421875,0.007958590984344482,-0.006624347064644098,0.0018559569725766778
1761315805609460500,3.48146044921875,0.00672155199572444,-0.008777245879173279,0.001853826455771923
1761315805619507200,3.491507080078125,0.007958058267831802,-0.006295446306467056,0.0004588626616168767
1761315805629554400,3.501554443359375,0.007257646415382624,-0.007655256427824497,0.0020506340079009533
1761315805639602400,3.5116025390625,0.009003615006804466,-0.009446232579648495,0.001817873795516789
1761315805649649400,3.5216494140625,0.011261442676186562,-0.007467770017683506,-0.00020266656065359712
1761315805659696400,3.5316962890625,0.005656021647155285,-0.008510397747159004,-0.0015358449891209602
1761315805669743600,3.54174365234375,0.007542870938777924,-0.00896899402141571,-0.00005273058923194185
1761315805679791400,3.551791259765625,0.007647267077118158,-0.007545268163084984,0.0015776565996930003
1761315805689838300,3.56183837890625,0.00806085579097271,-0.007400658447295427,0.001663410454057157
1761315805699885300,3.57188525390625,0.008780442178249359,-0.008271245285868645,0.0006095975404605269
1761315805709932300,3.581932373046875,0.010041449218988419,-0.006489857099950314,0.0027742148377001286
1761315805719980500,3.59198046875,0.007556719705462456,-0.010966630652546883,0.004831506870687008
1761315805730027500,3.602027587890625,0.006975617725402117,-0.007869108580052853,0.0022767363116145134
1761315805740074500,3.612074462890625,0.007404652889817953,-0.004793690051883459,0.0014631407102569938
1761315805750121500,3.62212158203125,0.006658168975263834,-0.007273092865943909,0.0021614215802401304
1761315805760169500,3.63216943359375,0.00812264159321785,-0.005637113004922867,-0.00159443449229002
1761315805770216400,3.642216552734375,0.005003546830266714,-0.007215834688395262,0.0017102820565924048
1761315805780263400,3.652263427734375,0.008140751160681248,-0.008922388777136803,-0.00004021373388241045
1761315805790311400,3.6623115234375,0.00908750481903553,-0.007135940250009298,-0.00030652983696199954
1761315805800358700,3.672358642578125,0.007311975117772818,-0.006322077941149473,-0.0011211908422410488
1761315805810405400,3.6824052734375,0.006471215281635523,-0.009285643696784973,-0.000027963191314483993
1761315805820452400,3.692452392578125,0.006640325766056776,-0.007979629561305046,0.0022090920247137547
1761315805830500400,3.702500244140625,0.009102950803935528,-0.00823982059955597,0.0007523429812863469
1761315805840547300,3.71254736328125,0.006370281334966421,-0.007444334216415882,0.0022535668686032295
1761315805850594600,3.722594482421875,0.006411560345441103,-0.007220628671348095,0.0041039311327040195
1761315805860641500,3.7326416015625,0.006473345682024956,-0.008010522462427616,0.0010436928132548928
1761315805870689800,3.742689697265625,0.007126352749764919,-0.007411577273160219,0.0030543794855475426
1761315805880736800,3.75273681640625,0.0065588331781327724,-0.007509581744670868,-0.00019813918333966285
1761315805890783700,3.76278369140625,0.008376174606382847,-0.008549545891582966,0.003192331176251173
1761315805900830700,3.772830810546875,0.006618221756070852,-0.008791893720626831,0.0021787320729345083
1761315805910879000,3.78287890625,0.008198008872568607,-0.007189469411969185,0.0029827402904629707
1761315805920926000,3.792926025390625,0.007861651480197906,-0.0068448567762970924,0.006294913589954376
1761315805930973000,3.802972900390625,0.006201436743140221,-0.006306099239736795,0.004815527703613043
1761315805941020700,3.813020751953125,0.007568171247839928,-0.006955377757549286,0.005767075344920158
1761315805951068000,3.82306787109375,0.005787848029285669,-0.007092796731740236,0.0032860743813216686
1761315805961115000,3.833114990234375,0.006632070057094097,-0.0038309572264552116,0.0006524744676426053
1761315805971161900,3.843161865234375,0.0063798688352108,-0.00612313998863101,-0.000031691615731688216
1761315805981209900,3.8532099609375,0.011060107499361038,-0.006923686247318983,0.0036557212006300688
1761315805991256800,3.8632568359375,0.008817460387945175,-0.008606270886957645,0.0025923210196197033
1761315806001303800,3.8733037109375,0.005054679699242115,-0.007378553971648216,0.0009736517095007002
1761315806011350800,3.883350830078125,0.004905276466161013,-0.008893360383808613,0.001817607437260449
1761315806021398800,3.893398681640625,0.005100752227008343,-0.011589810252189636,0.002494050422683358
1761315806031445800,3.90344580078125,0.0041494714096188545,-0.005875998642295599,0.0012868394842371345
1761315806041493000,3.913492919921875,0.007897337898612022,-0.0070946612395346165,0.003427488263696432
1761315806051540000,3.9235400390625,0.006283994764089584,-0.0070366039872169495,-0.000056459015468135476
1761315806061587700,3.933587646484375,0.0041007352992892265,-0.007985222153365612,0.0033065807074308395
1761315806071634700,3.943634765625,0.005332181230187416,-0.010367685928940773,0.0009992180857807398
1761315806081681700,3.953681640625,0.007364172954112291,-0.007031810469925404,0.0021758025977760553
1761315806091729000,3.96372900390625,0.009001217782497406,-0.007472829893231392,0.0028690234757959843
1761315806101777000,3.97377685546875,0.009191900491714478,-0.006338856182992458,0.0020748688839375973
1761315806111824000,3.983823974609375,0.006587861571460962,-0.009914415888488293,-0.00012223910016473383
1761315806121870800,3.993870849609375,0.009050752967596054,-0.004224305972456932,0.0019121496006846428
1761315806131918000,4.00391796875,0.008380435407161713,-0.008284827694296837,-0.000024767397917457856
1761315806141965800,4.0139658203125,0.007384945638477802,-0.00768774701282382,0.002802977105602622
1761315806152012800,4.0240126953125,0.0073804184794425964,-0.007018494885414839,0.003465571440756321
1761315806162059800,4.034059814453125,0.007654191460460424,-0.008799883536994457,-0.0004588626616168767
1761315806172106800,4.044106689453125,0.007960454560816288,-0.007812116760760546,0.002252501668408513
1761315806182155000,4.054155029296875,0.0052320463582873344,-0.008977249264717102,0.0023992417845875025
1761315806192201700,4.06420166015625,0.005647765472531319,-0.008905877359211445,0.000666322885081172
1761315806202248700,4.074248779296875,0.00871972180902958,-0.007995874620974064,-0.0001805623178370297
1761315806212297000,4.084296875,0.010142115876078606,-0.0065013086423277855,0.0026549051981419325
1761315806222344000,4.094343994140625,0.006954312324523926,-0.008243815042078495,0.001258609932847321
1761315806232391000,4.104390869140625,0.007648066151887178,-0.008363391272723675,0.0026048377621918917
1761315806242438000,4.11443798828125,0.00532552320510149,-0.007014499977231026,-0.0003456783015280962
1761315806252485600,4.124485595703125,0.007173757068812847,-0.006707970052957535,0.0008543420699425042
1761315806262532900,4.134532958984375,0.007833688519895077,-0.00749200489372015,0.004545483272522688
1761315806272579800,4.144579833984375,0.006962035782635212,-0.008500011637806892,0.0024141555186361074
1761315806282626800,4.154626708984375,0.005346562247723341,-0.008049404248595238,0.0010687265312299132
1761315806292674800,4.1646748046875,0.0055228634737432,-0.0062214103527367115,0.004442951641976833
1761315806302721800,4.1747216796875,0.006095442920923233,-0.008726379834115505,0.0024288028944283724
1761315806312769000,4.18476904296875,0.007893077097833157,-0.007667507044970989,0.0029467877466231585
1761315806322816000,4.19481591796875,0.007895473390817642,-0.0073071811348199844,0.0005515406373888254
1761315806332863700,4.20486376953125,0.005059739574790001,-0.007131945341825485,0.002213353058323264
1761315806342910700,4.21491064453125,0.006963367108255625,-0.005935653578490019,0.0020935109350830317
1761315806352958000,4.2249580078125,0.00908643938601017,-0.007286142557859421,0.0022543659433722496
1761315806363005000,4.2350048828125,0.00820946041494608,-0.008047007024288177,0.00014434332842938602
1761315806373053000,4.245052978515625,0.007212106604129076,-0.00759933004155755,0.002540389308705926
1761315806383100000,4.255099853515625,0.0073473951779305935,-0.008656605146825314,0.003742540255188942
1761315806393147000,4.26514697265625,0.009942112490534782,-0.0075753615237772465,-0.0006458165589720011
1761315806403193900,4.27519384765625,0.00797297153621912,-0.007900533266365528,0.0024535702541470528
1761315806413241900,4.285241943359375,0.009411078877747059,-0.007918376475572586,-0.0038863508962094784
1761315806423288800,4.295288818359375,0.008287757635116577,-0.009440373629331589,0.00010359696898376569
1761315806433335800,4.305335693359375,0.007905859500169754,-0.008840363472700119,0.0007667240570299327
1761315806443382800,4.3153828125,0.008053665049374104,-0.008976717479526997,0.004855741746723652
1761315806453430800,4.3254306640625,0.009665676392614841,-0.0060150157660245895,0.0025039040483534336
1761315806463477800,4.335477783203125,0.005576126743108034,-0.007044860161840916,0.0011648666113615036
1761315806473524700,4.345524658203125,0.007405185606330633,-0.011847871355712414,0.0017161410069093108
1761315806483571700,4.35557177734375,0.006856308318674564,-0.009167665615677834,0.002695651724934578
1761315806493620000,4.365619873046875,0.008975385688245296,-0.006021673325449228,0.00242134602740407
1761315806503667000,4.3756669921875,0.007167365401983261,-0.008921056985855103,-0.0003371562052052468
1761315806513714000,4.3857138671875,0.006341252941638231,-0.00791651289910078,0.001990979304537177
1761315806523761000,4.395760986328125,0.0070374030619859695,-0.008316253311932087,0.0016759273130446672
1761315806533809000,4.405808837890625,0.00495188171043992,-0.004325772635638714,0.0036554548423737288
1761315806543855900,4.41585595703125,0.006573746912181377,-0.00729386555030942,0.003472495824098587
1761315806553902800,4.42590283203125,0.008345281705260277,-0.006899451371282339,0.0013424995122477412
1761315806563949800,4.43594970703125,0.007363906595855951,-0.006884271278977394,0.0005715143634006381
1761315806573997800,4.445997802734375,0.006691458635032177,-0.007063235621899366,0.0005155879771336913
1761315806584045000,4.456045166015625,0.007416903506964445,-0.005771602503955364,-0.000025832661776803434
1761315806594091800,4.466091796875,0.007643005810678005,-0.007533017545938492,0.0015249260468408465
1761315806604138800,4.476138671875,0.006766825914382935,-0.00932319462299347,0.0020269318483769894
1761315806614186800,4.486186767578125,0.008109858259558678,-0.00785818975418806,0.0027859327383339405
1761315806624234000,4.49623388671875,0.007398527581244707,-0.008477640338242054,0.0012796488590538502
1761315806634281000,4.506281005859375,0.006883738562464714,-0.00666349520906806,0.0027302727103233337
1761315806644328000,4.516327880859375,0.007564442697912455,-0.00947765726596117,-0.0005310343112796545
1761315806654375700,4.526375732421875,0.00782623142004013,-0.008647816255688667,0.001404018490575254
1761315806664422700,4.536422607421875,0.00768934516236186,-0.006129798013716936,0.00008388957212446257
1761315806674470000,4.546469970703125,0.006000368390232325,-0.006854177452623844,0.0013547500129789114
1761315806684518000,4.556517822265625,0.009137305431067944,-0.009242766536772251,0.0017595505341887474
1761315806694564900,4.56656494140625,0.0076059880666434765,-0.008807339705526829,0.0035691685043275356
1761315806704611800,4.57661181640625,0.004990497604012489,-0.008670453913509846,0.002171541564166546
1761315806714658800,4.586658935546875,0.008217450231313705,-0.0068328725174069405,0.0015907060587778687
1761315806724706800,4.596706787109375,0.0054698665626347065,-0.008264853619039059,0.0011893677292391658
1761315806734753800,4.60675390625,0.008290153928101063,-0.00782463327050209,0.0020903151016682386
1761315806744800800,4.61680078125,0.006073871627449989,-0.00606508320197463,0.0005717806634493172
1761315806754847700,4.62684765625,0.006719954311847687,-0.010717093013226986,0.0011150655336678028
1761315806764896000,4.63689599609375,0.0065380604937672615,-0.007753260899335146,0.0006095975404605269
1761315806774943000,4.64694287109375,0.006871488410979509,-0.006170011591166258,0.002739860210567713
1761315806784990000,4.656989990234375,0.006281598005443811,-0.009650496765971184,0.00019361180602572858
1761315806795036700,4.66703662109375,0.007574296556413174,-0.007570568006485701,0.0015337144723162055
1761315806805085000,4.6770849609375,0.007090133614838123,-0.00700864102691412,0.0019941749051213264
1761315806815132000,4.6871318359375,0.008193748071789742,-0.009007076732814312,0.0012772521004080772
1761315806825179000,4.697178955078125,0.007614510133862495,-0.007641408126801252,-0.00012410330236889422
1761315806835225900,4.707225830078125,0.008040616288781166,-0.007090932689607143,0.0023406522814184427
1761315806845273900,4.71727392578125,0.006352171767503023,-0.0073745595291256905,0.001219727797433734
1761315806855320800,4.72732080078125,0.007652593310922384,-0.006160956807434559,0.0009110674145631492
1761315806865367800,4.737367919921875,0.008199340663850307,-0.00774686923250556,0.0013840447645634413
1761315806875418400,4.74741845703125,0.007074687164276838,-0.005622731987386942,0.0011222560424357653
1761315806885466400,4.75746630859375,0.009865679778158665,-0.007780425250530243,-0.000028495824153651483
1761315806895513600,4.767513671875,0.0062760054133832455,-0.00806378573179245,0.0000679106087773107
1761315806905560600,4.777560546875,0.007005711551755667,-0.006069610361009836,0.0005523395957425237
1761315806915607600,4.787607666015625,0.006674680393189192,-0.00944889523088932,0.0019680759869515896
1761315806925655300,4.7976552734375,0.007650196552276611,-0.008922122418880463,0.0010037453612312675
1761315806935702300,4.807702392578125,0.009764214046299458,-0.008098673075437546,0.00021305288828443736
1761315806945749500,4.81774951171875,0.00911360327154398,-0.009620402939617634,0.0015821839915588498
1761315806955796500,4.82779638671875,0.007799866143614054,-0.0073287528939545155,0.0023102923296391964
1761315806965844500,4.837844482421875,0.00774686923250556,-0.01025769766420126,-0.00018109494703821838
1761315806975891500,4.847891357421875,0.00660543842241168,-0.008580705150961876,-0.00000852211542223813
1761315806985936400,4.857936279296875,0.005928196478635073,-0.007390804588794708,0.0033569145016372204
1761315806995983400,4.8679833984375,0.007790545001626015,-0.006517820525914431,0.0014735270524397492
1761315807006031600,4.878031494140625,0.005363606382161379,-0.007241667713969946,0.0009499495499767363
1761315807016078600,4.88807861328125,0.0063066319562494755,-0.008597216568887234,-0.00023915186466183513
1761315807026125300,4.898125244140625,0.005231780000030994,-0.006756439805030823,0.004796619527041912
1761315807036172300,4.90817236328125,0.007727694697678089,-0.006601709872484207,0.0026256104465574026
1761315807046220500,4.918220458984375,0.005440305452793837,-0.010611631907522678,0.0017004283145070076
1761315807056267500,4.928267578125,0.005615807604044676,-0.009495500475168228,0.0008130630594678223
1761315807066314500,4.938314453125,0.008763131685554981,-0.009154882282018661,0.0002079928817693144
1761315807076361500,4.948361572265625,0.0075884112156927586,-0.008067513816058636,0.003172357566654682
1761315807086409200,4.9584091796875,0.007661914452910423,-0.006819290108978748,0.003001648932695389
1761315807096456400,4.96845654296875,0.0065559037029743195,-0.008519984781742096,0.00000958738019107841
1761315807106503400,4.97850341796875,0.008285094052553177,-0.007125820033252239,0.0035950010642409325
1761315807116550400,4.98855029296875,0.0075814868323504925,-0.0070861391723155975,0.002665291540324688
1761315807126598400,4.998598388671875,0.007379086688160896,-0.006913299672305584,0.000919323181733489
1761315807136645400,5.008645263671875,0.008682703599333763,-0.007842742837965488,0.0030133668333292007
1761315807146692600,5.018692626953125,0.008714395575225353,-0.006434729788452387,0.0015795208746567369
1761315807156739600,5.028739501953125,0.009091232903301716,-0.008419583551585674,0.0024615598376840353
1761315807166787300,5.038787353515625,0.008539692498743534,-0.006449643522500992,0.0031292142812162638
1761315807176834300,5.048834228515625,0.009621734730899334,-0.009725597687065601,0.0006045375484973192
1761315807186881500,5.058881591796875,0.007384945638477802,-0.007505853194743395,0.0018112158868461847
1761315807196928500,5.068928466796875,0.007980428636074066,-0.009639045223593712,0.004542820155620575
1761315807206976500,5.0789765625,0.007931426167488098,-0.007279750891029835,0.0034493261482566595
1761315807217023500,5.0890234375,0.0075513930059969425,-0.008682703599333763,0.00012996226723771542
1761315807227070200,5.0990703125,0.008351673372089863,-0.007173757068812847,0.0027569043450057507
1761315807237117400,5.109117431640625,0.0057010287418961525,-0.006644054315984249,0.002159024588763714
1761315807247165400,5.11916552734375,0.007228618022054434,-0.00586800929158926,-0.0009118663729168475
1761315807257212400,5.12921240234375,0.007938084192574024,-0.009956760331988335,0.0008178567513823509
1761315807267259400,5.13925927734375,0.0076094502583146095,-0.006762298755347729,0.00024101608141791075
1761315807277306400,5.149306396484375,0.007113569416105747,-0.006756439805030823,0.00032144354190677404
1761315807287354400,5.159354248046875,0.0049649314023554325,-0.006695453077554703,0.0012234562309458852
1761315807297401300,5.1694013671875,0.008859803900122643,-0.007336209993809462,0.0034911378752440214
1761315807307448300,5.1794482421875,0.005683718249201775,-0.0071127708069980145,0.0008082693675532937
1761315807317495300,5.189495361328125,0.006917560938745737,-0.00908350944519043,0.0017843178939074278
1761315807327543600,5.19954345703125,0.007433947641402483,-0.006393184419721365,0.0013638047967106104
1761315807337590500,5.209590576171875,0.007919175550341606,-0.005834186915308237,-0.0002311623829882592
1761315807347637500,5.219637451171875,0.009170329198241234,-0.006954578682780266,0.0020034960471093655
1761315807357684500,5.2296845703125,0.007930360734462738,-0.00911520142108202,-0.001374457380734384
1761315807367732500,5.239732421875,0.00652714166790247,-0.006808104924857616,-0.00037230990710668266
1761315807377779500,5.249779541015625,0.007200388703495264,-0.009633985348045826,0.0017145430902019143
1761315807387826400,5.259826416015625,0.006199839059263468,-0.00851332675665617,0.0016080166678875685
1761315807397873400,5.269873291015625,0.007284810766577721,-0.007980428636074066,0.0002609897928778082
1761315807407920400,5.27992041015625,0.008072307333350182,-0.007404919248074293,0.002222141483798623
1761315807417968400,5.289968505859375,0.009997772984206676,-0.0070464578457176685,0.0035169704351574183
1761315807428015400,5.300015380859375,0.006718090269714594,-0.0060022324323654175,0.0015089471125975251
1761315807438062300,5.310062255859375,0.005678924731910229,-0.00697828084230423,0.0013054815353825688
1761315807448109300,5.320109375,0.006618221756070852,-0.007114368490874767,-0.0012122709304094315
1761315807458157600,5.330157470703125,0.007948203943669796,-0.006976683158427477,0.002207494108006358
1761315807468204500,5.34020458984375,0.007514375261962414,-0.007720503956079483,-0.0009358347742818296
1761315807478251500,5.35025146484375,0.006305832881480455,-0.007297594100236893,0.0035369442775845528
1761315807488298500,5.360298583984375,0.004458131734281778,-0.00749227125197649,0.0013936321483924985
1761315807498346200,5.37034619140625,0.007878429256379604,-0.010076869279146194,-0.00028868665685877204
1761315807508393500,5.3803935546875,0.007653126027435064,-0.009861685335636139,0.0036392095498740673
1761315807518440400,5.3904404296875,0.00640889722853899,-0.004953479394316673,0.0007643272401764989
1761315807528487400,5.4004873046875,0.007151652593165636,-0.00751970149576664,0.0014780544443055987
1761315807538535400,5.410535400390625,0.00686110183596611,-0.0076035913079977036,0.000016777914424892515
1761315807548582400,5.42058251953125,0.0068054418079555035,-0.01110564824193716,0.0033803503029048443
1761315807558629600,5.430629638671875,0.006281065288931131,-0.006386526394635439,0.00008655273268232122
1761315807568676400,5.44067626953125,0.008446748368442059,-0.008048338815569878,-0.0010788465151563287
1761315807578724400,5.450724365234375,0.00567040266469121,-0.008098140358924866,0.0022327941842377186
1761315807588774400,5.4607744140625,0.00714552728459239,-0.004793423693627119,0.001261273049749434
1761315807598821400,5.4708212890625,0.004932973068207502,-0.006755907088518143,0.0019984361715614796
1761315807608868400,5.480868408203125,0.009529856033623219,-0.009705890901386738,0.0013518205378204584
1761315807618915300,5.490915283203125,0.008597216568887234,-0.00797057431191206,0.0037758296821266413
1761315807628962600,5.500962646484375,0.008207595907151699,-0.007237672805786133,0.0009526127250865102
1761315807639010300,5.51101025390625,0.009818010032176971,-0.007892278023064137,-0.0006809702608734369
1761315807649057300,5.521057373046875,0.007131678983569145,-0.006588394287973642,0.0012152004055678844
1761315807659104300,5.531104248046875,0.0065252771601080894,-0.007750065065920353,0.0016881778137758374
1761315807669151500,5.5411513671875,0.00734260119497776,-0.008753810077905655,0.0025984463281929493
1761315807679199500,5.551199462890625,0.009489375166594982,-0.009784453548491001,0.0022533005103468895
1761315807689246500,5.56124658203125,0.007860586047172546,-0.009577792137861252,0.000782436749432236
1761315807699293400,5.57129345703125,0.0067686899565160275,-0.008665126748383045,0.0006562029011547565
1761315807709340400,5.58134033203125,0.005278385244309902,-0.005847768858075142,0.000969656917732209
1761315807719388400,5.591388427734375,0.008012918755412102,-0.007757788058370352,0.004245611373335123
1761315807729435400,5.601435302734375,0.007999869994819164,-0.005897836294025183,0.0010133327450603247
1761315807739482400,5.611482421875,0.003933488857001066,-0.00740145705640316,0.0013784521725028753
1761315807749529300,5.621529296875,0.006679474376142025,-0.007983357645571232,0.00202240445651114
1761315807759577600,5.63157763671875,0.006111422087997198,-0.007759386207908392,-0.0001174454009742476
1761315807769624600,5.64162451171875,0.005739644635468721,-0.007162571884691715,0.002627474721521139
1761315807779671600,5.651671630859375,0.008205997757613659,-0.007632886059582233,-0.00020426444825716317
1761315807789718300,5.66171826171875,0.00424401368945837,-0.006317284423857927,0.0006679208017885685
1761315807799766500,5.6717666015625,0.007083741948008537,-0.007364705670624971,0.0006418218254111707
1761315807809813500,5.6818134765625,0.007910653948783875,-0.006118346471339464,0.0008410262526012957
1761315807819860500,5.691860595703125,0.006680273450911045,-0.00866379588842392,0.0007624630234204233
1761315807829907500,5.701907470703125,0.005041896365582943,-0.00797377061098814,0.0017869811272248626
1761315807839954400,5.711954345703125,0.006895456463098526,-0.008188420906662941,0.0035832831636071205
1761315807850002400,5.72200244140625,0.007595069240778685,-0.007605188991874456,0.003465571440756321
1761315807860049400,5.73204931640625,0.008558601140975952,-0.006954578682780266,0.004804076161235571
1761315807870092300,5.74209228515625,0.00887711439281702,-0.0065567027777433395,0.0018330537714064121
1761315807880139300,5.75213916015625,0.010247577913105488,-0.00737402681261301,0.0015760586829856038
1761315807890187500,5.7621875,0.007346063386648893,-0.006855242885649204,-0.0009036105475388467
1761315807900234500,5.772234375,0.009500294923782349,-0.00860121101140976,0.0025446503423154354
1761315807910281500,5.782281494140625,0.005313538946211338,-0.007119428366422653,0.000743554555810988
1761315807920328400,5.792328369140625,0.009168198332190514,-0.008466721512377262,0.0017041567480191588
1761315807930376400,5.80237646484375,0.007585748098790646,-0.006179332733154297,0.0004596615908667445
1761315807940423400,5.81242333984375,0.006070143077522516,-0.007376689929515123,0.0020722055342048407
1761315807950470400,5.822470458984375,0.006078132428228855,-0.005853894166648388,-0.0010154632618650794
1761315807960517400,5.832517333984375,0.006718090269714594,-0.008408931083977222,0.0020636834669858217
1761315807970565400,5.8425654296875,0.006880542729049921,-0.0075913406908512115,0.0016647420125082135
1761315807980612600,5.852612548828125,0.006476807873696089,-0.008524245582520962,-0.0002777676854748279
1761315807990659600,5.86265966796875,0.008658203296363354,-0.01037594210356474,-0.0003539340978022665
1761315808000706600,5.87270654296875,0.00694818701595068,-0.008176703006029129,0.0005962817813269794
1761315808010754300,5.88275439453125,0.005914348177611828,-0.006652310024946928,0.0008024104172363877
1761315808020801500,5.892801513671875,0.006076268386095762,-0.008169513195753098,0.0005954828229732811
1761315808030848500,5.9028486328125,0.007423827890306711,-0.008392419666051865,0.001440237509086728
1761315808040895500,5.9128955078125,0.004107926040887833,-0.006506368983536959,0.003492735791951418
1761315808050942500,5.9229423828125,0.0073532541282474995,-0.008224906399846077,0.0007076018955558538
1761315808060990200,5.932990234375,0.006051234435290098,-0.007637413218617439,0.002442385070025921
1761315808071037400,5.943037353515625,0.008523979224264622,-0.007909854874014854,0.001377386855892837
1761315808081084400,5.95308447265625,0.01011228933930397,-0.008261924609541893,0.0021696772892028093
1761315808091131400,5.96313134765625,0.007003581151366234,-0.008380169048905373,0.001350488979369402
1761315808101179400,5.973179443359375,0.007081078831106424,-0.004972121678292751,0.0022333269007503986
1761315808111226400,5.983226318359375,0.00842411071062088,-0.008527441881597042,0.0007326356135308743
1761315808121273600,5.993273681640625,0.007478688843548298,-0.005997971165925264,0.001612011343240738
1761315808131320600,6.003320556640625,0.007696535438299179,-0.00777563126757741,0.0006554039428010583
1761315808141368300,6.013368408203125,0.00797057431191206,-0.008728244341909885,0.002235191175714135
1761315808151415300,6.023415283203125,0.005257878918200731,-0.006440588738769293,-0.0005158542771823704
1761315808161462500,6.033462646484375,0.00672368286177516,-0.008299209177494049,0.001505484920926392
1761315808171509500,6.043509521484375,0.007113835774362087,-0.007398527581244707,-0.0013097425689920783
1761315808181556500,6.053556396484375,0.0065132929012179375,-0.00609437795355916,0.002174204681068659
1761315808191604500,6.0636044921875,0.004989432170987129,-0.006454703398048878,0.0008591357618570328
1761315808201651500,6.0736513671875,0.007641408126801252,-0.008204400539398193,0.003139334265142679
1761315808211698400,6.083698486328125,0.008468852378427982,-0.00785685796290636,0.003931358456611633
1761315808221745400,6.093745361328125,0.006446714047342539,-0.008123972453176975,0.00210709311068058
1761315808231793400,6.10379345703125,0.007574030198156834,-0.007497331127524376,0.002424541860818863
1761315808241840400,6.11384033203125,0.007507450878620148,-0.007429420482367277,0.0035489285364747047
1761315808251887400,6.123887451171875,0.006352704484015703,-0.008022506721317768,0.0027614317368716
1761315808261934600,6.1339345703125,0.0057529606856405735,-0.00899695698171854,0.002624545246362686
1761315808271982300,6.143982421875,0.005628324579447508,-0.008167382329702377,-0.0002620550512801856
1761315808282029300,6.154029296875,0.005645368713885546,-0.007562045939266682,0.001187237212434411
1761315808292076300,6.164076171875,0.005261341109871864,-0.008800415322184563,0.0024594292044639587
1761315808302123500,6.17412353515625,0.006161489523947239,-0.009357549250125885,0.0012522183824330568
1761315808312170500,6.18417041015625,0.00660650385543704,-0.00743155088275671,0.0018756643403321505
1761315808322218500,6.194218505859375,0.006196643225848675,-0.006894125137478113,0.0027630296535789967
1761315808332265500,6.204265380859375,0.00884915143251419,-0.007241667713969946,0.0021997711155563593
1761315808342312400,6.2143125,0.007207845337688923,-0.007711715530604124,0.0010809770319610834
1761315808352359400,6.224359375,0.007996940053999424,-0.006130596622824669,0.003320695599541068
1761315808362407400,6.234407470703125,0.0060270000249147415,-0.008989766240119934,0.0018042916199192405
1761315808372454400,6.244454345703125,0.007169229444116354,-0.007244064472615719,0.0029025792609900236
1761315808382501400,6.25450146484375,0.00896606408059597,-0.006651244591921568,0.00187992537394166
1761315808392548400,6.26454833984375,0.006323409732431173,-0.005983323790132999,0.0022892532870173454
1761315808402596400,6.274596435546875,0.007481884676963091,-0.00694871973246336,0.0014253237750381231
1761315808412643300,6.284643310546875,0.009221461601555347,-0.009816145524382591,0.0015523566398769617
1761315808422690300,6.294690185546875,0.007755924016237259,-0.00624058535322547,-0.00046072687837295234
1761315808432737300,6.3047373046875,0.007616374175995588,-0.009149822406470776,0.00199364242143929
1761315808442784500,6.314784423828125,0.009411611594259739,-0.007330084685236216,0.003748665563762188
1761315808452832500,6.32483251953125,0.008831574581563473,-0.007506119552999735,-0.00006258428766159341
1761315808462879500,6.33487939453125,0.008238222450017929,-0.006508765742182732,0.001728924224153161
1761315808472926500,6.344926513671875,0.007679224945604801,-0.005835785064846277,0.0021291973534971476
1761315808482973400,6.354973388671875,0.0068176924251019955,-0.005434979218989611,0.002858903491869569
1761315808493021400,6.365021484375,0.006767624989151955,-0.010399111546576023,0.003754524514079094
1761315808503068400,6.375068359375,0.008779376745223999,-0.006067479960620403,0.0030101709999144077
1761315808513115400,6.385115478515625,0.006534065585583448,-0.008391087874770164,0.0002921487612184137
1761315808523162400,6.395162353515625,0.007028614636510611,-0.007385478354990482,0.0030959248542785645
1761315808533210600,6.405210693359375,0.005077849142253399,-0.01085770782083273,0.0001328917423961684
1761315808543257600,6.415257568359375,0.005410744342952967,-0.007213171571493149,-0.00038642468280158937
1761315808553304300,6.42530419921875,0.006820089183747768,-0.009132245555520058,0.0033603766933083534
1761315808563351300,6.435351318359375,0.007394533138722181,-0.007726362906396389,0.0002913498319685459
1761315808573398300,6.445398193359375,0.009068596176803112,-0.0069503178820014,0.003314836649224162
1761315808583446500,6.455446533203125,0.007891478948295116,-0.00808908510953188,0.0020626182667911053
1761315808593493500,6.465493408203125,0.006964166183024645,-0.007951666601002216,0.0009502158500254154
1761315808603540500,6.47554052734375,0.008080297149717808,-0.007224090863019228,0.002603239845484495
1761315808613587500,6.48558740234375,0.007734618615359068,-0.008918659761548042,0.0002966761530842632
1761315808623635500,6.495635498046875,0.00836791843175888,-0.008276039734482765,0.002372077666223049
1761315808633682400,6.505682373046875,0.006417152937501669,-0.006524744443595409,0.002478603972122073
1761315808643729400,6.5157294921875,0.007656321860849857,-0.007876831106841564,-0.000931041082367301
1761315808653776400,6.5257763671875,0.009210809133946896,-0.008557535707950592,0.0035752938129007816
1761315808663824400,6.535824462890625,0.008760734461247921,-0.007220095954835415,0.003754258155822754
1761315808673871600,6.54587158203125,0.007185208611190319,-0.007499994244426489,-0.00061279337387532
1761315808683918600,6.555918701171875,0.009736782871186733,-0.006462692748755217,0.003239469137042761
1761315808693965300,6.56596533203125,0.00526746641844511,-0.007934888824820518,-0.00036378781078383327
1761315808704012300,6.57601220703125,0.009339439682662487,-0.007502923719584942,-0.0012034825049340725
1761315808714060500,6.586060546875,0.008082959800958633,-0.007172425277531147,-0.00039414784987457097
1761315808724107500,6.596107421875,0.006947654765099287,-0.008841960690915585,0.0026754115242511034
1761315808734154500,6.606154541015625,0.005624596029520035,-0.007075219880789518,0.0005667206714861095
1761315808744201500,6.616201416015625,0.0034288198221474886,-0.00987313687801361,0.0021941782906651497
1761315808754249200,6.626249267578125,0.005360144190490246,-0.0071098413318395615,-0.00038775624125264585
1761315808764296400,6.63629638671875,0.0065497783944010735,-0.006091182120144367,0.0006865629111416638
1761315808774343400,6.646343505859375,0.00632074661552906,-0.0038309572264552116,0.002160090021789074
1761315808784390400,6.656390380859375,0.007122890558093786,-0.009574863128364086,0.002781671704724431
1761315808794437400,6.666437255859375,0.006872287020087242,-0.00660517206415534,0.0011771172285079956
1761315808804485400,6.6764853515625,0.005363872740417719,-0.008715993724763393,0.0032554480712860823
1761315808814532600,6.68653271484375,0.006173473782837391,-0.008978314697742462,0.0028996497858315706
1761315808824579600,6.69657958984375,0.008578307926654816,-0.005286108236759901,0.00285011506639421
1761315808834626600,6.70662646484375,0.008748483844101429,-0.008671252056956291,0.003622964257374406
1761315808844674300,6.71667431640625,0.00771890627220273,-0.006238188594579697,-0.00020879182557109743
1761315808854721500,6.726721435546875,0.008614527061581612,-0.00891013815999031,0.0007121292874217033
1761315808864768500,6.7367685546875,0.004779575392603874,-0.008320780470967293,0.003997404593974352
1761315808874816000,6.74681591796875,0.00857191625982523,-0.008651811629533768,0.0015704660909250379
1761315808884864000,6.756864013671875,0.008372978307306767,-0.007787881884723902,-0.000015978966985130683
1761315808894911000,6.766910888671875,0.008331699296832085,-0.0065074339509010315,0.002246110001578927
1761315808904958000,6.7769580078125,0.007426757365465164,-0.006326871924102306,0.004612861201167107
1761315808915005000,6.7870048828125,0.008820123039186,-0.009799367748200893,0.0013432984706014395
1761315808925052200,6.79705224609375,0.005476790945976973,-0.008608135394752026,0.0032948628067970276
1761315808935100200,6.80710009765625,0.00615136930719018,-0.00878150761127472,0.003403519745916128
1761315808945147100,6.817147216796875,0.005311142187565565,-0.007793740835040808,0.002496447181329131
1761315808955194000,6.827194091796875,0.008618787862360477,-0.00771757448092103,0.0008633967954665422
1761315808965240800,6.83724072265625,0.00894103106111288,-0.007479487918317318,0.0029116340447217226
1761315808975289000,6.8472890625,0.008872054517269135,-0.00826938170939684,0.0033712955191731453
1761315808985336000,6.857336181640625,0.005151352379471064,-0.008192149922251701,0.0021427792962640524
1761315808995383000,6.867383056640625,0.006551642436534166,-0.0065132929012179375,0.0016101471846923232
1761315809005430000,6.877429931640625,0.007186007685959339,-0.008299475535750389,-0.00008894957863958552
1761315809015477000,6.88747705078125,0.007159109693020582,-0.0046211169101297855,0.0032415995374321938
1761315809025525000,6.89752490234375,0.005251220893114805,-0.006903446279466152,0.001193362521007657
1761315809035572000,6.907572021484375,0.005723399575799704,-0.0065164887346327305,0.0012697952333837748
1761315809045619000,6.917618896484375,0.00860387459397316,-0.006302903406322002,0.00023196132679004222
1761315809055666000,6.927666015625,0.007749798707664013,-0.007642739452421665,-0.001531850197352469
1761315809065714200,6.937714111328125,0.008039817214012146,-0.008994294330477715,0.003054911969229579
1761315809075761200,6.94776123046875,0.00911546777933836,-0.008629174903035164,0.0012548814993351698
1761315809085808000,6.95780810546875,0.00777669670060277,-0.007873103022575378,0.00005699164830730297
1761315809095855000,6.967855224609375,0.007738879881799221,-0.00785659160465002,0.0010586065473034978
1761315809105902000,6.977902099609375,0.006682670209556818,-0.008627310395240784,0.002502306131646037
1761315809115950000,6.9879501953125,0.006912234704941511,-0.006838198751211166,0.0011677960865199566
1761315809125997000,6.9979970703125,0.009165534749627113,-0.006596649996936321,-0.0008892294717952609
1761315809136044000,7.0080439453125,0.008637163788080215,-0.006076268386095762,0.0008372978190891445
1761315809146091000,7.018091064453125,0.009784719906747341,-0.008764995262026787,0.00001757686368364375
1761315809156139000,7.028138916015625,0.009582852013409138,-0.006638994440436363,0.0015997608425095677
1761315809166186000,7.03818603515625,0.007535414304584265,-0.0075548551976680756,0.001324123702943325
1761315809176233000,7.04823291015625,0.008411594666540623,-0.00814900640398264,0.0018586200894787908
1761315809186280000,7.058280029296875,0.008479238487780094,-0.007546865846961737,0.003716174978762865
1761315809196327000,7.068326904296875,0.009918144904077053,-0.007503722794353962,-0.0009592706337571144
1761315809206375200,7.078375244140625,0.00806378573179245,-0.005103948060423136,-0.0008692557457834482
1761315809216422100,7.088422119140625,0.0062829297967255116,-0.008037686347961426,0.0005805690889246762
1761315809226469000,7.09846923828125,0.006912766955792904,-0.007223025429993868,0.0009544769418425858
1761315809236516000,7.10851611328125,0.006856841035187244,-0.005856025032699108,0.002560629276558757
1761315809246564000,7.118564208984375,0.007921040058135986,-0.005394499283283949,0.0037582528311759233
1761315809256611000,7.128611083984375,0.006481068674474955,-0.005388906225562096,-0.00022077605535741895
1761315809266658000,7.138657958984375,0.004563592839986086,-0.009843842126429081,0.002034921431913972
1761315809276705000,7.148705078125,0.009639577940106392,-0.0070078419521451,0.0015534218400716782
1761315809286752000,7.158751953125,0.006895722821354866,-0.008894159458577633,0.0008319715270772576
1761315809296800300,7.16880029296875,0.007993478327989578,-0.008480303920805454,0.0022034994326531887
1761315809306847000,7.178846923828125,0.00797377061098814,-0.006539658177644014,0.001279116258956492
1761315809316894000,7.18889404296875,0.007795338984578848,-0.00737296137958765,0.0029198897536844015
1761315809326941000,7.19894091796875,0.007702128030359745,-0.0073348782025277615,0.00061279337387532
1761315809336989200,7.2089892578125,0.006742857396602631,-0.008809736929833889,-0.00017443705291952938
1761315809347036200,7.2190361328125,0.0089980224147439,-0.007524229120463133,0.0017654094845056534
1761315809357083100,7.229083251953125,0.008038751780986786,-0.008901082910597324,0.002659432590007782
1761315809367130000,7.239130126953125,0.007093063089996576,-0.006382265593856573,0.0032722260802984238
1761315809377177000,7.249177001953125,0.008407865650951862,-0.008448079228401184,0.0015267902053892612
1761315809387225000,7.25922509765625,0.010263556614518166,-0.011109642684459686,0.0016735304379835725
1761315809397272000,7.26927197265625,0.007530354429036379,-0.004762530792504549,0.0017470336752012372
1761315809407319000,7.279319091796875,0.005875199567526579,-0.007753793615847826,0.0005826996639370918
1761315809417366000,7.289365966796875,0.0070733558386564255,-0.006277869455516338,0.0011773834703490138
1761315809427413000,7.2994130859375,0.008725048042833805,-0.0072943982668221,0.0014945659786462784
1761315809437461200,7.309461181640625,0.007238205522298813,-0.010035057552158833,0.0016500946367159486
1761315809447508200,7.31950830078125,0.008206796832382679,-0.006911968346685171,0.0010703244479373097
1761315809457555000,7.329554931640625,0.008172442205250263,-0.00703900121152401,0.003915112931281328
1761315809467602000,7.339601806640625,0.003992344718426466,-0.007708519697189331,0.0026991136837750673
1761315809477650200,7.349650146484375,0.007626228034496307,-0.007019826211035252,0.002487925114110112
1761315809487697200,7.359697265625,0.00615296745672822,-0.008242483250796795,0.004089816473424435
1761315809497744100,7.369744140625,0.006894125137478113,-0.00851359311491251,0.002895655110478401
1761315809507791000,7.379791015625,0.007590008899569511,-0.00869042705744505,0.0030897995457053185
1761315809517838000,7.389838134765625,0.0051659997552633286,-0.007583883590996265,-0.000010386328540334944
1761315809527886000,7.399885986328125,0.00723394425585866,-0.0068214209750294685,0.0024626250378787518
1761315809537933000,7.40993310546875,0.006529804784804583,-0.0099596893414855,0.004108458757400513
1761315809547980000,7.41997998046875,0.0046666571870446205,-0.008299209177494049,0.003436809405684471
1761315809558027000,7.430027099609375,0.010519752278923988,-0.00881852488964796,0.0018471685471013188
1761315809568075000,7.440074951171875,0.0091719264164567,-0.006840861868113279,-0.0003680488734971732
1761315809578122200,7.450122314453125,0.009378055110573769,-0.00720598129555583,0.004388889297842979
1761315809588169200,7.460169189453125,0.008115983568131924,-0.00628905463963747,0.0006093312404118478
1761315809598216000,7.4702158203125,0.009122392162680626,-0.008024370297789574,0.0025771409273147583
1761315809608263000,7.480262939453125,0.009248625487089157,-0.006985737942159176,0.002225070958957076
1761315809618311200,7.490311279296875,0.008524245582520962,-0.0067569720558822155,0.0007134608458727598
1761315809628358100,7.500358154296875,0.008449677377939224,-0.007495200727134943,0.0020013656467199326
1761315809638405000,7.510405029296875,0.008428905159235,-0.006402239203453064,0.001014398061670363
1761315809648452000,7.5204521484375,0.00631994754076004,-0.00686030276119709,0.0015270565636456013
1761315809658499000,7.5304990234375,0.007865113206207752,-0.006928213406354189,0.0008189220097847283
1761315809668547000,7.540547119140625,0.008735966868698597,-0.007297860458493233,-0.001449292292818427
1761315809678594000,7.550593994140625,0.007442736066877842,-0.0068312743678689,0.0016871124971657991
1761315809688641000,7.56064111328125,0.006898119580000639,-0.0073199644684791565,0.0018841864075511694
1761315809698688000,7.57068798828125,0.00577852688729763,-0.008168980479240417,0.003293531248345971
1761315809708736000,7.580736083984375,0.006107160821557045,-0.007171093951910734,0.004692756105214357
1761315809718783200,7.590783203125,0.006887200754135847,-0.008667790330946445,0.0014002900570631027
1761315809728830200,7.600830322265625,0.006905043963342905,-0.0065226140432059765,0.0014644722687080503
1761315809738877200,7.610877197265625,0.005879993550479412,-0.007752728182822466,0.001157143502496183
1761315809748924000,7.620923828125,0.0063798688352108,-0.007675496395677328,0.0015965650090947747
1761315809758972200,7.63097216796875,0.0065045044757425785,-0.006846454460173845,-0.0002764361270237714
1761315809769019100,7.64101904296875,0.0073082465678453445,-0.0059244679287076,0.0019944412633776665
1761315809779066000,7.651066162109375,0.006213154643774033,-0.00866326317191124,0.0016841830220073462
1761315809789113000,7.661113037109375,0.007798268459737301,-0.007497064769268036,0.0014775217277929187
1761315809799160000,7.67116015625,0.007939682342112064,-0.005940180737525225,0.0006165218073874712
1761315809809208000,7.6812080078125,0.005351089406758547,-0.00743155088275671,-0.00004340952364145778
1761315809819255000,7.691255126953125,0.00791171845048666,-0.007138070650398731,0.0020061591640114784
1761315809829302000,7.701302001953125,0.009207879193127155,-0.008479238487780094,0.0006548712844960392
1761315809839349000,7.711348876953125,0.007092530373483896,-0.0065199509263038635,-0.0007068029372021556
1761315809849396000,7.72139599609375,0.009209210984408855,-0.00951014831662178,0.000015978966985130683
1761315809859444200,7.7314443359375,0.009076053276658058,-0.006736998446285725,0.003608316881582141
1761315809869491200,7.7414912109375,0.007454720325767994,-0.006813164800405502,-0.00046685212873853743
1761315809879537200,7.751537109375,0.009216401726007462,-0.005843774415552616,-0.0008490157779306173
1761315809889584000,7.761584228515625,0.00774793466553092,-0.007148456759750843,0.0006378270918503404
1761315809899631900,7.7716318359375,0.009131979197263718,-0.008591357618570328,0.0004487426485866308
1761315809909678800,7.781678955078125,0.007949269376695156,-0.0059692091308534145,0.0010346380295231938
1761315809919726000,7.79172607421875,0.0073292856104671955,-0.007556453347206116,0.001907089608721435
1761315809929773000,7.80177294921875,0.007772169075906277,-0.00708800321444869,-0.000467118457891047
1761315809939820000,7.811820068359375,0.008626777678728104,-0.005271460860967636,0.003323092358186841
1761315809949868000,7.821867919921875,0.005997705273330212,-0.005269064102321863,0.002389654517173767
1761315809959915300,7.831915283203125,0.004094077739864588,-0.0062523032538592815,0.004574778024107218
1761315809969962200,7.841962158203125,0.00538491178303957,-0.006856041960418224,0.0021398498211055994
1761315809980009000,7.852009033203125,0.006686664652079344,-0.007926366291940212,0.0006905576447024941
1761315809990056000,7.862055908203125,0.007470166776329279,-0.008445416577160358,0.0016871124971657991
1761315810000104000,7.87210400390625,0.006887467112392187,-0.007696535438299179,0.0005643238546326756
1761315810010151200,7.882151123046875,0.006246977020055056,-0.006384395994246006,0.00036245622322894633
1761315810020198100,7.8921982421875,0.004963865969330072,-0.007497331127524376,0.00013076121103949845
