time,seconds_elapsed,z,y,x
1761315847029465000,0.060465087890625,-0.9860992431640625,-0.0025482177734375,-0.0137939453125
1761315847039515100,0.07051513671875,-0.9849395751953125,-0.00238037109375,-0.015045166015625
1761315847049558800,0.080558837890625,-0.98516845703125,-0.0027008056640625,-0.015869140625
1761315847059605800,0.090605712890625,-0.9851226806640625,-0.001495361328125,-0.01690673828125
1761315847069652700,0.10065283203125,-0.9856109619140625,-0.00146484375,-0.01678466796875
1761315847079700000,0.110699951171875,-0.985626220703125,-0.0028533935546875,-0.0154571533203125
1761315847089747000,0.120746826171875,-0.9846343994140625,-0.003021240234375,-0.01593017578125
1761315847099794000,0.1307939453125,-0.985382080078125,-0.0029754638671875,-0.0168914794921875
1761315847109841000,0.1408408203125,-0.9852142333984375,-0.0028839111328125,-0.0168914794921875
1761315847119888000,0.150887939453125,-0.9850006103515625,-0.002166748046875,-0.015289306640625
1761315847129934800,0.160934814453125,-0.9850006103515625,-0.001129150390625,-0.016357421875
1761315847139982000,0.170982177734375,-0.985260009765625,-0.0012664794921875,-0.0159912109375
1761315847150029000,0.181029052734375,-0.9844970703125,-0.00299072265625,-0.015625
1761315847160075800,0.19107568359375,-0.9842529296875,-0.0029296875,-0.016815185546875
1761315847170122800,0.201122802734375,-0.985198974609375,-0.0032196044921875,-0.0164031982421875
1761315847180169700,0.211169677734375,-0.9854888916015625,-0.0025177001953125,-0.0161895751953125
1761315847190217000,0.221217041015625,-0.986083984375,-0.0020294189453125,-0.01568603515625
1761315847200264000,0.231263916015625,-0.98565673828125,-0.001617431640625,-0.015380859375
1761315847210311000,0.241310791015625,-0.9843597412109375,-0.00225830078125,-0.015594482421875
1761315847220358000,0.25135791015625,-0.984649658203125,-0.00225830078125,-0.01617431640625
1761315847230404900,0.26140478515625,-0.9853057861328125,-0.0017547607421875,-0.0149078369140625
1761315847240451800,0.271451904296875,-0.985504150390625,-0.0018768310546875,-0.0162200927734375
1761315847250499000,0.2814990234375,-0.98590087890625,-0.0025787353515625,-0.016815185546875
1761315847260546000,0.291546142578125,-0.98565673828125,-0.002105712890625,-0.016265869140625
1761315847270593000,0.301593017578125,-0.9850616455078125,-0.0013275146484375,-0.0153961181640625
1761315847280640000,0.311639892578125,-0.98583984375,-0.0015411376953125,-0.0160369873046875
1761315847290686700,0.321686767578125,-0.9853057861328125,-0.0018768310546875,-0.0164337158203125
1761315847300733700,0.331733642578125,-0.98577880859375,-0.0016937255859375,-0.017059326171875
1761315847310781000,0.341781005859375,-0.984375,-0.002532958984375,-0.0157623291015625
1761315847320828000,0.351827880859375,-0.9850616455078125,-0.0019989013671875,-0.0155029296875
1761315847330875000,0.361875,-0.9859619140625,-0.0021514892578125,-0.0151824951171875
1761315847340921900,0.371921875,-0.986053466796875,-0.0023193359375,-0.0155792236328125
1761315847350968800,0.38196875,-0.9849395751953125,-0.002044677734375,-0.0159912109375
1761315847361015800,0.392015869140625,-0.9851837158203125,-0.0021820068359375,-0.015869140625
1761315847371063000,0.40206298828125,-0.986053466796875,-0.002532958984375,-0.0152130126953125
1761315847381110000,0.412110107421875,-0.9867095947265625,-0.003082275390625,-0.0160064697265625
1761315847391156000,0.422156005859375,-0.985626220703125,-0.0021514892578125,-0.0167388916015625
1761315847401204000,0.432203857421875,-0.9860076904296875,-0.0017242431640625,-0.01611328125
1761315847411250000,0.44225,-0.9858856201171875,-0.001556396484375,-0.0159454345703125
1761315847421297000,0.452296875,-0.98486328125,-0.0015411376953125,-0.015289306640625
1761315847431343900,0.46234375,-0.9859771728515625,-0.002532958984375,-0.0154571533203125
1761315847441391000,0.47239111328125,-0.9857177734375,-0.0028076171875,-0.0162811279296875
1761315847451437800,0.482437744140625,-0.9853973388671875,-0.0025634765625,-0.016326904296875
1761315847461484800,0.49248486328125,-0.9859619140625,-0.0030670166015625,-0.015106201171875
1761315847471531800,0.50253173828125,-0.98626708984375,-0.0020294189453125,-0.016204833984375
1761315847481578800,0.512578857421875,-0.9859771728515625,-0.001739501953125,-0.0164031982421875
1761315847491625700,0.522625732421875,-0.985931396484375,-0.002410888671875,-0.0161590576171875
1761315847501673000,0.5326728515625,-0.9854278564453125,-0.0028228759765625,-0.015625
1761315847511720000,0.542719970703125,-0.9860382080078125,-0.001678466796875,-0.0154571533203125
1761315847521767000,0.552766845703125,-0.985870361328125,-0.0019989013671875,-0.0157623291015625
1761315847531814000,0.56281396484375,-0.9861907958984375,-0.00213623046875,-0.015411376953125
1761315847541860900,0.57286083984375,-0.9862060546875,-0.0022735595703125,-0.016143798828125
1761315847551908000,0.582908203125,-0.9852447509765625,-0.0025177001953125,-0.0159759521484375
1761315847561955000,0.592955078125,-0.985870361328125,-0.001739501953125,-0.0167083740234375
1761315847572002000,0.603001953125,-0.9849395751953125,-0.0020294189453125,-0.0153656005859375
1761315847582048800,0.613048828125,-0.98431396484375,-0.00213623046875,-0.015411376953125
1761315847592095700,0.623095703125,-0.9844207763671875,-0.002166748046875,-0.016754150390625
1761315847602142700,0.633142822265625,-0.986083984375,-0.002288818359375,-0.0155029296875
1761315847612190000,0.64318994140625,-0.98602294921875,-0.0024871826171875,-0.016143798828125
1761315847622237000,0.65323681640625,-0.9851226806640625,-0.00225830078125,-0.016571044921875
1761315847632284000,0.663283935546875,-0.985687255859375,-0.00274658203125,-0.016815185546875
1761315847642331000,0.673330810546875,-0.9842529296875,-0.0023651123046875,-0.0159759521484375
1761315847652377900,0.6833779296875,-0.98553466796875,-0.001556396484375,-0.016510009765625
1761315847662424800,0.6934248046875,-0.9856414794921875,-0.002227783203125,-0.0153961181640625
1761315847672472000,0.70347216796875,-0.9851226806640625,-0.002197265625,-0.0162811279296875
1761315847682519000,0.71351904296875,-0.9857330322265625,-0.0025787353515625,-0.01519775390625
1761315847692566000,0.72356591796875,-0.985137939453125,-0.0021820068359375,-0.0158538818359375
1761315847702613000,0.733613037109375,-0.9854278564453125,-0.0020294189453125,-0.015899658203125
1761315847712659700,0.74365966796875,-0.985137939453125,-0.002838134765625,-0.01641845703125
1761315847722706700,0.753706787109375,-0.985687255859375,-0.0029754638671875,-0.016265869140625
1761315847732754000,0.76375390625,-0.9854736328125,-0.002960205078125,-0.01611328125
1761315847742801000,0.77380078125,-0.985107421875,-0.0018463134765625,-0.016265869140625
1761315847752848000,0.783847900390625,-0.986480712890625,-0.0031280517578125,-0.01593017578125
1761315847762894800,0.793894775390625,-0.986480712890625,-0.0012664794921875,-0.01617431640625
1761315847772941800,0.80394189453125,-0.9847259521484375,-0.0023040771484375,-0.015838623046875
1761315847782988800,0.81398876953125,-0.9850311279296875,-0.0021209716796875,-0.0155792236328125
1761315847793036000,0.8240361328125,-0.9853668212890625,-0.00189208984375,-0.0160064697265625
1761315847803083000,0.8340830078125,-0.9850616455078125,-0.0025482177734375,-0.015350341796875
1761315847813130000,0.8441298828125,-0.9856109619140625,-0.0023651123046875,-0.0155029296875
1761315847823177000,0.854177001953125,-0.9858856201171875,-0.0021514892578125,-0.016265869140625
1761315847833224000,0.864223876953125,-0.9855499267578125,-0.00213623046875,-0.0157928466796875
1761315847843271000,0.87427099609375,-0.98443603515625,-0.0020751953125,-0.0158233642578125
1761315847853318000,0.88431787109375,-0.98529052734375,-0.0023345947265625,-0.0167694091796875
1761315847863364900,0.89436474609375,-0.985595703125,-0.0026092529296875,-0.0162506103515625
1761315847873411800,0.904411865234375,-0.9859619140625,-0.0023345947265625,-0.016021728515625
1761315847883458800,0.914458740234375,-0.9855499267578125,-0.00274658203125,-0.016357421875
1761315847893505800,0.924505859375,-0.985687255859375,-0.001953125,-0.0161285400390625
1761315847903553000,0.934552978515625,-0.9848785400390625,-0.002410888671875,-0.01629638671875
1761315847913604400,0.944604248046875,-0.984527587890625,-0.003509521484375,-0.0146942138671875
1761315847923651300,0.9546513671875,-0.9877777099609375,-0.0026397705078125,-0.0149078369140625
1761315847933698300,0.9646982421875,-0.98626708984375,-0.001129150390625,-0.017303466796875
1761315847943745300,0.974745361328125,-0.98443603515625,-0.000396728515625,-0.01849365234375
1761315847953792300,0.984792236328125,-0.9845733642578125,-0.00140380859375,-0.018402099609375
1761315847963839200,0.994839111328125,-0.9857177734375,-0.00408935546875,-0.015869140625
1761315847973886200,1.00488623046875,-0.985626220703125,-0.004913330078125,-0.013702392578125
1761315847983933200,1.01493310546875,-0.9855804443359375,-0.003875732421875,-0.01361083984375
1761315847993980200,1.024980224609375,-0.985076904296875,-0.0023956298828125,-0.0154571533203125
1761315848004027400,1.03502734375,-0.9853973388671875,-0.00067138671875,-0.0174407958984375
1761315848014074400,1.045074462890625,-0.985504150390625,0.0003509521484375,-0.0171051025390625
1761315848024121300,1.055121337890625,-0.9854736328125,-0.0006103515625,-0.015899658203125
1761315848034168300,1.065168212890625,-0.98663330078125,-0.0030670166015625,-0.01513671875
1761315848044215300,1.07521533203125,-0.9856719970703125,-0.0047760009765625,-0.0147857666015625
1761315848054262300,1.08526220703125,-0.986236572265625,-0.0046234130859375,-0.015777587890625
1761315848064309200,1.095309326171875,-0.9855499267578125,-0.0021209716796875,-0.016693115234375
1761315848074356200,1.105356201171875,-0.9862823486328125,-0.0005645751953125,-0.01556396484375
1761315848084403200,1.1154033203125,-0.9849700927734375,-0.0001373291015625,-0.0162811279296875
1761315848094450200,1.1254501953125,-0.9852752685546875,-0.00299072265625,-0.016204833984375
1761315848104497200,1.1354970703125,-0.986328125,-0.0035247802734375,-0.0161590576171875
1761315848114544400,1.14554443359375,-0.98480224609375,-0.0035858154296875,-0.0155029296875
1761315848124591400,1.15559130859375,-0.9858245849609375,-0.0024261474609375,-0.015167236328125
1761315848134638300,1.165638427734375,-0.985137939453125,-0.00152587890625,-0.016387939453125
1761315848144685300,1.175685302734375,-0.98553466796875,-0.0019683837890625,-0.0167236328125
1761315848154732300,1.185732177734375,-0.9854736328125,-0.001617431640625,-0.01629638671875
1761315848164779300,1.195779296875,-0.985382080078125,-0.00146484375,-0.0142822265625
1761315848174826500,1.205826416015625,-0.9867095947265625,-0.0022430419921875,-0.014617919921875
1761315848184873200,1.215873291015625,-0.9857635498046875,-0.003387451171875,-0.0163116455078125
1761315848194920200,1.225920166015625,-0.985992431640625,-0.0034942626953125,-0.0166778564453125
1761315848204967200,1.23596728515625,-0.986175537109375,-0.001922607421875,-0.0165557861328125
1761315848215014100,1.24601416015625,-0.9857025146484375,-0.0008544921875,-0.0158538818359375
1761315848225061000,1.25606103515625,-0.9864501953125,-0.0020599365234375,-0.0167694091796875
1761315848235108400,1.2661083984375,-0.985198974609375,-0.002593994140625,-0.016357421875
1761315848245155300,1.2761552734375,-0.985076904296875,-0.002960205078125,-0.0158538818359375
1761315848255202300,1.286202392578125,-0.986358642578125,-0.0027313232421875,-0.015106201171875
1761315848265249300,1.296249267578125,-0.9858856201171875,-0.002960205078125,-0.0161895751953125
1761315848275296300,1.306296142578125,-0.9860687255859375,-0.0017852783203125,-0.0165863037109375
1761315848285343200,1.31634326171875,-0.9854583740234375,-0.00244140625,-0.0167083740234375
1761315848295390500,1.326390380859375,-0.9859771728515625,-0.001617431640625,-0.0151214599609375
1761315848305437400,1.3364375,-0.98602294921875,-0.0013580322265625,-0.0147552490234375
1761315848315484200,1.346484130859375,-0.9847564697265625,-0.001922607421875,-0.0154266357421875
1761315848325531100,1.35653125,-0.9851531982421875,-0.0020751953125,-0.015228271484375
1761315848335578000,1.366578125,-0.9858551025390625,-0.0029296875,-0.0154266357421875
1761315848345625000,1.376625,-0.9853973388671875,-0.001617431640625,-0.016815185546875
1761315848355672300,1.38667236328125,-0.984375,-0.0019378662109375,-0.0168304443359375
1761315848365720300,1.39672021484375,-0.9852294921875,-0.0016021728515625,-0.0157470703125
1761315848375767300,1.406767333984375,-0.9850921630859375,-0.002105712890625,-0.015411376953125
1761315848385814300,1.416814208984375,-0.98626708984375,-0.00286865234375,-0.015106201171875
1761315848395861500,1.426861572265625,-0.9852142333984375,-0.0023040771484375,-0.0158843994140625
1761315848405908200,1.436908203125,-0.985931396484375,-0.0017242431640625,-0.0167694091796875
1761315848415955200,1.446955078125,-0.9857940673828125,-0.0013885498046875,-0.0163726806640625
1761315848426002200,1.457002197265625,-0.9856719970703125,-0.0024871826171875,-0.0166015625
1761315848436049200,1.467049072265625,-0.9854278564453125,-0.0026397705078125,-0.01666259765625
1761315848446096100,1.47709619140625,-0.9862518310546875,-0.0027313232421875,-0.01495361328125
1761315848456143400,1.487143310546875,-0.9851531982421875,-0.00225830078125,-0.0145263671875
1761315848466190300,1.4971904296875,-0.98614501953125,-0.001312255859375,-0.016326904296875
1761315848476237300,1.5072373046875,-0.98486328125,-0.0015869140625,-0.01568603515625
1761315848486284300,1.5172841796875,-0.9856719970703125,-0.0016021728515625,-0.0166168212890625
1761315848496331300,1.527331298828125,-0.985992431640625,-0.0010223388671875,-0.015350341796875
1761315848506378200,1.537378173828125,-0.98553466796875,-0.0019073486328125,-0.0159149169921875
1761315848516425500,1.547425537109375,-0.9854278564453125,-0.0024871826171875,-0.0162811279296875
1761315848526472400,1.557472412109375,-0.9849395751953125,-0.0027008056640625,-0.0159454345703125
1761315848536519200,1.567519287109375,-0.986968994140625,-0.0023956298828125,-0.015869140625
1761315848546566100,1.577566162109375,-0.98529052734375,-0.0015411376953125,-0.0159759521484375
1761315848556613000,1.587613037109375,-0.9861602783203125,-0.0019683837890625,-0.0157928466796875
1761315848566660000,1.59766015625,-0.9857330322265625,-0.002288818359375,-0.0160064697265625
1761315848576707300,1.607707275390625,-0.985015869140625,-0.0021514892578125,-0.0154266357421875
1761315848586754300,1.61775439453125,-0.9851531982421875,-0.00250244140625,-0.0150299072265625
1761315848596801300,1.62780126953125,-0.985565185546875,-0.002716064453125,-0.0167236328125
1761315848606848300,1.63784814453125,-0.985198974609375,-0.00164794921875,-0.0170440673828125
1761315848616895200,1.647895263671875,-0.9858856201171875,-0.0020294189453125,-0.0158233642578125
1761315848626942500,1.6579423828125,-0.9859771728515625,-0.00128173828125,-0.016326904296875
1761315848636989400,1.667989501953125,-0.9863128662109375,-0.0016632080078125,-0.014892578125
1761315848647036400,1.678036376953125,-0.986358642578125,-0.0028839111328125,-0.0155487060546875
1761315848657083400,1.68808349609375,-0.9853515625,-0.0026702880859375,-0.0160369873046875
1761315848667130000,1.698130126953125,-0.9849700927734375,-0.002593994140625,-0.0164337158203125
1761315848677177000,1.708177001953125,-0.9856719970703125,-0.0023956298828125,-0.0159454345703125
1761315848687224300,1.718224365234375,-0.985565185546875,-0.0009002685546875,-0.015899658203125
1761315848697271300,1.728271240234375,-0.9858245849609375,-0.001434326171875,-0.015350341796875
1761315848707318300,1.738318359375,-0.9852294921875,-0.00238037109375,-0.01483154296875
1761315848717365200,1.748365234375,-0.985687255859375,-0.00238037109375,-0.015899658203125
1761315848727412200,1.758412109375,-0.985626220703125,-0.002960205078125,-0.01605224609375
1761315848737459200,1.768459228515625,-0.98626708984375,-0.0018310546875,-0.0157470703125
1761315848747506400,1.77850634765625,-0.985076904296875,-0.0020294189453125,-0.0154266357421875
1761315848757553400,1.788553466796875,-0.9857635498046875,-0.00201416015625,-0.01593017578125
1761315848767600400,1.798600341796875,-0.9851531982421875,-0.0032196044921875,-0.0159149169921875
1761315848777647400,1.8086474609375,-0.9857330322265625,-0.0026702880859375,-0.016021728515625
1761315848787694300,1.8186943359375,-0.9862060546875,-0.002044677734375,-0.01519775390625
1761315848797741000,1.828740966796875,-0.985107421875,-0.0027313232421875,-0.0159759521484375
1761315848807788300,1.838788330078125,-0.9855194091796875,-0.0031280517578125,-0.016265869140625
1761315848817835300,1.848835205078125,-0.98583984375,-0.0020599365234375,-0.016693115234375
1761315848827882200,1.85888232421875,-0.9850006103515625,-0.0015716552734375,-0.01593017578125
1761315848837929200,1.86892919921875,-0.9846954345703125,-0.0019683837890625,-0.016021728515625
1761315848847976200,1.87897607421875,-0.98504638671875,-0.002838134765625,-0.0165252685546875
1761315848858023200,1.889023193359375,-0.985260009765625,-0.002777099609375,-0.0159454345703125
1761315848868070400,1.8990703125,-0.9850616455078125,-0.0024566650390625,-0.0155792236328125
1761315848878117400,1.909117431640625,-0.9859771728515625,-0.00201416015625,-0.015533447265625
1761315848888164400,1.919164306640625,-0.9867706298828125,-0.0020599365234375,-0.0162811279296875
1761315848898211300,1.92921142578125,-0.9856719970703125,-0.0023040771484375,-0.016082763671875
1761315848908258300,1.93925830078125,-0.985076904296875,-0.0028839111328125,-0.0163726806640625
1761315848918300700,1.94930078125,-0.986053466796875,-0.0019378662109375,-0.01641845703125
1761315848928347600,1.95934765625,-0.9865570068359375,-0.0027313232421875,-0.0157623291015625
1761315848938394600,1.96939453125,-0.9854278564453125,-0.00311279296875,-0.0157470703125
1761315848948441600,1.979441650390625,-0.985321044921875,-0.0027313232421875,-0.0162506103515625
1761315848958488600,1.989488525390625,-0.985198974609375,-0.0021820068359375,-0.0159149169921875
1761315848968535600,1.99953564453125,-0.9863128662109375,-0.002227783203125,-0.0157012939453125
1761315848978582500,2.00958251953125,-0.985992431640625,-0.0019683837890625,-0.0154266357421875
1761315848988630500,2.019630615234375,-0.986541748046875,-0.00299072265625,-0.0164794921875
1761315848998677500,2.029677490234375,-0.9866485595703125,-0.002777099609375,-0.0164794921875
1761315849008724500,2.039724365234375,-0.9860076904296875,-0.0026397705078125,-0.015869140625
1761315849018771700,2.049771728515625,-0.9864044189453125,-0.0023345947265625,-0.0159912109375
1761315849028818700,2.059818603515625,-0.9859771728515625,-0.0026092529296875,-0.0154571533203125
1761315849038865700,2.06986572265625,-0.986175537109375,-0.0019989013671875,-0.0157928466796875
1761315849048912600,2.07991259765625,-0.9864044189453125,-0.0022735595703125,-0.0152587890625
1761315849058959400,2.08995947265625,-0.984405517578125,-0.0029296875,-0.0153961181640625
1761315849069006600,2.100006591796875,-0.985443115234375,-0.0026092529296875,-0.0153045654296875
1761315849079053600,2.110053466796875,-0.986297607421875,-0.0015869140625,-0.0158233642578125
1761315849089100500,2.1201005859375,-0.985748291015625,-0.0013275146484375,-0.015380859375
1761315849099147500,2.1301474609375,-0.985931396484375,-0.0023651123046875,-0.0166778564453125
1761315849109194500,2.140194580078125,-0.9866790771484375,-0.00189208984375,-0.01568603515625
1761315849119241500,2.150241455078125,-0.9862213134765625,-0.0020599365234375,-0.0153656005859375
1761315849129288700,2.160288818359375,-0.986358642578125,-0.002685546875,-0.016571044921875
1761315849139335700,2.170335693359375,-0.9853515625,-0.0025482177734375,-0.0159454345703125
1761315849149382700,2.180382568359375,-0.9862060546875,-0.001861572265625,-0.016143798828125
1761315849159429600,2.1904296875,-0.9860687255859375,-0.0017242431640625,-0.0164031982421875
1761315849169476600,2.2004765625,-0.985870361328125,-0.0023040771484375,-0.01666259765625
1761315849179523600,2.210523681640625,-0.9863128662109375,-0.0024566650390625,-0.015869140625
1761315849189570600,2.220570556640625,-0.9857635498046875,-0.0028228759765625,-0.0158538818359375
1761315849199617500,2.230617431640625,-0.986968994140625,-0.00213623046875,-0.0156707763671875
1761315849209664500,2.24066455078125,-0.9864959716796875,-0.002105712890625,-0.0155792236328125
1761315849219711500,2.25071142578125,-0.985748291015625,-0.0022125244140625,-0.017181396484375
1761315849229758500,2.260758544921875,-0.9852142333984375,-0.0021820068359375,-0.01690673828125
1761315849239805400,2.270805419921875,-0.9854736328125,-0.00244140625,-0.015777587890625
1761315849249852700,2.280852783203125,-0.9858856201171875,-0.0027618408203125,-0.0146331787109375
1761315849259899600,2.290899658203125,-0.98565673828125,-0.003265380859375,-0.0160675048828125
1761315849269946600,2.300946533203125,-0.98541259765625,-0.001983642578125,-0.0161590576171875
1761315849279993600,2.31099365234375,-0.985565185546875,-0.00213623046875,-0.0161895751953125
1761315849290040600,2.32104052734375,-0.9857177734375,-0.001739501953125,-0.0171661376953125
1761315849300087600,2.331087646484375,-0.98626708984375,-0.002105712890625,-0.016082763671875
1761315849310134500,2.341134521484375,-0.986053466796875,-0.0020904541015625,-0.0156402587890625
1761315849320181500,2.351181396484375,-0.9860076904296875,-0.001953125,-0.0162811279296875
1761315849330228500,2.361228515625,-0.9860992431640625,-0.00201416015625,-0.0157928466796875
1761315849340275500,2.371275390625,-0.9853668212890625,-0.0027008056640625,-0.0153350830078125
1761315849350322400,2.381322509765625,-0.9866790771484375,-0.0027008056640625,-0.015869140625
1761315849360369700,2.39136962890625,-0.98614501953125,-0.0016632080078125,-0.015899658203125
1761315849370416600,2.401416748046875,-0.9865264892578125,-0.0023040771484375,-0.016082763671875
1761315849380463600,2.411463623046875,-0.98675537109375,-0.0019073486328125,-0.0158843994140625
1761315849390510600,2.421510498046875,-0.9862518310546875,-0.0018768310546875,-0.01531982421875
1761315849400557600,2.4315576171875,-0.985626220703125,-0.001983642578125,-0.0162506103515625
1761315849410604500,2.4416044921875,-0.9849395751953125,-0.0019989013671875,-0.01611328125
1761315849420651800,2.45165185546875,-0.9857330322265625,-0.0023193359375,-0.0161285400390625
1761315849430698800,2.46169873046875,-0.986541748046875,-0.001800537109375,-0.0153045654296875
1761315849440746500,2.47174658203125,-0.986572265625,-0.00189208984375,-0.0158843994140625
1761315849450793500,2.48179345703125,-0.9847564697265625,-0.0025787353515625,-0.01611328125
1761315849460840400,2.49184033203125,-0.987060546875,-0.00152587890625,-0.0159149169921875
1761315849470887700,2.5018876953125,-0.98541259765625,-0.0027618408203125,-0.0160064697265625
1761315849480934700,2.5119345703125,-0.9864654541015625,-0.0023956298828125,-0.0155181884765625
1761315849490981600,2.521981689453125,-0.9855499267578125,-0.0023345947265625,-0.0162353515625
1761315849501028600,2.532028564453125,-0.9857635498046875,-0.002655029296875,-0.01629638671875
1761315849511075600,2.54207568359375,-0.985382080078125,-0.0020599365234375,-0.01715087890625
1761315849521122600,2.55212255859375,-0.9858245849609375,-0.00262451171875,-0.0153656005859375
1761315849531169500,2.56216943359375,-0.985595703125,-0.0019683837890625,-0.0164947509765625
1761315849541216500,2.572216552734375,-0.9860992431640625,-0.0023345947265625,-0.01611328125
1761315849551263500,2.582263427734375,-0.9862060546875,-0.00225830078125,-0.0159912109375
1761315849561310500,2.592310546875,-0.985321044921875,-0.0020904541015625,-0.0159759521484375
1761315849571357400,2.602357421875,-0.98614501953125,-0.0023956298828125,-0.015655517578125
1761315849581404700,2.61240478515625,-0.98529052734375,-0.0027313232421875,-0.0156097412109375
1761315849591451600,2.62245166015625,-0.9863128662109375,-0.0027313232421875,-0.016021728515625
1761315849601498600,2.63249853515625,-0.98651123046875,-0.0020751953125,-0.0162353515625
1761315849611545600,2.642545654296875,-0.985870361328125,-0.002471923828125,-0.01593017578125
1761315849621592600,2.652592529296875,-0.985748291015625,-0.0023193359375,-0.0160064697265625
1761315849631639600,2.6626396484375,-0.98614501953125,-0.0023040771484375,-0.0158233642578125
1761315849641686800,2.672686767578125,-0.985931396484375,-0.0023651123046875,-0.0162811279296875
1761315849651733800,2.682733642578125,-0.9863128662109375,-0.002410888671875,-0.016357421875
1761315849661780500,2.692780517578125,-0.986053466796875,-0.0017547607421875,-0.0166473388671875
1761315849671827500,2.702827392578125,-0.9854888916015625,-0.0027923583984375,-0.015350341796875
1761315849681874400,2.71287451171875,-0.9859466552734375,-0.00286865234375,-0.015350341796875
1761315849691921400,2.72292138671875,-0.98565673828125,-0.0027618408203125,-0.01641845703125
1761315849701968600,2.73296875,-0.985107421875,-0.00238037109375,-0.01605224609375
1761315849712015600,2.743015625,-0.9860687255859375,-0.0025177001953125,-0.015350341796875
1761315849722062600,2.7530625,-0.98614501953125,-0.0018463134765625,-0.01605224609375
1761315849732109600,2.763109619140625,-0.9864501953125,-0.002227783203125,-0.015777587890625
1761315849742156500,2.773156494140625,-0.98529052734375,-0.0023345947265625,-0.01556396484375
1761315849752203500,2.78320361328125,-0.9860382080078125,-0.002105712890625,-0.01654052734375
1761315849762250800,2.793250732421875,-0.985931396484375,-0.0015411376953125,-0.0159149169921875
1761315849772297700,2.803297607421875,-0.98516845703125,-0.002471923828125,-0.01629638671875
1761315849782344700,2.8133447265625,-0.986541748046875,-0.001983642578125,-0.0165863037109375
1761315849792391400,2.823391357421875,-0.985931396484375,-0.0015869140625,-0.01556396484375
1761315849802438400,2.8334384765625,-0.985687255859375,-0.002044677734375,-0.0155487060546875
1761315849812485400,2.8434853515625,-0.9857025146484375,-0.002410888671875,-0.015655517578125
1761315849822532600,2.85353271484375,-0.986175537109375,-0.0028076171875,-0.016143798828125
1761315849832579600,2.86357958984375,-0.98529052734375,-0.0027313232421875,-0.016357421875
1761315849842626600,2.87362646484375,-0.9852142333984375,-0.0029296875,-0.0158233642578125
1761315849852673500,2.883673583984375,-0.985931396484375,-0.00311279296875,-0.0153656005859375
1761315849862720500,2.893720458984375,-0.985504150390625,-0.0025177001953125,-0.0167083740234375
1761315849872767700,2.903767822265625,-0.985626220703125,-0.00238037109375,-0.0163116455078125
1761315849882815500,2.9138154296875,-0.986297607421875,-0.002960205078125,-0.0162200927734375
1761315849892862500,2.923862548828125,-0.98577880859375,-0.002685546875,-0.016632080078125
1761315849902909400,2.933909423828125,-0.985992431640625,-0.002685546875,-0.0162506103515625
1761315849912956400,2.943956298828125,-0.986053466796875,-0.0025634765625,-0.0149383544921875
1761315849923007500,2.954007568359375,-0.9867095947265625,-0.002349853515625,-0.0160064697265625
1761315849933054500,2.964054443359375,-0.985809326171875,-0.0022735595703125,-0.01544189453125
1761315849943101400,2.974101318359375,-0.9847412109375,-0.002044677734375,-0.0161895751953125
1761315849953148400,2.9841484375,-0.986602783203125,-0.001861572265625,-0.016387939453125
1761315849963195400,2.9941953125,-0.9858551025390625,-0.002777099609375,-0.0158233642578125
1761315849973242600,3.00424267578125,-0.985992431640625,-0.00250244140625,-0.0153350830078125
1761315849983289600,3.01428955078125,-0.9866485595703125,-0.0024261474609375,-0.0167388916015625
1761315849993336300,3.02433642578125,-0.9862213134765625,-0.0021209716796875,-0.016571044921875
1761315850003383300,3.03438330078125,-0.9870758056640625,-0.00262451171875,-0.015411376953125
1761315850013430300,3.04443017578125,-0.9862213134765625,-0.0019683837890625,-0.015472412109375
1761315850023477200,3.054477294921875,-0.9850921630859375,-0.00262451171875,-0.0148468017578125
1761315850033524500,3.0645244140625,-0.985595703125,-0.002105712890625,-0.014984130859375
1761315850043571500,3.074571533203125,-0.985626220703125,-0.002197265625,-0.0154266357421875
1761315850053618400,3.084618408203125,-0.9861907958984375,-0.0024566650390625,-0.015411376953125
1761315850063665400,3.09466552734375,-0.9858551025390625,-0.002960205078125,-0.01617431640625
1761315850073712400,3.10471240234375,-0.985992431640625,-0.0025177001953125,-0.0158538818359375
1761315850083759400,3.11475927734375,-0.9861297607421875,-0.0028228759765625,-0.014862060546875
1761315850093806600,3.124806640625,-0.9854583740234375,-0.00244140625,-0.01495361328125
1761315850103853600,3.134853515625,-0.9857940673828125,-0.002471923828125,-0.0162353515625
1761315850113900500,3.144900634765625,-0.9860076904296875,-0.0020904541015625,-0.015838623046875
1761315850123947300,3.154947265625,-0.985687255859375,-0.002197265625,-0.01531982421875
1761315850133994200,3.164994140625,-0.9869384765625,-0.00201416015625,-0.0152435302734375
1761315850144041200,3.175041259765625,-0.986297607421875,-0.0019683837890625,-0.0154876708984375
1761315850154088400,3.18508837890625,-0.9858551025390625,-0.0019989013671875,-0.0161285400390625
1761315850164135400,3.195135498046875,-0.9857177734375,-0.002471923828125,-0.0163421630859375
1761315850174182400,3.205182373046875,-0.9846649169921875,-0.002532958984375,-0.0156402587890625
1761315850184229400,3.2152294921875,-0.9847412109375,-0.0027923583984375,-0.016632080078125
1761315850194276400,3.2252763671875,-0.98663330078125,-0.002838134765625,-0.0165863037109375
1761315850204323300,3.2353232421875,-0.986328125,-0.0032196044921875,-0.0157928466796875
1761315850214370600,3.24537060546875,-0.9862060546875,-0.0017852783203125,-0.01507568359375
1761315850224417500,3.25541748046875,-0.9857177734375,-0.0017547607421875,-0.016357421875
1761315850234464500,3.265464599609375,-0.986053466796875,-0.0016326904296875,-0.0157318115234375
1761315850244511500,3.275511474609375,-0.986083984375,-0.0020294189453125,-0.0166778564453125
1761315850254558200,3.28555810546875,-0.9857940673828125,-0.0031280517578125,-0.0161285400390625
1761315850264605400,3.29560546875,-0.9854736328125,-0.0026397705078125,-0.0156097412109375
1761315850274652400,3.30565234375,-0.986175537109375,-0.0026092529296875,-0.016082763671875
1761315850284699400,3.315699462890625,-0.986663818359375,-0.0028228759765625,-0.0157928466796875
1761315850294746400,3.325746337890625,-0.98626708984375,-0.001861572265625,-0.015899658203125
1761315850304793300,3.33579345703125,-0.9854583740234375,-0.0013580322265625,-0.0154876708984375
1761315850314840300,3.34584033203125,-0.98614501953125,-0.0015106201171875,-0.0164947509765625
1761315850324888600,3.355888671875,-0.985504150390625,-0.0024261474609375,-0.0165863037109375
1761315850334935600,3.365935546875,-0.9865570068359375,-0.00250244140625,-0.0163421630859375
1761315850344982300,3.375982177734375,-0.9859161376953125,-0.002166748046875,-0.0155487060546875
1761315850355029200,3.386029296875,-0.985687255859375,-0.0023040771484375,-0.0154571533203125
1761315850365076200,3.396076171875,-0.985809326171875,-0.00238037109375,-0.0150299072265625
1761315850375123500,3.40612353515625,-0.985565185546875,-0.0018463134765625,-0.0153350830078125
1761315850385170400,3.41617041015625,-0.98651123046875,-0.00250244140625,-0.015167236328125
1761315850395217400,3.426217529296875,-0.9858245849609375,-0.0021209716796875,-0.0162200927734375
1761315850405264400,3.436264404296875,-0.9862518310546875,-0.00225830078125,-0.0158233642578125
1761315850415311400,3.446311279296875,-0.98565673828125,-0.0018157958984375,-0.0157470703125
1761315850425358300,3.4563583984375,-0.9854888916015625,-0.002471923828125,-0.01495361328125
1761315850435405600,3.466405517578125,-0.98565673828125,-0.002166748046875,-0.0167999267578125
1761315850445452500,3.47645263671875,-0.9852142333984375,-0.001983642578125,-0.0164031982421875
1761315850455499500,3.48649951171875,-0.985687255859375,-0.0024261474609375,-0.0162200927734375
1761315850465546500,3.49654638671875,-0.9868927001953125,-0.001220703125,-0.015289306640625
1761315850475593200,3.50659326171875,-0.986083984375,-0.0023040771484375,-0.015960693359375
1761315850485640200,3.51664013671875,-0.986480712890625,-0.00146484375,-0.015960693359375
1761315850495687400,3.5266875,-0.9866180419921875,-0.002166748046875,-0.0163421630859375
1761315850505734400,3.536734375,-0.9863128662109375,-0.0023345947265625,-0.01641845703125
1761315850515781400,3.546781494140625,-0.9851226806640625,-0.0023956298828125,-0.0152130126953125
1761315850525828400,3.556828369140625,-0.98504638671875,-0.0022430419921875,-0.0155792236328125
1761315850535875300,3.566875244140625,-0.985748291015625,-0.0020294189453125,-0.0163726806640625
1761315850545922600,3.576922607421875,-0.985626220703125,-0.0017242431640625,-0.0166778564453125
1761315850555969500,3.586969482421875,-0.9866790771484375,-0.002288818359375,-0.0172119140625
1761315850566016500,3.5970166015625,-0.9854888916015625,-0.00250244140625,-0.0165252685546875
1761315850576063500,3.6070634765625,-0.9860687255859375,-0.002288818359375,-0.0161285400390625
1761315850586110500,3.6171103515625,-0.9870147705078125,-0.0026092529296875,-0.0157623291015625
1761315850596157400,3.627157470703125,-0.9861297607421875,-0.002349853515625,-0.0156402587890625
1761315850606204400,3.637204345703125,-0.9850921630859375,-0.002685546875,-0.0155487060546875
1761315850616251400,3.64725146484375,-0.985595703125,-0.001983642578125,-0.0156097412109375
1761315850626298400,3.65729833984375,-0.9871368408203125,-0.0028228759765625,-0.0156097412109375
1761315850636345300,3.667345458984375,-0.98583984375,-0.002532958984375,-0.0156097412109375
1761315850646392300,3.677392333984375,-0.985992431640625,-0.002227783203125,-0.0153961181640625
1761315850656439300,3.687439208984375,-0.9864044189453125,-0.001708984375,-0.015380859375
1761315850666486500,3.697486572265625,-0.9866790771484375,-0.0021820068359375,-0.0159149169921875
1761315850676533500,3.707533447265625,-0.98577880859375,-0.00238037109375,-0.0150604248046875
1761315850686580500,3.71758056640625,-0.9859619140625,-0.0022125244140625,-0.01568603515625
1761315850696627500,3.72762744140625,-0.9857330322265625,-0.003082275390625,-0.016204833984375
1761315850706674400,3.73767431640625,-0.985015869140625,-0.0026092529296875,-0.01507568359375
1761315850716721400,3.747721435546875,-0.985595703125,-0.0022125244140625,-0.0156097412109375
1761315850726768400,3.757768310546875,-0.9859466552734375,-0.002288818359375,-0.0163726806640625
1761315850736815400,3.7678154296875,-0.9862060546875,-0.00250244140625,-0.015716552734375
1761315850746862300,3.7778623046875,-0.986236572265625,-0.0017852783203125,-0.015716552734375
1761315850756910300,3.787910400390625,-0.986175537109375,-0.00201416015625,-0.0161895751953125
1761315850766957600,3.79795751953125,-0.9867095947265625,-0.0023040771484375,-0.0157012939453125
1761315850777004500,3.808004638671875,-0.987060546875,-0.0025634765625,-0.0149993896484375
1761315850787051500,3.818051513671875,-0.9862213134765625,-0.0017547607421875,-0.015350341796875
1761315850797098500,3.828098388671875,-0.985443115234375,-0.00274658203125,-0.0152740478515625
1761315850807145500,3.8381455078125,-0.985870361328125,-0.00250244140625,-0.0157012939453125
1761315850817192200,3.848192138671875,-0.9854888916015625,-0.002716064453125,-0.016754150390625
1761315850827239400,3.858239501953125,-0.9846954345703125,-0.0025482177734375,-0.016082763671875
1761315850837286400,3.868286376953125,-0.9856719970703125,-0.0022430419921875,-0.0155792236328125
1761315850847333400,3.87833349609375,-0.98614501953125,-0.0028533935546875,-0.0162811279296875
1761315850857380400,3.88838037109375,-0.9857330322265625,-0.0022735595703125,-0.014984130859375
1761315850867427300,3.89842724609375,-0.985992431640625,-0.0021209716796875,-0.0158843994140625
1761315850877474300,3.908474365234375,-0.9855804443359375,-0.0026397705078125,-0.015777587890625
1761315850887521500,3.918521484375,-0.9864501953125,-0.0023345947265625,-0.01593017578125
1761315850897568500,3.928568603515625,-0.9860992431640625,-0.0024871826171875,-0.01568603515625
1761315850907615500,3.938615478515625,-0.9855194091796875,-0.0023651123046875,-0.015533447265625
1761315850917658600,3.94865869140625,-0.9857025146484375,-0.0020904541015625,-0.0164947509765625
1761315850927705600,3.95870556640625,-0.9857635498046875,-0.002838134765625,-0.0160675048828125
1761315850937752600,3.968752685546875,-0.9862518310546875,-0.00286865234375,-0.0157623291015625
1761315850947799600,3.978799560546875,-0.9868011474609375,-0.00274658203125,-0.0156097412109375
1761315850957846500,3.988846435546875,-0.985931396484375,-0.003021240234375,-0.0166473388671875
1761315850967893500,3.9988935546875,-0.986114501953125,-0.0019989013671875,-0.0158843994140625
1761315850977940500,4.0089404296875,-0.98590087890625,-0.0025634765625,-0.015533447265625
1761315850987987500,4.018987548828125,-0.98529052734375,-0.0023345947265625,-0.0162353515625
1761315850998034400,4.029034423828125,-0.986541748046875,-0.0028839111328125,-0.0155029296875
1761315851008081400,4.039081298828125,-0.98638916015625,-0.00250244140625,-0.016571044921875
1761315851018128600,4.049128662109375,-0.9860687255859375,-0.00225830078125,-0.015960693359375
1761315851028175600,4.059175537109375,-0.9856719970703125,-0.0018768310546875,-0.0164031982421875
1761315851038222600,4.06922265625,-0.9854583740234375,-0.0022125244140625,-0.015655517578125
1761315851048269600,4.07926953125,-0.9873046875,-0.002166748046875,-0.0155792236328125
1761315851058316500,4.089316650390625,-0.9864349365234375,-0.0021209716796875,-0.0149383544921875
1761315851068363500,4.099363525390625,-0.986236572265625,-0.0025787353515625,-0.0158538818359375
1761315851078410800,4.10941064453125,-0.98663330078125,-0.0027008056640625,-0.0159759521484375
1761315851088457500,4.11945751953125,-0.9862213134765625,-0.0023040771484375,-0.01605224609375
1761315851098504400,4.12950439453125,-0.98602294921875,-0.0025177001953125,-0.0163116455078125
1761315851108551400,4.139551513671875,-0.9865570068359375,-0.0018463134765625,-0.0157623291015625
1761315851118598400,4.149598388671875,-0.9852447509765625,-0.0027313232421875,-0.0160675048828125
1761315851128645400,4.159645263671875,-0.9851837158203125,-0.002655029296875,-0.0155029296875
1761315851138692600,4.169692626953125,-0.9856414794921875,-0.0022125244140625,-0.0163726806640625
1761315851148739600,4.179739501953125,-0.9862518310546875,-0.0020751953125,-0.0154571533203125
1761315851158786600,4.18978662109375,-0.9853363037109375,-0.00140380859375,-0.015594482421875
1761315851168833500,4.19983349609375,-0.985076904296875,-0.0019989013671875,-0.0158843994140625
1761315851178880500,4.209880615234375,-0.986602783203125,-0.002349853515625,-0.015594482421875
1761315851188927500,4.219927490234375,-0.985626220703125,-0.0018768310546875,-0.0155029296875
1761315851198974700,4.229974609375,-0.9864654541015625,-0.002288818359375,-0.0164031982421875
1761315851209021700,4.240021728515625,-0.9860992431640625,-0.00286865234375,-0.0164642333984375
1761315851219068400,4.250068359375,-0.98699951171875,-0.002593994140625,-0.0159454345703125
1761315851229116400,4.260116455078125,-0.9862213134765625,-0.002777099609375,-0.0163726806640625
1761315851239162400,4.270162353515625,-0.98626708984375,-0.002471923828125,-0.0156402587890625
1761315851249210600,4.280210693359375,-0.985748291015625,-0.0020599365234375,-0.0156707763671875
1761315851259257600,4.290257568359375,-0.98638916015625,-0.0025634765625,-0.0160064697265625
1761315851269304600,4.3003046875,-0.9869232177734375,-0.002532958984375,-0.01519775390625
1761315851279351600,4.3103515625,-0.9859619140625,-0.0031280517578125,-0.01629638671875
1761315851289398500,4.3203984375,-0.985809326171875,-0.0023651123046875,-0.016204833984375
1761315851299445500,4.330445556640625,-0.986846923828125,-0.002166748046875,-0.01580810546875
1761315851309492500,4.340492431640625,-0.986480712890625,-0.0020599365234375,-0.0157012939453125
1761315851319539500,4.35053955078125,-0.98626708984375,-0.0022430419921875,-0.01629638671875
1761315851329586400,4.36058642578125,-0.985748291015625,-0.00213623046875,-0.0152130126953125
1761315851339633400,4.37063330078125,-0.98565673828125,-0.0025177001953125,-0.015289306640625
1761315851349680400,4.380680419921875,-0.985595703125,-0.0027923583984375,-0.016204833984375
1761315851359727600,4.3907275390625,-0.9861907958984375,-0.00250244140625,-0.016204833984375
1761315851369774600,4.400774658203125,-0.986297607421875,-0.0022125244140625,-0.016021728515625
1761315851379821600,4.410821533203125,-0.98492431640625,-0.0025177001953125,-0.01580810546875
1761315851389868500,4.42086865234375,-0.985595703125,-0.0014801025390625,-0.0154571533203125
1761315851399915500,4.43091552734375,-0.9866943359375,-0.0023345947265625,-0.0163421630859375
1761315851409962500,4.44096240234375,-0.98614501953125,-0.002777099609375,-0.0160369873046875
1761315851420009700,4.451009765625,-0.9868316650390625,-0.002716064453125,-0.015960693359375
1761315851430056400,4.461056396484375,-0.9865264892578125,-0.00274658203125,-0.016021728515625
1761315851440103400,4.471103515625,-0.986572265625,-0.0015869140625,-0.015472412109375
1761315851450150400,4.481150390625,-0.986846923828125,-0.002197265625,-0.0162811279296875
1761315851460197400,4.491197265625,-0.985931396484375,-0.0017242431640625,-0.0154876708984375
1761315851470244600,4.50124462890625,-0.9861907958984375,-0.0017242431640625,-0.0156707763671875
1761315851480291600,4.51129150390625,-0.9871978759765625,-0.00177001953125,-0.0156707763671875
1761315851490338600,4.521338623046875,-0.9869842529296875,-0.0024261474609375,-0.015655517578125
1761315851500385500,4.531385498046875,-0.9867706298828125,-0.0028533935546875,-0.0164337158203125
1761315851510432500,4.5414326171875,-0.9859619140625,-0.00262451171875,-0.0171661376953125
1761315851520479500,4.5514794921875,-0.98492431640625,-0.0023193359375,-0.0160064697265625
1761315851530526700,4.561526611328125,-0.9866790771484375,-0.00262451171875,-0.01531982421875
1761315851540573700,4.57157373046875,-0.985565185546875,-0.001617431640625,-0.015625
1761315851550620700,4.58162060546875,-0.985687255859375,-0.0019683837890625,-0.0157012939453125
1761315851560667400,4.59166748046875,-0.985870361328125,-0.002471923828125,-0.015838623046875
1761315851570714400,4.60171435546875,-0.9861907958984375,-0.001800537109375,-0.0162200927734375
1761315851580761300,4.61176123046875,-0.9853057861328125,-0.0021209716796875,-0.0160675048828125
1761315851590808600,4.62180859375,-0.9859161376953125,-0.0025177001953125,-0.0162200927734375
1761315851600855600,4.63185546875,-0.985565185546875,-0.001861572265625,-0.0161895751953125
1761315851610902500,4.641902587890625,-0.985321044921875,-0.00274658203125,-0.01593017578125
1761315851620949500,4.651949462890625,-0.9856109619140625,-0.0018463134765625,-0.0154876708984375
1761315851630996500,4.66199658203125,-0.9865264892578125,-0.0019378662109375,-0.0160369873046875
1761315851641043500,4.67204345703125,-0.98626708984375,-0.00140380859375,-0.0155029296875
1761315851651090700,4.682090576171875,-0.9864959716796875,-0.00286865234375,-0.0156097412109375
1761315851661137700,4.6921376953125,-0.98663330078125,-0.002288818359375,-0.0161285400390625
1761315851671184600,4.7021845703125,-0.9865875244140625,-0.00250244140625,-0.016082763671875
1761315851681231600,4.712231689453125,-0.9864349365234375,-0.0030517578125,-0.0157470703125
1761315851691278300,4.7222783203125,-0.98638916015625,-0.001983642578125,-0.014312744140625
1761315851701325300,4.7323251953125,-0.9857940673828125,-0.0016326904296875,-0.015716552734375
1761315851711372500,4.74237255859375,-0.9859619140625,-0.0015411376953125,-0.0152435302734375
1761315851721419500,4.75241943359375,-0.985565185546875,-0.0025482177734375,-0.01593017578125
1761315851731466500,4.762466552734375,-0.9866180419921875,-0.002960205078125,-0.0158538818359375
1761315851741513500,4.772513427734375,-0.9870452880859375,-0.00225830078125,-0.015655517578125
1761315851751560400,4.782560546875,-0.9860992431640625,-0.003082275390625,-0.0159912109375
1761315851761607700,4.792607666015625,-0.98577880859375,-0.002655029296875,-0.0153045654296875
1761315851771655700,4.80265576171875,-0.98602294921875,-0.0015869140625,-0.0152740478515625
1761315851781702400,4.812702392578125,-0.986297607421875,-0.003082275390625,-0.016571044921875
1761315851791749400,4.822749267578125,-0.98553466796875,-0.0036468505859375,-0.015869140625
1761315851801796400,4.83279638671875,-0.987152099609375,-0.002288818359375,-0.016082763671875
1761315851811843600,4.842843505859375,-0.9871063232421875,-0.002685546875,-0.0150604248046875
1761315851821890600,4.852890625,-0.985809326171875,-0.002593994140625,-0.0149383544921875
1761315851831937500,4.8629375,-0.9862518310546875,-0.0022735595703125,-0.01611328125
1761315851841984500,4.872984619140625,-0.9862823486328125,-0.0026397705078125,-0.01556396484375
1761315851852031500,4.883031494140625,-0.9857025146484375,-0.0028076171875,-0.0162353515625
1761315851862078500,4.893078369140625,-0.9860076904296875,-0.002960205078125,-0.0164947509765625
1761315851872125700,4.903125732421875,-0.984344482421875,-0.0018157958984375,-0.0159149169921875
1761315851882172700,4.913172607421875,-0.9860687255859375,-0.0018463134765625,-0.0164642333984375
1761315851892219600,4.9232197265625,-0.985931396484375,-0.002288818359375,-0.015777587890625
1761315851902266600,4.9332666015625,-0.9867706298828125,-0.00262451171875,-0.0165252685546875
1761315851912313300,4.943313232421875,-0.986114501953125,-0.0022430419921875,-0.0159454345703125
1761315851922365200,4.953365234375,-0.9862518310546875,-0.0029144287109375,-0.01593017578125
1761315851932412200,4.963412109375,-0.9861297607421875,-0.00274658203125,-0.0162506103515625
1761315851942459100,4.973459228515625,-0.9847412109375,-0.002197265625,-0.01519775390625
1761315851952506000,4.983506103515625,-0.9861907958984375,-0.0019378662109375,-0.016143798828125
1761315851962553000,4.993552978515625,-0.98675537109375,-0.0015716552734375,-0.01605224609375
1761315851972600000,5.00360009765625,-0.9868927001953125,-0.0022735595703125,-0.01611328125
1761315851982644000,5.01364404296875,-0.9862518310546875,-0.00213623046875,-0.0162200927734375
1761315851992691000,5.02369091796875,-0.9858245849609375,-0.0023193359375,-0.014312744140625
1761315852002738000,5.033738037109375,-0.9860992431640625,-0.0018463134765625,-0.0158233642578125
1761315852012785000,5.043784912109375,-0.98651123046875,-0.002166748046875,-0.0159912109375
1761315852022832000,5.05383203125,-0.9857635498046875,-0.001983642578125,-0.0160980224609375
1761315852032879000,5.063879150390625,-0.9864349365234375,-0.0020294189453125,-0.016448974609375
1761315852042926000,5.073926025390625,-0.9863739013671875,-0.0025787353515625,-0.0163116455078125
1761315852052973000,5.08397314453125,-0.9850006103515625,-0.0023651123046875,-0.0154876708984375
1761315852063020000,5.09402001953125,-0.98577880859375,-0.00164794921875,-0.0163421630859375
1761315852073067300,5.1040673828125,-0.986175537109375,-0.002838134765625,-0.0161895751953125
1761315852083114200,5.1141142578125,-0.9857025146484375,-0.00286865234375,-0.016143798828125
1761315852093161200,5.1241611328125,-0.985748291015625,-0.0028533935546875,-0.0153350830078125
1761315852103208200,5.134208251953125,-0.985595703125,-0.001800537109375,-0.0157470703125
1761315852113255000,5.1442548828125,-0.985687255859375,-0.0020751953125,-0.0159912109375
1761315852123302000,5.154302001953125,-0.9859619140625,-0.0020599365234375,-0.0163726806640625
1761315852133349000,5.16434912109375,-0.986541748046875,-0.00213623046875,-0.015716552734375
1761315852143396000,5.17439599609375,-0.986480712890625,-0.002197265625,-0.016204833984375
1761315852153443000,5.184443115234375,-0.9851531982421875,-0.002471923828125,-0.0161590576171875
1761315852163490000,5.194489990234375,-0.9865570068359375,-0.0025787353515625,-0.0161590576171875
1761315852173537000,5.204537109375,-0.9859466552734375,-0.0024261474609375,-0.0161285400390625
1761315852183585300,5.214585205078125,-0.9872894287109375,-0.001708984375,-0.0155029296875
1761315852193632000,5.224632080078125,-0.9861907958984375,-0.001556396484375,-0.0162506103515625
1761315852203679000,5.234678955078125,-0.98602294921875,-0.0024566650390625,-0.016448974609375
1761315852213726000,5.244725830078125,-0.985595703125,-0.0021820068359375,-0.0160675048828125
1761315852223773000,5.25477294921875,-0.98602294921875,-0.0016632080078125,-0.0158843994140625
1761315852233820000,5.26481982421875,-0.9872283935546875,-0.00286865234375,-0.0157012939453125
1761315852243867100,5.2748671875,-0.987213134765625,-0.0020599365234375,-0.014984130859375
1761315852253914000,5.2849140625,-0.986053466796875,-0.0018768310546875,-0.0162506103515625
1761315852263961000,5.294961181640625,-0.9860076904296875,-0.0020904541015625,-0.0166015625
1761315852274008000,5.305008056640625,-0.9862213134765625,-0.0025787353515625,-0.01568603515625
1761315852284055000,5.315054931640625,-0.9861907958984375,-0.0031585693359375,-0.015655517578125
1761315852294102000,5.32510205078125,-0.98590087890625,-0.0023956298828125,-0.0155029296875
1761315852304149200,5.335149169921875,-0.98663330078125,-0.0026092529296875,-0.0165863037109375
1761315852314196200,5.3451962890625,-0.985931396484375,-0.0026092529296875,-0.0162506103515625
1761315852324243000,5.355242919921875,-0.9853363037109375,-0.00274658203125,-0.0156097412109375
1761315852334290000,5.3652900390625,-0.9862060546875,-0.002288818359375,-0.015411376953125
1761315852344337000,5.3753369140625,-0.9864044189453125,-0.0023651123046875,-0.0161285400390625
1761315852354384100,5.385384033203125,-0.9860382080078125,-0.002471923828125,-0.0165252685546875
1761315852364431000,5.39543115234375,-0.98516845703125,-0.0021209716796875,-0.015167236328125
1761315852374478000,5.40547802734375,-0.9865875244140625,-0.0018463134765625,-0.016204833984375
1761315852384525000,5.415525146484375,-0.9872589111328125,-0.002044677734375,-0.016876220703125
1761315852394572000,5.425572021484375,-0.9860687255859375,-0.00274658203125,-0.0160369873046875
1761315852404619000,5.435618896484375,-0.9862213134765625,-0.0016937255859375,-0.0155792236328125
1761315852414666200,5.445666259765625,-0.9868316650390625,-0.002655029296875,-0.0153656005859375
1761315852424713200,5.455713134765625,-0.9860687255859375,-0.0030059814453125,-0.015380859375
1761315852434760200,5.46576025390625,-0.9863433837890625,-0.0017242431640625,-0.0164794921875
1761315852444807200,5.47580712890625,-0.986358642578125,-0.0023193359375,-0.015869140625
1761315852454854000,5.48585400390625,-0.9859466552734375,-0.002471923828125,-0.0147552490234375
1761315852464900900,5.49590087890625,-0.986297607421875,-0.0023345947265625,-0.017181396484375
1761315852474948000,5.505947998046875,-0.9864501953125,-0.0019683837890625,-0.016204833984375
1761315852484995000,5.5159951171875,-0.9853973388671875,-0.002410888671875,-0.0159454345703125
1761315852495042000,5.5260419921875,-0.9858245849609375,-0.002227783203125,-0.016204833984375
1761315852505089000,5.536089111328125,-0.9860992431640625,-0.002838134765625,-0.015869140625
1761315852515136000,5.546135986328125,-0.98577880859375,-0.0026702880859375,-0.015838623046875
1761315852525183000,5.556182861328125,-0.987701416015625,-0.0022735595703125,-0.0161895751953125
1761315852535230200,5.566230224609375,-0.986236572265625,-0.0022430419921875,-0.0159149169921875
1761315852545277200,5.576277099609375,-0.9863433837890625,-0.0026092529296875,-0.016387939453125
1761315852555324200,5.58632421875,-0.98712158203125,-0.002685546875,-0.0167388916015625
1761315852565371100,5.59637109375,-0.9859161376953125,-0.0024261474609375,-0.0153350830078125
1761315852575418000,5.606418212890625,-0.9851837158203125,-0.0021209716796875,-0.0154876708984375
1761315852585467100,5.616467041015625,-0.986572265625,-0.0019378662109375,-0.01556396484375
1761315852595514000,5.62651416015625,-0.9854888916015625,-0.002471923828125,-0.0159759521484375
1761315852605561000,5.63656103515625,-0.9857635498046875,-0.0022735595703125,-0.015869140625
1761315852615608000,5.646608154296875,-0.986480712890625,-0.002044677734375,-0.016815185546875
1761315852625655300,5.6566552734375,-0.9862823486328125,-0.0020904541015625,-0.01605224609375
1761315852635702000,5.666701904296875,-0.9855804443359375,-0.002410888671875,-0.0156707763671875
1761315852645749000,5.6767490234375,-0.9849090576171875,-0.0020751953125,-0.0156402587890625
1761315852655796000,5.6867958984375,-0.986846923828125,-0.0019378662109375,-0.0159912109375
1761315852665843000,5.696843017578125,-0.9860076904296875,-0.002044677734375,-0.015777587890625
1761315852675890000,5.706889892578125,-0.985595703125,-0.002166748046875,-0.0156402587890625
1761315852685937200,5.716937255859375,-0.9857635498046875,-0.0022735595703125,-0.014739990234375
1761315852695984000,5.726984130859375,-0.98626708984375,-0.0024566650390625,-0.015716552734375
1761315852706031000,5.737031005859375,-0.9862823486328125,-0.0018463134765625,-0.0161895751953125
1761315852716078000,5.747078125,-0.9858856201171875,-0.0021209716796875,-0.01605224609375
1761315852726125000,5.757125,-0.9864654541015625,-0.0022125244140625,-0.0152740478515625
1761315852736172000,5.767172119140625,-0.986083984375,-0.0021514892578125,-0.0158843994140625
1761315852746219300,5.77721923828125,-0.9856109619140625,-0.0022125244140625,-0.015472412109375
1761315852756266200,5.787266357421875,-0.9859619140625,-0.002777099609375,-0.0153045654296875
1761315852766313000,5.79731298828125,-0.985931396484375,-0.0016021728515625,-0.0160675048828125
1761315852776360000,5.80735986328125,-0.9860687255859375,-0.0020599365234375,-0.016693115234375
1761315852786407000,5.817406982421875,-0.98590087890625,-0.0025787353515625,-0.0155029296875
1761315852796454000,5.827453857421875,-0.985992431640625,-0.002288818359375,-0.0164337158203125
1761315852806501000,5.837501220703125,-0.9860382080078125,-0.0025482177734375,-0.0163116455078125
1761315852816548000,5.847548095703125,-0.985931396484375,-0.002410888671875,-0.0160675048828125
1761315852826595000,5.857594970703125,-0.9862060546875,-0.002044677734375,-0.015655517578125
1761315852836642000,5.86764208984375,-0.9860382080078125,-0.0014495849609375,-0.0152130126953125
1761315852846689000,5.87768896484375,-0.9872894287109375,-0.0031585693359375,-0.016143798828125
1761315852856736300,5.887736328125,-0.9857330322265625,-0.0027008056640625,-0.0160064697265625
1761315852866783200,5.897783203125,-0.986297607421875,-0.0020904541015625,-0.0153350830078125
1761315852876830200,5.907830322265625,-0.986907958984375,-0.003204345703125,-0.0157928466796875
1761315852886877200,5.917877197265625,-0.9865570068359375,-0.00262451171875,-0.01593017578125
1761315852896924000,5.927923828125,-0.985382080078125,-0.002532958984375,-0.01641845703125
1761315852906971000,5.937970947265625,-0.9862060546875,-0.0084228515625,-0.0139923095703125
1761315852917018000,5.94801806640625,-0.98760986328125,-0.007293701171875,-0.0131072998046875
1761315852927061000,5.95806103515625,-0.9852752685546875,0.0061492919921875,-0.018768310546875
1761315852937108000,5.96810791015625,-0.9862213134765625,0.0099334716796875,-0.0215301513671875
1761315852947155200,5.9781552734375,-0.9863128662109375,0.001678466796875,-0.020599365234375
1761315852957202200,5.9882021484375,-0.9855499267578125,-0.00701904296875,-0.0162506103515625
1761315852967249200,5.998249267578125,-0.9864044189453125,-0.010986328125,-0.0088958740234375
1761315852977296100,6.008296142578125,-0.9864501953125,-0.008544921875,-0.0075225830078125
1761315852987343000,6.018343017578125,-0.9869842529296875,-0.0051727294921875,-0.0151824951171875
1761315852997390300,6.028390380859375,-0.985504150390625,-0.001495361328125,-0.023040771484375
1761315853007437300,6.038437255859375,-0.9871673583984375,0.000640869140625,-0.02349853515625
1761315853017484300,6.048484375,-0.98687744140625,0.0056610107421875,-0.01763916015625
1761315853027531300,6.05853125,-0.9875640869140625,0.004180908203125,-0.01129150390625
1761315853037578000,6.068577880859375,-0.9859619140625,-0.00469970703125,-0.0107269287109375
1761315853047625000,6.078625,-0.986175537109375,-0.0128936767578125,-0.013885498046875
1761315853057672200,6.088672119140625,-0.9860076904296875,-0.00823974609375,-0.0157928466796875
1761315853067719200,6.09871923828125,-0.985565185546875,0.001007080078125,-0.0169219970703125
1761315853077766100,6.10876611328125,-0.9860076904296875,0.0046234130859375,-0.019287109375
1761315853087813000,6.118813232421875,-0.986328125,0.0004730224609375,-0.020416259765625
1761315853097860000,6.128860107421875,-0.9861297607421875,-0.00396728515625,-0.0169219970703125
1761315853107907000,6.138906982421875,-0.98675537109375,-0.005126953125,-0.0123443603515625
1761315853117954300,6.148954345703125,-0.9858551025390625,-0.0029754638671875,-0.0094757080078125
1761315853128001300,6.159001220703125,-0.9856414794921875,-0.0022430419921875,-0.0136871337890625
1761315853138048300,6.16904833984375,-0.9858856201171875,-0.0029144287109375,-0.02001953125
1761315853148095200,6.17909521484375,-0.9859771728515625,-0.0020904541015625,-0.0218963623046875
1761315853158142200,6.18914208984375,-0.9867401123046875,-0.0005950927734375,-0.017669677734375
1761315853168189000,6.19918896484375,-0.9868621826171875,-0.0013427734375,-0.0145416259765625
1761315853178236200,6.209236083984375,-0.985443115234375,-0.0045928955078125,-0.014434814453125
1761315853188283100,6.219283203125,-0.9856414794921875,-0.00543212890625,-0.015106201171875
1761315853198330000,6.229330078125,-0.985931396484375,-0.0021820068359375,-0.01446533203125
1761315853208377000,6.239377197265625,-0.986053466796875,0.001678466796875,-0.0155029296875
1761315853218424000,6.249424072265625,-0.986663818359375,0.0011138916015625,-0.0162506103515625
1761315853228471000,6.259470947265625,-0.9859771728515625,-0.002410888671875,-0.0182647705078125
1761315853238518300,6.269518310546875,-0.9858551025390625,-0.005950927734375,-0.0180511474609375
1761315853248565200,6.279565185546875,-0.9859161376953125,-0.00579833984375,-0.01556396484375
1761315853258612200,6.2896123046875,-0.98590087890625,-0.00225830078125,-0.0125274658203125
1761315853268659200,6.2996591796875,-0.9855194091796875,-0.000091552734375,-0.013702392578125
1761315853278706200,6.3097060546875,-0.9861907958984375,-0.000152587890625,-0.016265869140625
1761315853288753200,6.319753173828125,-0.986328125,-0.000946044921875,-0.0163116455078125
1761315853298800000,6.329800048828125,-0.9863128662109375,-0.0008697509765625,-0.0167694091796875
1761315853308847000,6.33984716796875,-0.9871826171875,-0.00250244140625,-0.0160980224609375
1761315853318894000,6.34989404296875,-0.9859466552734375,-0.0037689208984375,-0.0171051025390625
1761315853328941000,6.359941162109375,-0.9870147705078125,-0.0039520263671875,-0.016845703125
1761315853338988000,6.369988037109375,-0.9861297607421875,-0.003692626953125,-0.015472412109375
1761315853349035300,6.38003515625,-0.9852752685546875,-0.0010223388671875,-0.0136566162109375
1761315853359082200,6.390082275390625,-0.9860076904296875,0.00048828125,-0.014190673828125
1761315853369130200,6.400130126953125,-0.98626708984375,-0.0010528564453125,-0.015594482421875
1761315853379177200,6.41017724609375,-0.9854736328125,-0.0035247802734375,-0.0166168212890625
1761315853389224000,6.420223876953125,-0.9856719970703125,-0.00469970703125,-0.0167236328125
1761315853399270100,6.430270263671875,-0.9854736328125,-0.0033721923828125,-0.01611328125
1761315853409317400,6.4403173828125,-0.9861297607421875,-0.0023040771484375,-0.016265869140625
1761315853419365000,6.450365234375,-0.9856414794921875,-0.001190185546875,-0.015411376953125
1761315853429412000,6.460412109375,-0.9864044189453125,-0.0022125244140625,-0.0157928466796875
1761315853439459000,6.470458984375,-0.985870361328125,-0.0018463134765625,-0.0147552490234375
1761315853449506000,6.480506103515625,-0.9858856201171875,-0.001739501953125,-0.014739990234375
1761315853459553300,6.49055322265625,-0.9861907958984375,-0.0026397705078125,-0.0151214599609375
1761315853469600300,6.500600341796875,-0.9874725341796875,-0.00335693359375,-0.017303466796875
1761315853479647200,6.510647216796875,-0.9854736328125,-0.003509521484375,-0.0178680419921875
1761315853489694200,6.520694091796875,-0.9861297607421875,-0.0024871826171875,-0.016571044921875
1761315853499741200,6.5307412109375,-0.9870452880859375,-0.0011444091796875,-0.0151214599609375
1761315853509788200,6.5407880859375,-0.986297607421875,-0.0013885498046875,-0.0147247314453125
1761315853519835100,6.550835205078125,-0.98590087890625,-0.0025177001953125,-0.0152130126953125
1761315853529882000,6.560882080078125,-0.9861297607421875,-0.0025787353515625,-0.0157928466796875
1761315853539929000,6.57092919921875,-0.986175537109375,-0.00286865234375,-0.0159759521484375
1761315853549976000,6.58097607421875,-0.98541259765625,-0.0026702880859375,-0.015869140625
1761315853560023000,6.59102294921875,-0.9857635498046875,-0.0026702880859375,-0.0167999267578125
1761315853570070300,6.6010703125,-0.986419677734375,-0.0027313232421875,-0.0163421630859375
1761315853580117200,6.6111171875,-0.9863739013671875,-0.00244140625,-0.01580810546875
1761315853590164200,6.621164306640625,-0.9865570068359375,-0.0016632080078125,-0.015380859375
1761315853600211200,6.631211181640625,-0.9864501953125,-0.001861572265625,-0.0146331787109375
1761315853610258200,6.641258056640625,-0.986114501953125,-0.001617431640625,-0.01544189453125
1761315853620305200,6.65130517578125,-0.9853973388671875,-0.0028076171875,-0.016845703125
1761315853630352400,6.661352294921875,-0.9863128662109375,-0.0025482177734375,-0.0169677734375
1761315853640399000,6.671399169921875,-0.9859466552734375,-0.0027313232421875,-0.015899658203125
1761315853650446000,6.681446044921875,-0.9868927001953125,-0.0022735595703125,-0.0157623291015625
1761315853660493000,6.6914931640625,-0.986572265625,-0.00201416015625,-0.015869140625
1761315853670540000,6.7015400390625,-0.9861907958984375,-0.0022735595703125,-0.0156402587890625
1761315853680587000,6.7115869140625,-0.9862060546875,-0.00213623046875,-0.0154571533203125
1761315853690634200,6.72163427734375,-0.9864654541015625,-0.00262451171875,-0.0157318115234375
1761315853700681200,6.73168115234375,-0.986114501953125,-0.0029144287109375,-0.016326904296875
1761315853710728200,6.741728271484375,-0.9864959716796875,-0.0024871826171875,-0.0160064697265625
1761315853720775200,6.751775146484375,-0.98583984375,-0.00244140625,-0.0165252685546875
1761315853730822100,6.761822265625,-0.9867401123046875,-0.001312255859375,-0.0159454345703125
1761315853740869000,6.771869140625,-0.9871673583984375,-0.00177001953125,-0.0147857666015625
1761315853750916400,6.781916259765625,-0.985992431640625,-0.001800537109375,-0.01513671875
1761315853760963300,6.79196337890625,-0.986907958984375,-0.00152587890625,-0.01611328125
1761315853771010000,6.802010009765625,-0.98626708984375,-0.0018768310546875,-0.0161590576171875
1761315853781057000,6.81205712890625,-0.985870361328125,-0.002410888671875,-0.016693115234375
1761315853791104000,6.82210400390625,-0.9857940673828125,-0.0023040771484375,-0.0169525146484375
1761315853801151000,6.83215087890625,-0.9859771728515625,-0.0025177001953125,-0.016265869140625
1761315853811198200,6.8421982421875,-0.986114501953125,-0.003143310546875,-0.015472412109375
1761315853821245200,6.8522451171875,-0.9865264892578125,-0.0024566650390625,-0.0152740478515625
1761315853831292200,6.862292236328125,-0.9854736328125,-0.0017852783203125,-0.0151214599609375
1761315853841339100,6.872339111328125,-0.9852752685546875,-0.0015106201171875,-0.015838623046875
1761315853851386000,6.88238623046875,-0.98602294921875,-0.001678466796875,-0.0165557861328125
1761315853861433300,6.892433349609375,-0.9860382080078125,-0.0018310546875,-0.015838623046875
1761315853871480300,6.902480224609375,-0.98516845703125,-0.002105712890625,-0.0164794921875
1761315853881527300,6.91252734375,-0.9856719970703125,-0.0030670166015625,-0.0162506103515625
1761315853891574300,6.92257421875,-0.9864349365234375,-0.0024871826171875,-0.0154266357421875
1761315853901621000,6.93262109375,-0.9862823486328125,-0.002532958984375,-0.0154266357421875
1761315853911668000,6.94266796875,-0.9850006103515625,-0.001312255859375,-0.016448974609375
1761315853921715500,6.952715576171875,-0.98626708984375,-0.001800537109375,-0.0155029296875
1761315853931762400,6.962762451171875,-0.98675537109375,-0.00225830078125,-0.0157470703125
1761315853941809400,6.972809326171875,-0.986297607421875,-0.002410888671875,-0.015716552734375
1761315853951856400,6.9828564453125,-0.9858245849609375,-0.0023193359375,-0.015838623046875
1761315853961903400,6.9929033203125,-0.9860687255859375,-0.0025177001953125,-0.0164031982421875
1761315853971950600,7.00295068359375,-0.9867095947265625,-0.001983642578125,-0.0156402587890625
1761315853981997600,7.01299755859375,-0.9861907958984375,-0.002288818359375,-0.0151214599609375
1761315853992044500,7.02304443359375,-0.9859771728515625,-0.0019989013671875,-0.0159149169921875
1761315854002091500,7.033091552734375,-0.9860382080078125,-0.0018768310546875,-0.015869140625
1761315854012138200,7.04313818359375,-0.986175537109375,-0.0017852783203125,-0.0156097412109375
1761315854022185500,7.053185546875,-0.9866943359375,-0.0026397705078125,-0.015838623046875
1761315854032232400,7.063232421875,-0.9859466552734375,-0.0027008056640625,-0.017120361328125
1761315854042279400,7.073279541015625,-0.9859466552734375,-0.002471923828125,-0.016204833984375
1761315854052326400,7.083326416015625,-0.986053466796875,-0.0020904541015625,-0.0158538818359375
1761315854062373400,7.093373291015625,-0.985565185546875,-0.0020294189453125,-0.0155792236328125
1761315854072420400,7.10342041015625,-0.9857330322265625,-0.0012969970703125,-0.0162353515625
1761315854082467600,7.113467529296875,-0.9859466552734375,-0.00323486328125,-0.0149383544921875
1761315854092514600,7.1235146484375,-0.985565185546875,-0.002960205078125,-0.0159759521484375
1761315854102561500,7.1335615234375,-0.9855194091796875,-0.001495361328125,-0.0153350830078125
1761315854112608500,7.1436083984375,-0.9864349365234375,-0.002044677734375,-0.0164337158203125
1761315854122655500,7.153655517578125,-0.9858245849609375,-0.0027618408203125,-0.0156097412109375
1761315854132702500,7.163702392578125,-0.986297607421875,-0.0025177001953125,-0.0157012939453125
1761315854142749400,7.17374951171875,-0.986297607421875,-0.002288818359375,-0.015594482421875
1761315854152796400,7.18379638671875,-0.9855499267578125,-0.0020904541015625,-0.0152435302734375
1761315854162843400,7.193843505859375,-0.9856109619140625,-0.001861572265625,-0.0160675048828125
1761315854172890400,7.203890380859375,-0.9865264892578125,-0.0019683837890625,-0.0164337158203125
1761315854182937300,7.213937255859375,-0.98651123046875,-0.00274658203125,-0.0166168212890625
1761315854192984300,7.223984375,-0.985870361328125,-0.0021209716796875,-0.0159912109375
1761315854203031600,7.234031494140625,-0.9858245849609375,-0.00244140625,-0.01605224609375
1761315854213078500,7.24407861328125,-0.9868011474609375,-0.0027313232421875,-0.015472412109375
1761315854223125500,7.25412548828125,-0.98577880859375,-0.0016021728515625,-0.015411376953125
1761315854233172500,7.26417236328125,-0.9858856201171875,-0.0017852783203125,-0.016021728515625
1761315854243219500,7.274219482421875,-0.9852294921875,-0.002777099609375,-0.0166015625
1761315854253266400,7.284266357421875,-0.9864959716796875,-0.002593994140625,-0.016021728515625
1761315854263313400,7.2943134765625,-0.98565673828125,-0.002777099609375,-0.01568603515625
1761315854273360400,7.3043603515625,-0.9855194091796875,-0.001861572265625,-0.01605224609375
1761315854283407400,7.314407470703125,-0.9856414794921875,-0.0026397705078125,-0.0164031982421875
1761315854293454300,7.324454345703125,-0.9860687255859375,-0.0023651123046875,-0.0163421630859375
1761315854303501300,7.334501220703125,-0.9845428466796875,-0.001434326171875,-0.015350341796875
1761315854313548300,7.34454833984375,-0.986358642578125,-0.0030517578125,-0.015869140625
1761315854323595500,7.354595458984375,-0.9862060546875,-0.0024566650390625,-0.01678466796875
1761315854333642500,7.364642578125,-0.986236572265625,-0.0025177001953125,-0.0157928466796875
1761315854343689500,7.374689453125,-0.985626220703125,-0.0027618408203125,-0.016082763671875
1761315854353736400,7.384736328125,-0.9859771728515625,-0.002471923828125,-0.015838623046875
1761315854363783400,7.394783447265625,-0.9864501953125,-0.00213623046875,-0.0165557861328125
1761315854373830700,7.40483056640625,-0.98626708984375,-0.001953125,-0.0156402587890625
1761315854383877600,7.414877685546875,-0.9864044189453125,-0.0028839111328125,-0.015533447265625
1761315854393924400,7.42492431640625,-0.9860687255859375,-0.002044677734375,-0.0151519775390625
1761315854403971300,7.434971435546875,-0.9858245849609375,-0.0022735595703125,-0.0166473388671875
1761315854414018300,7.445018310546875,-0.9858245849609375,-0.0022735595703125,-0.0157623291015625
1761315854424065300,7.455065185546875,-0.9856109619140625,-0.002960205078125,-0.0155029296875
1761315854434112500,7.465112548828125,-0.98577880859375,-0.0030059814453125,-0.0167083740234375
1761315854444159500,7.475159423828125,-0.9870147705078125,-0.0022125244140625,-0.016448974609375
1761315854454206500,7.48520654296875,-0.9860992431640625,-0.002197265625,-0.0154876708984375
1761315854464253400,7.49525341796875,-0.9854278564453125,-0.00225830078125,-0.0164642333984375
1761315854474300400,7.505300537109375,-0.98590087890625,-0.0019378662109375,-0.016326904296875
1761315854484347400,7.515347412109375,-0.985443115234375,-0.0025634765625,-0.0153350830078125
1761315854494394600,7.52539453125,-0.9863739013671875,-0.0029296875,-0.016448974609375
1761315854504441600,7.535441650390625,-0.9861907958984375,-0.0025634765625,-0.0164794921875
1761315854514488600,7.545488525390625,-0.985626220703125,-0.0019073486328125,-0.0164337158203125
1761315854524535300,7.555535400390625,-0.9853057861328125,-0.0016632080078125,-0.0158538818359375
1761315854534582300,7.565582275390625,-0.9852447509765625,-0.00238037109375,-0.015289306640625
1761315854544629200,7.575629150390625,-0.9860382080078125,-0.002288818359375,-0.0147552490234375
1761315854554676500,7.585676513671875,-0.986328125,-0.002197265625,-0.0156402587890625
1761315854564723500,7.595723388671875,-0.985687255859375,-0.0021820068359375,-0.0158538818359375
1761315854574770400,7.6057705078125,-0.9865264892578125,-0.002593994140625,-0.0157623291015625
1761315854584817400,7.6158173828125,-0.986114501953125,-0.0019073486328125,-0.0159759521484375
1761315854594864400,7.625864501953125,-0.9862060546875,-0.0023651123046875,-0.0155792236328125
1761315854604911400,7.635911376953125,-0.985931396484375,-0.0030059814453125,-0.0146484375
1761315854614958600,7.64595849609375,-0.986419677734375,-0.00201416015625,-0.014923095703125
1761315854625005600,7.656005615234375,-0.98565673828125,-0.0017852783203125,-0.0157012939453125
1761315854635052500,7.666052490234375,-0.9865264892578125,-0.002349853515625,-0.0160369873046875
1761315854645099500,7.676099609375,-0.985443115234375,-0.0026702880859375,-0.0159912109375
1761315854655146200,7.686146240234375,-0.9854583740234375,-0.002899169921875,-0.016632080078125
1761315854665193500,7.696193359375,-0.9859161376953125,-0.0022125244140625,-0.016143798828125
1761315854675240400,7.706240478515625,-0.9862213134765625,-0.0023040771484375,-0.0150909423828125
1761315854685287400,7.716287353515625,-0.986297607421875,-0.0018768310546875,-0.01617431640625
1761315854695334400,7.72633447265625,-0.986358642578125,-0.002197265625,-0.016021728515625
1761315854705381400,7.73638134765625,-0.985595703125,-0.00225830078125,-0.01611328125
1761315854715428400,7.746428466796875,-0.9858856201171875,-0.00213623046875,-0.0157470703125
1761315854725475600,7.7564755859375,-0.9856414794921875,-0.00250244140625,-0.01605224609375
1761315854735522600,7.7665224609375,-0.9856414794921875,-0.00286865234375,-0.0156402587890625
1761315854745569500,7.776569580078125,-0.9857330322265625,-0.0026702880859375,-0.0152130126953125
1761315854755616500,7.786616455078125,-0.9861907958984375,-0.002471923828125,-0.0152740478515625
1761315854765663500,7.79666357421875,-0.9864959716796875,-0.0023651123046875,-0.01617431640625
1761315854775710500,7.80671044921875,-0.9860992431640625,-0.0024566650390625,-0.0155792236328125
1761315854785757400,7.81675732421875,-0.9857635498046875,-0.002227783203125,-0.0163421630859375
1761315854795804400,7.826804443359375,-0.985992431640625,-0.0020599365234375,-0.015625
1761315854805851400,7.836851318359375,-0.9865264892578125,-0.0028839111328125,-0.0153656005859375
1761315854815898400,7.8468984375,-0.9857940673828125,-0.0027313232421875,-0.016387939453125
1761315854825945300,7.8569453125,-0.98541259765625,-0.002716064453125,-0.0157012939453125
1761315854835992300,7.866992431640625,-0.9864349365234375,-0.00177001953125,-0.01605224609375
1761315854846039600,7.87703955078125,-0.9857025146484375,-0.0020294189453125,-0.015655517578125
1761315854856086500,7.88708642578125,-0.9860687255859375,-0.0019073486328125,-0.015625
1761315854866133500,7.897133544921875,-0.98577880859375,-0.00274658203125,-0.0164642333984375
1761315854876180500,7.907180419921875,-0.9861907958984375,-0.00250244140625,-0.015838623046875
1761315854886227500,7.9172275390625,-0.9859619140625,-0.0021514892578125,-0.015411376953125
1761315854896274400,7.9272744140625,-0.9862060546875,-0.0027313232421875,-0.0163421630859375
1761315854906321400,7.9373212890625,-0.9858551025390625,-0.0029144287109375,-0.0157470703125
1761315854916368400,7.947368408203125,-0.9864501953125,-0.002532958984375,-0.01531982421875
1761315854926414800,7.957414794921875,-0.985992431640625,-0.0020294189453125,-0.015533447265625
1761315854936461600,7.967461669921875,-0.98681640625,-0.002105712890625,-0.0156097412109375
1761315854946508500,7.977508544921875,-0.987579345703125,-0.0015716552734375,-0.016143798828125
1761315854956555500,7.987555419921875,-0.98583984375,-0.002349853515625,-0.0157928466796875
1761315854966602800,7.997602783203125,-0.985870361328125,-0.0027618408203125,-0.01568603515625
1761315854976649700,8.007649658203125,-0.98602294921875,-0.0019989013671875,-0.0156402587890625
1761315854986696700,8.01769677734375,-0.9862518310546875,-0.002471923828125,-0.0155792236328125
1761315854996743700,8.02774365234375,-0.985443115234375,-0.0024566650390625,-0.015777587890625
1761315855006790700,8.037790771484374,-0.9850311279296875,-0.001922607421875,-0.0155487060546875
1761315855016837600,8.047837646484375,-0.985870361328125,-0.0024261474609375,-0.0161895751953125
1761315855026884900,8.057884765625,-0.98553466796875,-0.00213623046875,-0.01641845703125
1761315855036931800,8.067931884765626,-0.9860382080078125,-0.0023040771484375,-0.0156707763671875
1761315855046978800,8.077978759765625,-0.9853668212890625,-0.0016937255859375,-0.0157318115234375
1761315855057025800,8.08802587890625,-0.9856414794921875,-0.002349853515625,-0.0157012939453125
1761315855067072500,8.098072509765625,-0.9863739013671875,-0.0015106201171875,-0.0152740478515625
1761315855077119500,8.108119384765626,-0.985870361328125,-0.001190185546875,-0.01605224609375
1761315855087166700,8.118166748046875,-0.9860382080078125,-0.0020751953125,-0.01605224609375
1761315855097213700,8.128213623046875,-0.9849395751953125,-0.002410888671875,-0.0158843994140625
1761315855107260700,8.1382607421875,-0.9850616455078125,-0.001373291015625,-0.015960693359375
1761315855117307600,8.1483076171875,-0.98577880859375,-0.002410888671875,-0.015655517578125
1761315855127354600,8.158354736328125,-0.98602294921875,-0.0027313232421875,-0.0156097412109375
1761315855137401600,8.168401611328125,-0.9861297607421875,-0.002410888671875,-0.015655517578125
1761315855147448800,8.17844873046875,-0.9862823486328125,-0.0019378662109375,-0.0162506103515625
1761315855157495800,8.188495849609374,-0.986572265625,-0.0034637451171875,-0.01629638671875
1761315855167542800,8.198542724609375,-0.9855499267578125,-0.0021209716796875,-0.016082763671875
1761315855177589800,8.20858984375,-0.98577880859375,-0.0016632080078125,-0.0152435302734375
1761315855187636700,8.21863671875,-0.9854278564453125,-0.0023193359375,-0.0154266357421875
1761315855197683700,8.22868359375,-0.9858856201171875,-0.0024261474609375,-0.0156707763671875
1761315855207730700,8.238730712890625,-0.985931396484375,-0.002716064453125,-0.0158538818359375
1761315855217777700,8.248777587890626,-0.9853668212890625,-0.002410888671875,-0.0159454345703125
1761315855227824600,8.25882470703125,-0.985748291015625,-0.002716064453125,-0.0163116455078125
1761315855237871600,8.26887158203125,-0.9863433837890625,-0.0026702880859375,-0.0156707763671875
1761315855247918600,8.278918701171875,-0.9862060546875,-0.0026092529296875,-0.0163726806640625
1761315855257965800,8.2889658203125,-0.9848480224609375,-0.0023040771484375,-0.0154266357421875
1761315855268012800,8.2990126953125,-0.9859619140625,-0.0023651123046875,-0.01544189453125
1761315855278059800,8.309059814453125,-0.986572265625,-0.0028533935546875,-0.01531982421875
1761315855288106800,8.319106689453125,-0.9858856201171875,-0.002288818359375,-0.015228271484375
1761315855298153700,8.32915380859375,-0.9866790771484375,-0.001708984375,-0.0150909423828125
1761315855308200700,8.33920068359375,-0.9869537353515625,-0.0020904541015625,-0.015899658203125
1761315855318247700,8.34924755859375,-0.986114501953125,-0.002044677734375,-0.0165863037109375
1761315855328294700,8.359294677734376,-0.985992431640625,-0.002044677734375,-0.0160369873046875
1761315855338341600,8.369341552734374,-0.986358642578125,-0.002777099609375,-0.0151214599609375
1761315855348388600,8.379388671875,-0.9864349365234375,-0.002685546875,-0.0158233642578125
1761315855358435600,8.389435546875,-0.985992431640625,-0.0017242431640625,-0.015960693359375
1761315855368482600,8.399482666015626,-0.9860076904296875,-0.0021514892578125,-0.0162506103515625
1761315855378529800,8.40952978515625,-0.986114501953125,-0.0018463134765625,-0.0162506103515625
1761315855388576800,8.41957666015625,-0.9858245849609375,-0.00262451171875,-0.016082763671875
1761315855398623700,8.429623779296875,-0.98577880859375,-0.00189208984375,-0.0164642333984375
1761315855408670700,8.439670654296876,-0.98638916015625,-0.00244140625,-0.0153656005859375
1761315855418717700,8.4497177734375,-0.9858856201171875,-0.002532958984375,-0.015869140625
1761315855428764700,8.4597646484375,-0.986572265625,-0.0022735595703125,-0.01617431640625
1761315855438812000,8.46981201171875,-0.9868621826171875,-0.002471923828125,-0.0163116455078125
1761315855448858600,8.479858642578124,-0.9854736328125,-0.0021820068359375,-0.0153350830078125
1761315855458905600,8.489905517578125,-0.986297607421875,-0.0027313232421875,-0.01568603515625
1761315855468952600,8.49995263671875,-0.98577880859375,-0.002716064453125,-0.0163116455078125
1761315855478999600,8.50999951171875,-0.9857025146484375,-0.0019073486328125,-0.0157012939453125
1761315855489046800,8.520046875,-0.985198974609375,-0.0021209716796875,-0.01580810546875
1761315855499093800,8.53009375,-0.9863433837890625,-0.001373291015625,-0.01593017578125
1761315855509140700,8.540140625,-0.986083984375,-0.0025634765625,-0.0156402587890625
1761315855519187700,8.550187744140626,-0.985198974609375,-0.002716064453125,-0.016265869140625
1761315855529234700,8.560234619140624,-0.986419677734375,-0.00225830078125,-0.016326904296875
1761315855539281700,8.57028173828125,-0.98583984375,-0.0026397705078125,-0.0156402587890625
1761315855549329000,8.580328857421875,-0.9861297607421875,-0.0024566650390625,-0.0157012939453125
1761315855559376000,8.5903759765625,-0.9860382080078125,-0.0020599365234375,-0.01495361328125
1761315855569422800,8.6004228515625,-0.9857635498046875,-0.0022125244140625,-0.0158843994140625
1761315855579469600,8.610469482421875,-0.984588623046875,-0.002593994140625,-0.01617431640625
1761315855589516500,8.6205166015625,-0.9864044189453125,-0.0025482177734375,-0.014984130859375
1761315855599563500,8.6305634765625,-0.985870361328125,-0.002471923828125,-0.015869140625
1761315855609610800,8.64061083984375,-0.9850616455078125,-0.0020599365234375,-0.0165252685546875
1761315855619657700,8.65065771484375,-0.9857940673828125,-0.0024261474609375,-0.0153961181640625
1761315855629704700,8.66070458984375,-0.98504638671875,-0.002685546875,-0.0157470703125
1761315855639751700,8.670751708984374,-0.986053466796875,-0.0021514892578125,-0.0157928466796875
1761315855649798700,8.680798583984375,-0.9857635498046875,-0.002593994140625,-0.016448974609375
1761315855659845600,8.690845703125,-0.9864959716796875,-0.00299072265625,-0.016265869140625
1761315855669892900,8.700892822265626,-0.985748291015625,-0.0018310546875,-0.0158843994140625
1761315855679939800,8.71093994140625,-0.9860687255859375,-0.002410888671875,-0.0152130126953125
1761315855689986800,8.72098681640625,-0.9866180419921875,-0.0023193359375,-0.0161895751953125
1761315855700033800,8.73103369140625,-0.9856109619140625,-0.0022735595703125,-0.01611328125
1761315855710080500,8.74108056640625,-0.9865264892578125,-0.0021820068359375,-0.0156402587890625
1761315855720127500,8.75112744140625,-0.9857025146484375,-0.0030975341796875,-0.0153656005859375
1761315855730174700,8.7611748046875,-0.9857025146484375,-0.0028533935546875,-0.015625
1761315855740221700,8.7712216796875,-0.9864501953125,-0.00274658203125,-0.0155792236328125
1761315855750268700,8.7812685546875,-0.9863433837890625,-0.0016632080078125,-0.01605224609375
1761315855760315600,8.791315673828125,-0.9849090576171875,-0.0017242431640625,-0.015655517578125
1761315855770362600,8.801362548828125,-0.9855804443359375,-0.001495361328125,-0.0156707763671875
1761315855780409900,8.811409912109376,-0.9859466552734375,-0.0023345947265625,-0.0156402587890625
1761315855790456800,8.821456787109375,-0.9859466552734375,-0.001556396484375,-0.0152587890625
1761315855800503800,8.83150390625,-0.98614501953125,-0.0024566650390625,-0.015869140625
1761315855810550800,8.84155078125,-0.9869384765625,-0.0023651123046875,-0.016204833984375
1761315855820597800,8.85159765625,-0.9862518310546875,-0.0018463134765625,-0.01544189453125
1761315855830644500,8.86164453125,-0.9863739013671875,-0.00262451171875,-0.0159912109375
1761315855840691700,8.871691650390625,-0.986236572265625,-0.0021514892578125,-0.0164031982421875
1761315855850738700,8.88173876953125,-0.9856109619140625,-0.00201416015625,-0.015167236328125
1761315855860785700,8.89178564453125,-0.9856414794921875,-0.002899169921875,-0.0160675048828125
1761315855870832600,8.90183251953125,-0.986419677734375,-0.001983642578125,-0.0161590576171875
1761315855880879600,8.911879638671875,-0.98651123046875,-0.0021209716796875,-0.01507568359375
1761315855890926600,8.921926513671876,-0.9866485595703125,-0.0024566650390625,-0.0162811279296875
1761315855900973800,8.931973876953125,-0.9858856201171875,-0.0023040771484375,-0.0163421630859375
1761315855911020800,8.942020751953125,-0.986572265625,-0.0023956298828125,-0.015869140625
1761315855921068000,8.952068115234376,-0.9854736328125,-0.002655029296875,-0.0157318115234375
1761315855931115000,8.962114990234374,-0.9852142333984375,-0.00213623046875,-0.0158538818359375
1761315855941162000,8.972161865234375,-0.9857330322265625,-0.0020294189453125,-0.016571044921875
1761315855951208700,8.982208740234375,-0.9859466552734375,-0.0018463134765625,-0.0155181884765625
1761315855961255700,8.992255615234376,-0.9858551025390625,-0.0025787353515625,-0.0151519775390625
1761315855971303000,9.002302978515624,-0.9863128662109375,-0.002166748046875,-0.015899658203125
1761315855981347800,9.012347900390624,-0.985137939453125,-0.001983642578125,-0.0155487060546875
1761315855991395000,9.02239501953125,-0.986083984375,-0.0021514892578125,-0.0155181884765625
1761315856001442000,9.032442138671875,-0.986175537109375,-0.00189208984375,-0.016021728515625
1761315856011489000,9.042489013671876,-0.9862518310546875,-0.0025787353515625,-0.0162353515625
1761315856021536000,9.052535888671875,-0.9857635498046875,-0.00244140625,-0.0157470703125
1761315856031582700,9.062582763671875,-0.9853973388671875,-0.002532958984375,-0.0161285400390625
1761315856041629700,9.072629638671875,-0.9863739013671875,-0.002532958984375,-0.0157470703125
1761315856051677000,9.082677001953124,-0.9860382080078125,-0.002105712890625,-0.01666259765625
1761315856061724000,9.092723876953125,-0.986968994140625,-0.0021820068359375,-0.0170745849609375
1761315856071771000,9.10277099609375,-0.98681640625,-0.00244140625,-0.0155792236328125
1761315856081817900,9.11281787109375,-0.9855499267578125,-0.0024871826171875,-0.0149383544921875
1761315856091864800,9.12286474609375,-0.9866943359375,-0.002685546875,-0.0152435302734375
1761315856101912000,9.132912109375,-0.98577880859375,-0.0018310546875,-0.01593017578125
1761315856111959000,9.142958984375,-0.9857330322265625,-0.0025482177734375,-0.015594482421875
1761315856122006000,9.153006103515626,-0.98553466796875,-0.00244140625,-0.016357421875
1761315856132053000,9.163052978515625,-0.985992431640625,-0.0021820068359375,-0.01556396484375
1761315856142100000,9.173099853515625,-0.9861907958984375,-0.0025482177734375,-0.0157012939453125
1761315856152147000,9.18314697265625,-0.9872589111328125,-0.0015869140625,-0.015045166015625
1761315856162194000,9.19319384765625,-0.9868927001953125,-0.0022430419921875,-0.0149688720703125
1761315856172241000,9.203240966796875,-0.986236572265625,-0.0022125244140625,-0.0155487060546875
1761315856182288000,9.213287841796875,-0.9860382080078125,-0.00189208984375,-0.0162353515625
1761315856192334800,9.2233349609375,-0.9860687255859375,-0.002197265625,-0.0162506103515625
1761315856202381800,9.2333818359375,-0.985870361328125,-0.0035247802734375,-0.015869140625
1761315856212428800,9.2434287109375,-0.9861602783203125,-0.0027618408203125,-0.0165252685546875
1761315856222476000,9.25347607421875,-0.9860992431640625,-0.001983642578125,-0.01556396484375
1761315856232523000,9.26352294921875,-0.985748291015625,-0.002349853515625,-0.01507568359375
1761315856242570000,9.273570068359374,-0.985076904296875,-0.002227783203125,-0.0162811279296875
1761315856252617000,9.283616943359375,-0.9857025146484375,-0.001800537109375,-0.016693115234375
1761315856262664000,9.293663818359375,-0.985687255859375,-0.0018157958984375,-0.0158843994140625
1761315856272711000,9.3037109375,-0.98638916015625,-0.001983642578125,-0.0155029296875
1761315856282758000,9.3137578125,-0.98675537109375,-0.002288818359375,-0.016265869140625
1761315856292804900,9.323804931640625,-0.98614501953125,-0.002685546875,-0.015899658203125
1761315856302851800,9.333851806640626,-0.987701416015625,-0.0025634765625,-0.0157318115234375
1761315856312898800,9.34389892578125,-0.98638916015625,-0.0025482177734375,-0.0160675048828125
1761315856322945800,9.35394580078125,-0.9859619140625,-0.0021820068359375,-0.0157623291015625
1761315856332992800,9.36399267578125,-0.9866943359375,-0.002105712890625,-0.015777587890625
1761315856343040000,9.3740400390625,-0.9862060546875,-0.002166748046875,-0.0152587890625
1761315856353087000,9.3840869140625,-0.9864501953125,-0.0015716552734375,-0.0162506103515625
1761315856363134000,9.394134033203125,-0.987060546875,-0.00201416015625,-0.0159759521484375
1761315856373181000,9.404180908203125,-0.9865264892578125,-0.002227783203125,-0.0159454345703125
1761315856383228000,9.414227783203126,-0.9856414794921875,-0.002838134765625,-0.0162811279296875
1761315856393275000,9.42427490234375,-0.9856414794921875,-0.002471923828125,-0.015472412109375
1761315856403321900,9.43432177734375,-0.9860687255859375,-0.0019378662109375,-0.015869140625
1761315856413368800,9.444368896484375,-0.9862823486328125,-0.0022430419921875,-0.0154266357421875
1761315856423415800,9.454415771484374,-0.987152099609375,-0.00225830078125,-0.0153656005859375
1761315856433462800,9.464462890625,-0.98651123046875,-0.002899169921875,-0.016204833984375
1761315856443509800,9.474509765625,-0.98626708984375,-0.0022430419921875,-0.0159759521484375
1761315856453557000,9.484556884765626,-0.9865264892578125,-0.00201416015625,-0.0157470703125
1761315856463604000,9.49460400390625,-0.986480712890625,-0.00244140625,-0.015838623046875
1761315856473651000,9.50465087890625,-0.9864349365234375,-0.0023956298828125,-0.016357421875
1761315856483698000,9.514697998046875,-0.9865264892578125,-0.0019989013671875,-0.0161895751953125
1761315856493745000,9.524744873046876,-0.9863433837890625,-0.002410888671875,-0.0154571533203125
1761315856503791900,9.5347919921875,-0.98590087890625,-0.0023193359375,-0.0157623291015625
1761315856513839000,9.544839111328125,-0.9865264892578125,-0.0018768310546875,-0.01556396484375
1761315856523886000,9.554885986328125,-0.986480712890625,-0.001617431640625,-0.0169525146484375
1761315856533932800,9.564932861328124,-0.986175537109375,-0.00213623046875,-0.015838623046875
1761315856543979800,9.574979736328125,-0.985809326171875,-0.0024871826171875,-0.0158233642578125
1761315856554026800,9.58502685546875,-0.9856109619140625,-0.0030364990234375,-0.015533447265625
1761315856564073700,9.59507373046875,-0.9865875244140625,-0.0025634765625,-0.0166473388671875
1761315856574121000,9.605120849609374,-0.9854583740234375,-0.00238037109375,-0.016265869140625
1761315856584170000,9.615169921875,-0.986602783203125,-0.001739501953125,-0.015350341796875
1761315856594216700,9.625216796875,-0.9861602783203125,-0.0021209716796875,-0.0153961181640625
1761315856604264000,9.635263916015624,-0.9859466552734375,-0.0020904541015625,-0.0152740478515625
1761315856614311000,9.645310791015625,-0.986083984375,-0.0017242431640625,-0.01568603515625
1761315856624358000,9.65535791015625,-0.986083984375,-0.0022430419921875,-0.016082763671875
1761315856634404900,9.66540478515625,-0.9856414794921875,-0.0026397705078125,-0.015655517578125
1761315856644451800,9.675451904296875,-0.9858551025390625,-0.0024261474609375,-0.0155487060546875
1761315856654498800,9.685498779296875,-0.9862213134765625,-0.0015869140625,-0.015716552734375
1761315856664546000,9.695546142578126,-0.986114501953125,-0.002044677734375,-0.0165252685546875
1761315856674592000,9.705592041015626,-0.9866943359375,-0.0025482177734375,-0.015716552734375
1761315856684639000,9.715638916015624,-0.9865875244140625,-0.0022735595703125,-0.016754150390625
1761315856694686000,9.72568603515625,-0.98516845703125,-0.001739501953125,-0.01605224609375
1761315856704733000,9.73573291015625,-0.985595703125,-0.0025482177734375,-0.0154876708984375
1761315856714780000,9.74577978515625,-0.9856109619140625,-0.0024566650390625,-0.0158843994140625
1761315856724827000,9.755826904296875,-0.985931396484375,-0.0019378662109375,-0.0160675048828125
1761315856734874000,9.7658740234375,-0.9862060546875,-0.0026702880859375,-0.015594482421875
1761315856744921000,9.775921142578126,-0.98614501953125,-0.0021820068359375,-0.016387939453125
1761315856754967800,9.7859677734375,-0.9864349365234375,-0.0021514892578125,-0.0158538818359375
1761315856765014800,9.796014892578125,-0.9855194091796875,-0.0027008056640625,-0.01605224609375
1761315856775061800,9.806061767578125,-0.986236572265625,-0.00201416015625,-0.0159759521484375
1761315856785108700,9.816108642578126,-0.9866790771484375,-0.00244140625,-0.0156402587890625
1761315856795156000,9.826156005859374,-0.9865875244140625,-0.0016632080078125,-0.01556396484375
1761315856805203000,9.836202880859375,-0.986968994140625,-0.0012969970703125,-0.0159759521484375
1761315856815250000,9.84625,-0.9857330322265625,-0.0023651123046875,-0.01593017578125
1761315856825297000,9.856296875,-0.9855499267578125,-0.0013885498046875,-0.01629638671875
1761315856835344000,9.86634375,-0.9868011474609375,-0.001983642578125,-0.0160980224609375
1761315856845390800,9.876390869140625,-0.9862518310546875,-0.0023956298828125,-0.015594482421875
1761315856855438000,9.88643798828125,-0.985931396484375,-0.002166748046875,-0.014923095703125
1761315856865485000,9.896485107421874,-0.985870361328125,-0.00244140625,-0.0159759521484375
1761315856875532000,9.906531982421875,-0.9865570068359375,-0.0019378662109375,-0.0152587890625
1761315856885578800,9.916578857421875,-0.9856719970703125,-0.0019073486328125,-0.01519775390625
1761315856895625700,9.926625732421876,-0.985748291015625,-0.0024261474609375,-0.015289306640625
1761315856905672700,9.936672607421874,-0.9859466552734375,-0.00244140625,-0.016021728515625
1761315856915720000,9.946719970703125,-0.986053466796875,-0.0021514892578125,-0.0164947509765625
1761315856925767200,9.95676708984375,-0.9854278564453125,-0.002655029296875,-0.0159759521484375
1761315856935814100,9.966814208984376,-0.98663330078125,-0.002593994140625,-0.0147247314453125
1761315856945861000,9.976861083984375,-0.9861602783203125,-0.002471923828125,-0.015716552734375
1761315856955908000,9.986908203125,-0.9854583740234375,-0.001617431640625,-0.015472412109375
1761315856965955300,9.996955322265626,-0.9858856201171875,-0.0018463134765625,-0.0159912109375
1761315856976002300,10.007002197265624,-0.9864501953125,-0.001861572265625,-0.0158843994140625
1761315856986049300,10.01704931640625,-0.98529052734375,-0.0021820068359375,-0.0159912109375
1761315856996096300,10.02709619140625,-0.986236572265625,-0.002349853515625,-0.01568603515625
1761315857006143000,10.03714306640625,-0.985809326171875,-0.0017547607421875,-0.015838623046875
1761315857016190000,10.04718994140625,-0.98626708984375,-0.0024261474609375,-0.0169830322265625
1761315857026237200,10.0572373046875,-0.9859619140625,-0.0024871826171875,-0.01568603515625
1761315857036284200,10.0672841796875,-0.9861907958984375,-0.0023345947265625,-0.01556396484375
1761315857046331100,10.0773310546875,-0.9859619140625,-0.002166748046875,-0.0158538818359375
1761315857056378000,10.087378173828125,-0.9855804443359375,-0.00225830078125,-0.01568603515625
1761315857066425000,10.097425048828125,-0.986358642578125,-0.0025482177734375,-0.0165252685546875
1761315857076472000,10.10747216796875,-0.9848480224609375,-0.0023651123046875,-0.0166473388671875
1761315857086519300,10.117519287109374,-0.985443115234375,-0.002471923828125,-0.0165557861328125
1761315857096566300,10.127566162109375,-0.9863433837890625,-0.0026092529296875,-0.01641845703125
1761315857106613200,10.13761328125,-0.985687255859375,-0.0026397705078125,-0.01605224609375
1761315857116660200,10.14766015625,-0.985809326171875,-0.001983642578125,-0.0160980224609375
1761315857126707200,10.157707275390624,-0.9859161376953125,-0.002410888671875,-0.0165557861328125
1761315857136754000,10.16775390625,-0.9851837158203125,-0.0032196044921875,-0.015869140625
1761315857146801200,10.17780126953125,-0.9860992431640625,-0.0022125244140625,-0.0154266357421875
1761315857156848000,10.18784814453125,-0.985870361328125,-0.0021209716796875,-0.0156097412109375
1761315857166895000,10.19789501953125,-0.9860687255859375,-0.0021209716796875,-0.0159454345703125
1761315857176942000,10.207942138671875,-0.986968994140625,-0.0021820068359375,-0.015899658203125
1761315857186989000,10.217989013671875,-0.986602783203125,-0.00189208984375,-0.0153656005859375
1761315857197036300,10.228036376953124,-0.9871826171875,-0.0019683837890625,-0.0161895751953125
1761315857207083300,10.238083251953125,-0.986297607421875,-0.002471923828125,-0.016143798828125
1761315857217130200,10.248130126953125,-0.985595703125,-0.0016937255859375,-0.0161590576171875
1761315857227177200,10.25817724609375,-0.9861907958984375,-0.0023651123046875,-0.01611328125
1761315857237224200,10.26822412109375,-0.9864044189453125,-0.00244140625,-0.014404296875
1761315857247271200,10.278271240234375,-0.9863128662109375,-0.0023956298828125,-0.01519775390625
1761315857257318100,10.288318115234375,-0.987060546875,-0.0027923583984375,-0.015380859375
1761315857267365000,10.298365234375,-0.986663818359375,-0.002044677734375,-0.01654052734375
1761315857277412000,10.308412109375,-0.9860687255859375,-0.002593994140625,-0.01678466796875
1761315857287459000,10.318458984375,-0.9862213134765625,-0.002777099609375,-0.015625
1761315857297506000,10.328506103515625,-0.9868011474609375,-0.0024261474609375,-0.01593017578125
1761315857307553000,10.338552978515626,-0.9859161376953125,-0.00201416015625,-0.015960693359375
1761315857317600300,10.348600341796875,-0.984954833984375,-0.0020599365234375,-0.0153045654296875
1761315857327647200,10.358647216796875,-0.9860992431640625,-0.0025482177734375,-0.016082763671875
1761315857337694200,10.368694091796876,-0.98651123046875,-0.002532958984375,-0.016265869140625
1761315857347741200,10.3787412109375,-0.98529052734375,-0.002044677734375,-0.016448974609375
1761315857357788200,10.3887880859375,-0.9857025146484375,-0.0021514892578125,-0.01507568359375
1761315857367835100,10.398835205078125,-0.9865875244140625,-0.0022735595703125,-0.0160369873046875
1761315857377882400,10.40888232421875,-0.9859161376953125,-0.00244140625,-0.01654052734375
1761315857387929000,10.41892919921875,-0.9860992431640625,-0.0017242431640625,-0.0163421630859375
1761315857397976000,10.42897607421875,-0.98681640625,-0.00341796875,-0.0164337158203125
1761315857408023000,10.43902294921875,-0.986053466796875,-0.0018310546875,-0.0160064697265625
1761315857418070000,10.449070068359376,-0.98541259765625,-0.0023956298828125,-0.01556396484375
1761315857428117000,10.459116943359374,-0.986572265625,-0.003082275390625,-0.01580810546875
1761315857438164200,10.469164306640625,-0.98626708984375,-0.002410888671875,-0.0160980224609375
1761315857448211200,10.479211181640625,-0.9857635498046875,-0.0021514892578125,-0.0158538818359375
1761315857458258200,10.489258056640624,-0.98577880859375,-0.002288818359375,-0.0151519775390625
1761315857468305200,10.49930517578125,-0.9863433837890625,-0.002471923828125,-0.0162200927734375
1761315857478352100,10.50935205078125,-0.9850921630859375,-0.002105712890625,-0.01678466796875
1761315857488399400,10.5193994140625,-0.98681640625,-0.002349853515625,-0.0147552490234375
1761315857498446300,10.5294462890625,-0.9857940673828125,-0.0016326904296875,-0.01568603515625
1761315857508493300,10.539493408203125,-0.9860382080078125,-0.0019683837890625,-0.0167236328125
1761315857518540000,10.5495400390625,-0.9857177734375,-0.0020294189453125,-0.0153656005859375
1761315857528587000,10.5595869140625,-0.986053466796875,-0.0023956298828125,-0.0157623291015625
1761315857538634000,10.569634033203124,-0.9857635498046875,-0.0026092529296875,-0.015899658203125
1761315857548681200,10.57968115234375,-0.9865570068359375,-0.002288818359375,-0.0157318115234375
1761315857558728200,10.589728271484375,-0.9860687255859375,-0.0016632080078125,-0.015960693359375
1761315857568775200,10.599775146484374,-0.9866180419921875,-0.0023040771484375,-0.0164642333984375
1761315857578822100,10.609822265625,-0.986541748046875,-0.00189208984375,-0.015655517578125
1761315857588869000,10.619869140625,-0.9862213134765625,-0.00274658203125,-0.0161895751953125
1761315857598916000,10.629916015625,-0.9867095947265625,-0.00335693359375,-0.015045166015625
1761315857608963300,10.63996337890625,-0.98541259765625,-0.00299072265625,-0.015045166015625
1761315857619010300,10.65001025390625,-0.9858551025390625,-0.00079345703125,-0.0162353515625
1761315857629057300,10.660057373046875,-0.9868621826171875,-0.0005950927734375,-0.0164794921875
1761315857639104000,10.67010400390625,-0.98675537109375,-0.0025787353515625,-0.01702880859375
1761315857649150200,10.680150146484374,-0.985687255859375,-0.0033416748046875,-0.01513671875
1761315857659197200,10.690197265625,-0.9876556396484375,-0.0034942626953125,-0.0152587890625
1761315857669244200,10.700244140625,-0.9868621826171875,-0.0030059814453125,-0.0163726806640625
1761315857679291100,10.710291015625,-0.985870361328125,-0.00164794921875,-0.01617431640625
1761315857689338000,10.720338134765624,-0.985626220703125,-0.00189208984375,-0.0168914794921875
1761315857699385000,10.730385009765625,-0.98583984375,-0.001678466796875,-0.0164947509765625
1761315857709432000,10.74043212890625,-0.9864501953125,-0.00140380859375,-0.015289306640625
1761315857719479000,10.75047900390625,-0.9868316650390625,-0.0023651123046875,-0.015106201171875
1761315857729526000,10.760526123046875,-0.986663818359375,-0.00347900390625,-0.0159454345703125
1761315857739573200,10.7705732421875,-0.98577880859375,-0.0023193359375,-0.0155181884765625
1761315857749620200,10.7806201171875,-0.9857635498046875,-0.0013885498046875,-0.016387939453125
1761315857759667200,10.790667236328124,-0.9869384765625,-0.0007171630859375,-0.0166168212890625
1761315857769714200,10.800714111328125,-0.986968994140625,-0.00128173828125,-0.0158233642578125
1761315857779761200,10.81076123046875,-0.9863433837890625,-0.002410888671875,-0.0159912109375
1761315857789808000,10.82080810546875,-0.985748291015625,-0.0031280517578125,-0.016021728515625
1761315857799855400,10.83085546875,-0.9861297607421875,-0.0025634765625,-0.0153045654296875
1761315857809902000,10.840902099609375,-0.98626708984375,-0.0020599365234375,-0.016021728515625
1761315857819949000,10.850948974609375,-0.9869232177734375,-0.00201416015625,-0.016082763671875
1761315857829996000,10.86099609375,-0.9864654541015625,-0.0014190673828125,-0.0164642333984375
1761315857840043000,10.87104296875,-0.987274169921875,-0.00164794921875,-0.0160980224609375
1761315857850090200,10.88109033203125,-0.9863128662109375,-0.0019683837890625,-0.0147247314453125
1761315857860137200,10.89113720703125,-0.9866485595703125,-0.0024566650390625,-0.0146636962890625
1761315857870184200,10.90118408203125,-0.986419677734375,-0.003021240234375,-0.0153350830078125
1761315857880231200,10.911231201171875,-0.986663818359375,-0.00311279296875,-0.0167083740234375
1761315857890278100,10.921278076171875,-0.9868621826171875,-0.0015869140625,-0.0166168212890625
1761315857900325000,10.9313251953125,-0.9858551025390625,-0.001983642578125,-0.0157012939453125
1761315857910372400,10.941372314453124,-0.98638916015625,-0.0019073486328125,-0.0156097412109375
1761315857920419300,10.95141943359375,-0.986724853515625,-0.0028533935546875,-0.0164947509765625
1761315857930466600,10.961466552734375,-0.986083984375,-0.00250244140625,-0.0150146484375
1761315857940513500,10.971513427734376,-0.9855194091796875,-0.0019989013671875,-0.0151214599609375
1761315857950560500,10.981560546875,-0.9860992431640625,-0.0015716552734375,-0.01568603515625
1761315857960607700,10.991607666015625,-0.9865264892578125,-0.0027923583984375,-0.016143798828125
1761315857970654700,11.00165478515625,-0.9865570068359375,-0.0021820068359375,-0.0172119140625
1761315857980701700,11.01170166015625,-0.9873199462890625,-0.0029296875,-0.0159149169921875
1761315857990748700,11.021748779296875,-0.98602294921875,-0.0024566650390625,-0.0153961181640625
1761315858000795600,11.031795654296875,-0.9859466552734375,-0.00250244140625,-0.0156097412109375
1761315858010842600,11.041842529296876,-0.9858245849609375,-0.0023193359375,-0.014923095703125
1761315858020889900,11.051889892578124,-0.986236572265625,-0.00238037109375,-0.0147857666015625
1761315858030936800,11.061936767578125,-0.9863739013671875,-0.00140380859375,-0.0153045654296875
1761315858040983600,11.071983642578125,-0.9854583740234375,-0.0017547607421875,-0.01617431640625
1761315858051030500,11.082030517578126,-0.9857177734375,-0.0020904541015625,-0.0161285400390625
1761315858061077500,11.092077392578124,-0.9861297607421875,-0.0030059814453125,-0.0151519775390625
1761315858071124500,11.10212451171875,-0.985626220703125,-0.0030059814453125,-0.0158843994140625
1761315858081171700,11.112171630859375,-0.98626708984375,-0.0023193359375,-0.0153961181640625
1761315858091218700,11.12221875,-0.98651123046875,-0.00213623046875,-0.015472412109375
1761315858101265700,11.132265625,-0.9873504638671875,-0.00238037109375,-0.0162506103515625
1761315858111312600,11.142312744140625,-0.9867401123046875,-0.00335693359375,-0.0160980224609375
1761315858121359600,11.152359619140626,-0.9866943359375,-0.0026092529296875,-0.014892578125
1761315858131406600,11.162406494140624,-0.985931396484375,-0.0027008056640625,-0.0160980224609375
1761315858141453800,11.172453857421875,-0.9853515625,-0.0023651123046875,-0.014984130859375
1761315858151500800,11.182500732421875,-0.9857177734375,-0.0023040771484375,-0.0164794921875
1761315858161547800,11.1925478515625,-0.98577880859375,-0.002105712890625,-0.016204833984375
1761315858171594500,11.202594482421874,-0.9869232177734375,-0.0019378662109375,-0.0155487060546875
1761315858181641500,11.212641357421875,-0.9865875244140625,-0.00225830078125,-0.016265869140625
1761315858191688400,11.2226884765625,-0.9859161376953125,-0.0022735595703125,-0.015625
1761315858201735700,11.232735595703126,-0.9862060546875,-0.0020904541015625,-0.01580810546875
1761315858211782700,11.24278271484375,-0.98614501953125,-0.0029754638671875,-0.01605224609375
1761315858221829600,11.25282958984375,-0.9856414794921875,-0.00250244140625,-0.01580810546875
1761315858231876600,11.262876708984376,-0.9864349365234375,-0.00177001953125,-0.0162200927734375
1761315858241923600,11.272923583984374,-0.9869537353515625,-0.0021514892578125,-0.01708984375
1761315858251969500,11.282969482421874,-0.9852142333984375,-0.0015716552734375,-0.0158233642578125
1761315858262016500,11.2930166015625,-0.98565673828125,-0.002593994140625,-0.015838623046875
1761315858272063700,11.303063720703125,-0.986114501953125,-0.0026702880859375,-0.016021728515625
1761315858282110700,11.31311083984375,-0.985992431640625,-0.0027923583984375,-0.0155487060546875
1761315858292157700,11.32315771484375,-0.985382080078125,-0.002838134765625,-0.0164031982421875
1761315858302204700,11.33320458984375,-0.9859771728515625,-0.0025634765625,-0.015472412109375
1761315858312251600,11.343251708984376,-0.9864501953125,-0.00115966796875,-0.0157928466796875
1761315858322299000,11.353298828125,-0.986236572265625,-0.0018463134765625,-0.015960693359375
1761315858332345600,11.363345703125,-0.985809326171875,-0.0023040771484375,-0.0152435302734375
1761315858342392600,11.373392578125,-0.9857940673828125,-0.0028228759765625,-0.015228271484375
1761315858352439600,11.383439453125,-0.986236572265625,-0.0022430419921875,-0.0155487060546875
1761315858362486500,11.393486572265624,-0.9861297607421875,-0.0025634765625,-0.0162506103515625
1761315858372533500,11.403533447265625,-0.9863433837890625,-0.0025787353515625,-0.01690673828125
1761315858382580700,11.413580810546875,-0.9866790771484375,-0.0020904541015625,-0.016082763671875
1761315858392627700,11.423627685546874,-0.9877777099609375,-0.0029754638671875,-0.0154876708984375
1761315858402674700,11.4336748046875,-0.9859466552734375,-0.0020751953125,-0.0165863037109375
1761315858412721700,11.4437216796875,-0.986114501953125,-0.0023193359375,-0.0152740478515625
1761315858422768600,11.4537685546875,-0.9860992431640625,-0.0017242431640625,-0.0159759521484375
1761315858432815600,11.463815673828124,-0.98687744140625,-0.0023956298828125,-0.0167999267578125
1761315858442862800,11.47386279296875,-0.986846923828125,-0.0016326904296875,-0.0158233642578125
1761315858452909800,11.483909912109375,-0.9856414794921875,-0.001861572265625,-0.0157318115234375
1761315858462956500,11.49395654296875,-0.985504150390625,-0.0016937255859375,-0.01507568359375
1761315858473003500,11.50400341796875,-0.986175537109375,-0.002166748046875,-0.0153656005859375
1761315858483050500,11.514050537109375,-0.98626708984375,-0.00225830078125,-0.017059326171875
1761315858493097500,11.524097412109375,-0.986419677734375,-0.00274658203125,-0.016265869140625
1761315858503144700,11.534144775390626,-0.98492431640625,-0.00177001953125,-0.0158233642578125
1761315858513191700,11.544191650390625,-0.9872283935546875,-0.00262451171875,-0.0160369873046875
1761315858523238700,11.55423876953125,-0.9872589111328125,-0.002044677734375,-0.0164947509765625
1761315858533285600,11.56428564453125,-0.98602294921875,-0.0028533935546875,-0.015228271484375
1761315858543332600,11.57433251953125,-0.9865570068359375,-0.0032501220703125,-0.01568603515625
1761315858553379600,11.584379638671875,-0.986724853515625,-0.002197265625,-0.0156707763671875
1761315858563426800,11.5944267578125,-0.9863433837890625,-0.0024871826171875,-0.015777587890625
1761315858573473800,11.604473876953126,-0.98687744140625,-0.0034637451171875,-0.01568603515625
1761315858583520800,11.614520751953124,-0.9867706298828125,-0.0021209716796875,-0.0155181884765625
1761315858593567500,11.6245673828125,-0.986083984375,-0.002349853515625,-0.016357421875
1761315858603614500,11.634614501953125,-0.9858245849609375,-0.00238037109375,-0.016082763671875
1761315858613661700,11.64466162109375,-0.9864044189453125,-0.0030670166015625,-0.0156402587890625
1761315858623708700,11.654708740234375,-0.9863433837890625,-0.0025787353515625,-0.0160064697265625
1761315858633755600,11.664755615234375,-0.98553466796875,-0.0020904541015625,-0.015533447265625
1761315858643802600,11.674802734375,-0.9863433837890625,-0.002105712890625,-0.0160369873046875
1761315858653849600,11.684849609375,-0.9864349365234375,-0.0028839111328125,-0.01568603515625
1761315858663896600,11.694896484375,-0.9869384765625,-0.00262451171875,-0.0154266357421875
1761315858673943800,11.70494384765625,-0.98614501953125,-0.002532958984375,-0.01580810546875
1761315858683990800,11.71499072265625,-0.985870361328125,-0.003204345703125,-0.0160369873046875
1761315858694037800,11.725037841796874,-0.9860382080078125,-0.0020904541015625,-0.01507568359375
1761315858704084700,11.735084716796875,-0.985809326171875,-0.00213623046875,-0.01513671875
1761315858714131700,11.745131591796875,-0.98626708984375,-0.0019683837890625,-0.0161590576171875
1761315858724178400,11.755178466796876,-0.9869842529296875,-0.002532958984375,-0.0151519775390625
1761315858734225700,11.7652255859375,-0.9865264892578125,-0.0027008056640625,-0.01519775390625
1761315858744272600,11.775272705078125,-0.9861907958984375,-0.00189208984375,-0.0150299072265625
1761315858754318600,11.785318603515625,-0.985504150390625,-0.0023956298828125,-0.0158843994140625
1761315858764365600,11.795365478515626,-0.9859161376953125,-0.0030364990234375,-0.0152587890625
1761315858774412500,11.80541259765625,-0.987396240234375,-0.00244140625,-0.016143798828125
1761315858784459500,11.81545947265625,-0.986175537109375,-0.0019073486328125,-0.0159149169921875
1761315858794506500,11.825506591796875,-0.986328125,-0.0023040771484375,-0.0152587890625
1761315858804553700,11.8355537109375,-0.98675537109375,-0.0027618408203125,-0.014801025390625
1761315858814600700,11.8456005859375,-0.98583984375,-0.0030364990234375,-0.0157318115234375
1761315858824647700,11.855647705078125,-0.9865875244140625,-0.0024566650390625,-0.01605224609375
1761315858834694700,11.865694580078125,-0.9862060546875,-0.0018463134765625,-0.0155029296875
1761315858844741600,11.87574169921875,-0.986175537109375,-0.002166748046875,-0.0160980224609375
1761315858854788600,11.88578857421875,-0.98590087890625,-0.00244140625,-0.0164794921875
1761315858864835800,11.8958359375,-0.9855804443359375,-0.0022735595703125,-0.016632080078125
1761315858874882800,11.9058828125,-0.9866485595703125,-0.00250244140625,-0.0154266357421875
1761315858884929500,11.915929443359374,-0.9865570068359375,-0.0016632080078125,-0.0159454345703125
1761315858894976500,11.9259765625,-0.985992431640625,-0.0014495849609375,-0.0159454345703125
1761315858905023500,11.9360234375,-0.9860076904296875,-0.0015411376953125,-0.0164794921875
1761315858915070700,11.94607080078125,-0.98577880859375,-0.0019378662109375,-0.015625
1761315858925116400,11.956116455078124,-0.984130859375,-0.0028533935546875,-0.0156707763671875
1761315858935163600,11.96616357421875,-0.9873809814453125,-0.00390625,-0.015625
1761315858945210600,11.976210693359375,-0.987457275390625,-0.0028533935546875,-0.01593017578125
1761315858955257600,11.986257568359376,-0.98699951171875,-0.00225830078125,-0.016143798828125
1761315858965304600,11.9963046875,-0.98651123046875,-0.001312255859375,-0.0175628662109375
1761315858975351600,12.0063515625,-0.986053466796875,-0.001007080078125,-0.0164947509765625
1761315858985398800,12.016398681640625,-0.98638916015625,-0.002349853515625,-0.015411376953125
