time,seconds_elapsed,z,y,x
1761315847075932000,0.106931884765625,0.010631338693201542,-0.009131712839007378,0.0014881744282320142
1761315847085979000,0.116978759765625,0.011938418261706829,-0.00894076470285654,0.0009424926829524338
1761315847096025900,0.12702587890625,0.005823800805956125,-0.007922105491161346,0.0017555557424202561
1761315847106072800,0.13707275390625,0.00774553744122386,-0.007958058267831802,0.003096457337960601
1761315847116119800,0.147119873046875,0.008989233523607254,-0.006608101539313793,-0.0004620584368240088
1761315847126166800,0.157166748046875,0.006179066374897957,-0.008392153307795525,0.005657885689288378
1761315847136212700,0.167212646484375,0.008872320875525475,-0.008131429553031921,0.0006522081675939262
1761315847146261000,0.177260986328125,0.008295213803648949,-0.008274974301457405,0.00014061490946915
1761315847156307000,0.187306884765625,0.004770786967128515,-0.006369748618453741,0.0026549051981419325
1761315847166354000,0.19735400390625,0.007065898738801479,-0.00654631620272994,0.0027718180790543556
1761315847176401000,0.20740087890625,0.008049936965107918,-0.008976717479526997,0.0021499700378626585
1761315847186448000,0.21744775390625,0.005819539539515972,-0.008105597458779812,0.0021696772892028093
1761315847196494800,0.227494873046875,0.005020325072109699,-0.008577775210142136,0.0009691243176348507
1761315847206542000,0.2375419921875,0.005982791539281607,-0.008809470571577549,0.004535097163170576
1761315847216589000,0.247589111328125,0.006659500766545534,-0.006547914352267981,0.004267183132469654
1761315847226636000,0.257635986328125,0.006985471583902836,-0.009919209405779839,0.002406432293355465
1761315847236683000,0.26768310546875,0.006879477761685848,-0.011041199788451195,0.0001930791768245399
1761315847246729700,0.277729736328125,0.008481369353830814,-0.008115450851619244,-0.0011584750609472394
1761315847256776700,0.287776611328125,0.00598518829792738,-0.009119462221860886,0.0014796522445976734
1761315847266824000,0.297823974609375,0.006975617725402117,-0.007209443487226963,0.0024533038958907127
1761315847276871000,0.307870849609375,0.004032292403280735,-0.008668589405715466,0.0022564963437616825
1761315847286918000,0.31791796875,0.004977980628609657,-0.008845689706504345,0.001076982356607914
1761315847296964900,0.32796484375,0.007469634059816599,-0.006184658966958523,0.0027662254869937897
1761315847307011800,0.33801171875,0.007303453050553799,-0.007737548090517521,0.0012024171883240342
1761315847317058800,0.348058837890625,0.008105331100523472,-0.00680171325802803,-0.00047697214176878333
1761315847327106000,0.35810595703125,0.00780679052695632,-0.008227569982409477,0.001142229768447578
1761315847337153000,0.368153076171875,0.006586263421922922,-0.008094411343336105,0.0012516856659203768
1761315847347200000,0.378199951171875,0.009995109401643276,-0.00654551712796092,0.0018224010709673166
1761315847357247000,0.3882470703125,0.008532768115401268,-0.007030212786048651,0.002156894188374281
1761315847367294000,0.3982939453125,0.010118680074810982,-0.007155913859605789,0.004524710588157177
1761315847377340700,0.408340576171875,0.008984173648059368,-0.006471747532486916,0.0017395768081769347
1761315847387388000,0.418387939453125,0.006131129339337349,-0.008829178288578987,0.001210406655445695
1761315847397435000,0.428434814453125,0.007099721115082502,-0.006966030225157738,-0.0009337042574770749
1761315847407481900,0.43848193359375,0.008170312270522118,-0.008275240659713745,0.0020692760590463877
1761315847417528800,0.44852880859375,0.007153517100960016,-0.007881359197199345,0.004325772635638714
1761315847427575800,0.458575927734375,0.008899485692381859,-0.007071757689118385,0.003323092358186841
1761315847437622800,0.468622802734375,0.010961837135255337,-0.006661631166934967,0.0030154972337186337
1761315847447670000,0.478669921875,0.00875088106840849,-0.007325290702283382,0.001514806062914431
1761315847457717000,0.488717041015625,0.008920257911086082,-0.005062136333435774,0.001645300886593759
1761315847467764000,0.498763916015625,0.007983890362083912,-0.005566805601119995,0.0020671456586569548
1761315847477811000,0.50881103515625,0.008256598375737667,-0.008103999309241772,-0.0001227717293659225
1761315847487858000,0.51885791015625,0.0075665730983018875,-0.007967378944158554,0.0021821942646056414
1761315847497905000,0.52890478515625,0.00618199585005641,-0.006473345682024956,0.0028045750223100185
1761315847507951900,0.538951904296875,0.009926400147378445,-0.009788980707526207,0.002127066720277071
1761315847517998800,0.548998779296875,0.008175904862582684,-0.007139934692531824,0.003543868428096175
1761315847528045800,0.5590458984375,0.0073109096847474575,-0.008364456705749035,0.0024825986474752426
1761315847538092800,0.5690927734375,0.006958307232707739,-0.006988933775573969,0.0006500775925815105
1761315847548139800,0.579139892578125,0.005000617355108261,-0.010059557855129242,0.0009177253232337534
1761315847558187000,0.58918701171875,0.0070283482782542706,-0.008431301452219486,0.0019856528379023075
1761315847568234000,0.59923388671875,0.005811816547065973,-0.007851265370845795,0.0009867012267932296
1761315847578281000,0.609281005859375,0.007267766632139683,-0.007907191291451454,0.002680471632629633
1761315847588328000,0.619327880859375,0.00857404712587595,-0.007821970619261265,0.002261023735627532
1761315847598375000,0.629375,0.007165501359850168,-0.007113303057849407,0.0028370653744786978
1761315847608422000,0.639421875,0.010511230677366257,-0.009101086296141148,0.001258876291103661
1761315847618469000,0.64946923828125,0.008280034177005291,-0.008740761317312717,0.0017638115677982569
1761315847628515800,0.659515869140625,0.007792941760271788,-0.0068208882585167885,0.0036362800747156143
1761315847638562800,0.669562744140625,0.009129848331212997,-0.007241134997457266,0.0034072482958436012
1761315847648609800,0.67960986328125,0.007831824012100697,-0.006684001535177231,0.0002740392810665071
1761315847658656800,0.68965673828125,0.004968659486621618,-0.0070829433389008045,0.0028397287242114544
1761315847668703700,0.699703857421875,0.006679208017885685,-0.008826781064271927,0.004561994690448046
1761315847678751000,0.7097509765625,0.007567904889583588,-0.00837031565606594,0.0006053365068510175
1761315847688798000,0.7197978515625,0.010912302881479263,-0.00863023940473795,0.002123604528605938
1761315847698845000,0.729844970703125,0.008193481713533401,-0.00785419438034296,0.0034756914246827364
1761315847708892000,0.739891845703125,0.006810501683503389,-0.006958573590964079,0.004188353195786476
1761315847718939000,0.74993896484375,0.008443285711109638,-0.005959089379757643,0.00040719733806326985
1761315847728985900,0.75998583984375,0.006305033806711435,-0.0067785438150167465,0.00035712990211322904
1761315847739033000,0.770033203125,0.009968744590878487,-0.006120210513472557,0.0034144388046115637
1761315847749080000,0.780080078125,0.008462727069854736,-0.0086629968136549,0.0021457087714225054
1761315847759126800,0.790126708984375,0.008987369947135448,-0.006683735176920891,0.0017451694002375007
1761315847769173800,0.800173828125,0.007381217088550329,-0.008960471488535404,0.004224305972456932
1761315847779220700,0.810220703125,0.007966579869389534,-0.007180415093898773,0.002089516259729862
1761315847789268000,0.82026806640625,0.005298625212162733,-0.008229168131947517,-0.00006764429417671636
1761315847799315000,0.83031494140625,0.006960703991353512,-0.005796370096504688,0.0017358483746647835
1761315847809362000,0.84036181640625,0.008007326163351536,-0.009008941240608692,0.0007379619055427611
1761315847819409000,0.850408935546875,0.007488542702049017,-0.009371929802000523,0.0026253440883010626
1761315847829456000,0.860455810546875,0.007525826804339886,-0.00845633540302515,0.0025691515766084194
1761315847839502800,0.8705029296875,0.006582801695913076,-0.008608668111264706,0.0018050905782729387
1761315847849550000,0.880550048828125,0.005995574407279491,-0.006325007416307926,0.00195156445261091
1761315847859597000,0.89059716796875,0.007786017842590809,-0.0067817396484315395,0.0019979034550487995
1761315847869644000,0.90064404296875,0.008637163788080215,-0.007641141768544912,0.0023971113841980696
1761315847879691000,0.91069091796875,0.007959655486047268,-0.007645668927580118,0.0012261193478479981
1761315847889737700,0.92073779296875,0.00896686315536499,-0.008292551152408123,0.0028269453905522823
1761315847899784700,0.93078466796875,0.01161697506904602,-0.007755124941468239,0.002654372714459896
1761315847909832000,0.94083203125,0.0057375142350792885,-0.016987239941954613,0.0032376048620790243
1761315847919883300,0.95088330078125,0.007977765053510666,-0.008943160995841026,0.0011113371001556516
1761315847929930200,0.96093017578125,0.005760417319834232,-0.0010937602492049336,0.0022711437195539474
1761315847939977200,0.970977294921875,0.008616657927632332,-0.0062421830371022224,0.0013494236627593637
1761315847950024400,0.9810244140625,0.008586297743022442,-0.005312739871442318,0.0012362393317744136
1761315847960071400,0.991071533203125,0.005607551895081997,-0.007876831106841564,0.00072597770486027
1761315847970118400,1.001118408203125,0.010860903188586235,-0.008744489401578903,0.0009451558580622077
1761315847980165000,1.0111650390625,0.009110407903790474,-0.007288272958248854,0.001017061178572476
1761315847990212000,1.021212158203125,0.006698382552713156,-0.007927698083221912,0.0029316076543182135
1761315848000259000,1.031259033203125,0.01022893562912941,-0.0068091703578829765,0.0019976370967924595
1761315848010306300,1.041306396484375,0.007226221263408661,-0.008747152984142303,0.0007060039788484573
1761315848020353300,1.051353271484375,0.0071157002821564674,-0.006370547693222761,0.0003299656673334539
1761315848030400300,1.061400146484375,0.004791026934981346,-0.006958839949220419,-0.00005832322858623229
1761315848040447200,1.071447265625,0.005142830312252045,-0.008801480755209923,0.002226402750238776
1761315848050494200,1.081494140625,0.007829959504306316,-0.004808603785932064,-0.0004921521758660674
1761315848060541400,1.09154150390625,0.008349808864295483,-0.005846437532454729,0.00026791400159709156
1761315848070588400,1.10158837890625,0.006442985497415066,-0.007156712934374809,0.0015968313673511147
1761315848080635400,1.111635498046875,0.008733304217457771,-0.008954878896474838,0.0033547841012477875
1761315848090682400,1.121682373046875,0.007595867849886417,-0.008440090343356133,0.0020562265999615192
1761315848100729300,1.131729248046875,0.007752994541078806,-0.006049370393157005,0.00031132352887652814
1761315848110776000,1.141776123046875,0.009904029779136181,-0.005114600993692875,0.00236249016597867
1761315848120823300,1.1518232421875,0.007671768311411142,-0.01002014335244894,0.0021827267482876778
1761315848130870300,1.161870361328125,0.009394832886755466,-0.0080885523930192,0.0012008192716166377
1761315848140917200,1.171917236328125,0.007684817537665367,-0.00737322773784399,0.0026027073618024588
1761315848150964200,1.181964111328125,0.009126120246946812,-0.008081628940999508,0.0023134879302233458
1761315848161011200,1.19201123046875,0.007648066151887178,-0.009581254795193672,0.003451190423220396
1761315848171058200,1.20205810546875,0.007829161360859871,-0.00920281931757927,0.003281813347712159
1761315848181105400,1.21210546875,0.0071066454984247684,-0.009768208488821983,0.0020032296888530254
1761315848191152400,1.22215234375,0.00887711439281702,-0.00794447585940361,0.000922252656891942
1761315848201199400,1.232199462890625,0.008373777382075787,-0.009675797075033188,-0.0004777711001224816
1761315848211246300,1.242246337890625,0.0075945365242660046,-0.008023039437830448,-0.0002383529208600521
1761315848221293300,1.252293212890625,0.009546367451548576,-0.008837699890136719,0.001100950757972896
1761315848231340300,1.26234033203125,0.00845633540302515,-0.00894076470285654,0.0009022789890877903
1761315848241387300,1.27238720703125,0.008884571492671967,-0.006960970349609852,0.00012916330888401717
1761315848251434200,1.282434326171875,0.0060083577409386635,-0.0067636300809681416,-0.0015747271245345473
1761315848261481200,1.292481201171875,0.006880276836454868,-0.0070491209626197815,-0.0010937602492049336
1761315848271528200,1.302528076171875,0.004150270018726587,-0.009980995208024979,0.003269829088822007
1761315848281575200,1.3125751953125,0.006146842148154974,-0.008625445887446404,0.00014194648247212172
1761315848291622100,1.3226220703125,0.006277869455516338,-0.007482683751732111,0.0006253102328628302
1761315848301669400,1.33266943359375,0.0059694754891097546,-0.007553257513791323,-0.0011803129455074668
1761315848311716400,1.34271630859375,0.0075822859071195126,-0.00806325301527977,0.00535348616540432
1761315848321763300,1.352763427734375,0.0075849490240216255,-0.00788615271449089,0.0008285093936137855
1761315848331810300,1.362810302734375,0.006738063879311085,-0.008498679846525192,-0.00029055087361484766
1761315848341857300,1.372857177734375,0.005341768264770508,-0.007015565410256386,0.0004892227007076144
1761315848351904500,1.382904541015625,0.005826996639370918,-0.007462976034730673,0.0015510249650105834
1761315848361951200,1.392951171875,0.005861617624759674,-0.008916796185076237,0.00207726564258337
1761315848371998200,1.402998291015625,0.00743208359926939,-0.009194563142955303,0.002148105762898922
1761315848382045200,1.413045166015625,0.0073082465678453445,-0.00999457761645317,0.0022125542163848877
1761315848392092200,1.423092041015625,0.008593222126364708,-0.007540207821875811,0.0031902005430310965
1761315848402139100,1.43313916015625,0.007962319068610668,-0.006899451371282339,0.0035481294617056847
1761315848412186400,1.443186279296875,0.006615292280912399,-0.0065527078695595264,0.0031672974582761526
1761315848422233300,1.4532333984375,0.0060142166912555695,-0.007257646415382624,0.0022117553744465113
1761315848432280300,1.4632802734375,0.009819340892136097,-0.006115949247032404,0.001889246515929699
1761315848442327300,1.473327392578125,0.007932491600513458,-0.00737216230481863,0.0013233247445896268
1761315848452374300,1.483374267578125,0.0057444386184215546,-0.009298160672187805,0.0007091998122632504
1761315848462421200,1.493421142578125,0.008738097734749317,-0.007656588219106197,0.0031872710678726435
1761315848472468500,1.503468505859375,0.009761017747223377,-0.007321296259760857,0.0010317085543647408
1761315848482515500,1.513515380859375,0.007213704288005829,-0.00714606000110507,0.001258609932847321
1761315848492562200,1.523562255859375,0.009321063756942749,-0.006977482233196497,0.0029949909076094627
1761315848502609200,1.533609130859375,0.007427290081977844,-0.008126103319227695,0.0015736619243398309
1761315848512656100,1.54365625,0.007995341904461384,-0.009180981665849686,0.0007600661483593285
1761315848522703000,1.553703125,0.0076062544248998165,-0.009281915612518787,0.0032178976107388735
1761315848532750300,1.563750244140625,0.007219563238322735,-0.009060073643922806,0.000978711643256247
1761315848542797300,1.57379736328125,0.006315154023468494,-0.006963367108255625,0.0009467537747696042
1761315848552844300,1.58384423828125,0.006645119283348322,-0.008776979520916939,0.0009837717516347766
1761315848562891300,1.593891357421875,0.006947388406842947,-0.006295179948210716,0.004356665071099997
1761315848572938200,1.603938232421875,0.007518636528402567,-0.006392118986696005,0.001002680161036551
1761315848582985200,1.613985107421875,0.004479437135159969,-0.004369714763015509,0.004267183132469654
1761315848593032400,1.624032470703125,0.008471248671412468,-0.007705057505518198,0.0012237224727869034
1761315848603079400,1.634079345703125,0.006858172360807657,-0.00785472709685564,0.002572613535448909
1761315848613126400,1.64412646484375,0.006393717136234045,-0.009851032868027687,0.001047154888510704
1761315848623173000,1.654173095703125,0.008088020607829094,-0.006887999828904867,0.0005020058597438037
1761315848633220000,1.66422021484375,0.006676278542727232,-0.006886401679366827,0.0007291734800674021
1761315848643267300,1.674267333984375,0.007270163390785456,-0.005794771946966648,0.0025656893849372864
1761315848653314300,1.684314208984375,0.007910121232271194,-0.0086590014398098,0.000657534459605813
1761315848663361300,1.694361328125,0.006030461750924587,-0.006917028222233057,0.002942793071269989
1761315848673408300,1.704408203125,0.006488259416073561,-0.007592672016471624,0.0023286680225282907
1761315848683455200,1.714455322265625,0.006947654765099287,-0.007369232829660177,0.0024647556710988283
1761315848693502200,1.724502197265625,0.010467820800840855,-0.008393218740820885,0.0028008464723825455
1761315848703550500,1.734550537109375,0.006416886579245329,-0.004841094370931387,0.0034730283077806234
1761315848713597200,1.74459716796875,0.007649930194020271,-0.006401706486940384,-0.0001680454588495195
1761315848723644200,1.75464404296875,0.008784436620771885,-0.007369765546172857,0.0017100156983360648
1761315848733691100,1.764691162109375,0.008066448383033276,-0.008839830756187439,0.002767024328932166
1761315848743738000,1.774738037109375,0.008586297743022442,-0.007720237597823143,0.0018791264155879617
1761315848753785300,1.784785400390625,0.009723734110593796,-0.007308512926101685,0.0018271948210895061
1761315848763832300,1.794832275390625,0.009818010032176971,-0.008285893127322197,-0.0007302387384697795
1761315848773879300,1.80487939453125,0.008711200207471848,-0.007169495802372694,0.000874582096002996
1761315848783926300,1.81492626953125,0.0073071811348199844,-0.0062243398278951645,0.0006162554491311312
1761315848793973200,1.82497314453125,0.007493868935853243,-0.009315737523138523,0.0008857673965394497
1761315848804020200,1.835020263671875,0.0070861391723155975,-0.007363906595855951,0.003227484878152609
1761315848814067500,1.8450673828125,0.00842917151749134,-0.008233162574470043,-0.00035206988104619086
1761315848824114400,1.855114501953125,0.00624165078625083,-0.009000951424241066,0.0007004113867878914
1761315848834161400,1.865161376953125,0.007379619404673576,-0.008552209474146366,0.0023883229587227106
1761315848844208000,1.8752080078125,0.005991579964756966,-0.00959590170532465,0.002956375014036894
1761315848854255000,1.885255126953125,0.008887501433491707,-0.007842742837965488,0.000483363721286878
1761315848864302300,1.89530224609375,0.008971123956143856,-0.0072943982668221,-0.000012783173588104546
1761315848874349300,1.905349365234375,0.007796670310199261,-0.006645119283348322,-0.0016050871927291155
1761315848884396300,1.915396240234375,0.006315952632576227,-0.010031328536570072,-0.00045300371129997075
1761315848894443300,1.925443359375,0.0051779840141534805,-0.005109807010740042,0.0009861685102805495
1761315848904490200,1.935490234375,0.0057375142350792885,-0.005819805897772312,0.002531334524974227
1761315848914532600,1.94553271484375,0.007796403951942921,-0.005520466715097427,-0.0009470200748182833
1761315848924579600,1.95557958984375,0.005842442624270916,-0.005422994960099459,0.0004170510219410062
1761315848934626600,1.96562646484375,0.0076240976341068745,-0.007000385317951441,0.002444781828671694
1761315848944673500,1.975673583984375,0.00694951880723238,-0.008529838174581528,0.0009110674145631492
1761315848954720500,1.985720458984375,0.008675247430801392,-0.006967894732952118,0.0034639735240489244
1761315848964767500,1.995767578125,0.008839830756187439,-0.007225155830383301,0.0007384945638477802
1761315848974814700,2.005814697265625,0.007949003018438816,-0.00634897593408823,0.002377403900027275
1761315848984861700,2.01586181640625,0.0062640211544930935,-0.0076059880666434765,-0.0022485069930553436
1761315848994908700,2.02590869140625,0.0076118470169603825,-0.0073599121533334255,0.002020540414378047
1761315849004955600,2.03595556640625,0.00717748561874032,-0.006159359123557806,0.0017920411191880703
1761315849015002400,2.04600244140625,0.008111988194286823,-0.008076568134129047,0.0012548814993351698
1761315849025049600,2.056049560546875,0.009399627335369587,-0.006589192897081375,0.0002788329729810357
1761315849035096600,2.0660966796875,0.008868592791259289,-0.008200671523809433,-0.0002724413643591106
1761315849045143600,2.0761435546875,0.008532501757144928,-0.0070216902531683445,0.0019883159548044205
1761315849055190500,2.0861904296875,0.010006295517086983,-0.006521282717585564,-0.0002055960358120501
1761315849065237500,2.096237548828125,0.007895473390817642,-0.008220911957323551,0.00021758026559837162
1761315849075284500,2.106284423828125,0.005660548806190491,-0.006713029928505421,0.0011092065833508968
1761315849085331700,2.116331787109375,0.006205964367836714,-0.008914665319025517,0.0049465554766356945
1761315849095378700,2.126378662109375,0.006213154643774033,-0.005242965184152126,0.0029675604309886694
1761315849105425700,2.13642578125,0.009320797398686409,-0.008526642806828022,0.001425057533197105
1761315849115472600,2.14647265625,0.007873635739088058,-0.0062403189949691296,0.0030391993932425976
1761315849125519600,2.15651953125,0.0071005201898515224,-0.008804943412542343,0.0052384380251169205
1761315849135566600,2.166566650390625,0.008491489104926586,-0.009239304810762405,0.004198473412543535
1761315849145613600,2.176613525390625,0.008263789117336273,-0.008406001143157482,0.0030064424499869347
1761315849155660500,2.18666064453125,0.006032059900462627,-0.00891173630952835,0.002922020386904478
1761315849165707500,2.19670751953125,0.006061354652047157,-0.007299990858882666,-0.00018961707246489823
1761315849175754500,2.20675439453125,0.006178267300128937,-0.006646983791142702,0.0022530341520905495
1761315849185801500,2.216801513671875,0.006193447392433882,-0.006293049547821283,0.0008335694437846541
1761315849195848400,2.226848388671875,0.005343100056052208,-0.007949003018438816,0.0013494236627593637
1761315849205895700,2.236895751953125,0.006620085798203945,-0.008174839429557323,0.002213885774835944
1761315849215942700,2.246942626953125,0.00800013542175293,-0.00782623142004013,0.00033209618413820863
1761315849225990700,2.25699072265625,0.009132245555520058,-0.006854976527392864,0.004287689458578825
1761315849236037400,2.267037353515625,0.00815220270305872,-0.0065649584867060184,0.0018730012234300375
1761315849246084400,2.27708447265625,0.006147907115519047,-0.0076030585914850235,0.002153698354959488
1761315849256131600,2.287131591796875,0.007222492713481188,-0.008476309478282928,0.0025832662358880043
1761315849266178600,2.297178466796875,0.007172957994043827,-0.007678425870835781,-0.0001853560097515583
1761315849276225500,2.3072255859375,0.008466721512377262,-0.0075607141479849815,0.00028762139845639467
1761315849286272500,2.3172724609375,0.009866745211184025,-0.008508799597620964,0.0014599448768422008
1761315849296319500,2.327319580078125,0.008102401159703732,-0.006535663735121489,0.0035278894938528538
1761315849306366700,2.33736669921875,0.008672850206494331,-0.00839588139206171,-0.0011262508342042565
1761315849316413700,2.34741357421875,0.009897105395793915,-0.00629091914743185,0.00177952426020056
1761315849326460700,2.357460693359375,0.007966846227645874,-0.006965231616050005,0.0031649006996303797
1761315849336507600,2.367507568359375,0.006328735966235399,-0.00632074661552906,0.0034107104875147343
1761315849346554600,2.3775546875,0.00891040451824665,-0.007641940843313932,0.0035326832439750433
1761315849356601600,2.3876015625,0.006554838269948959,-0.007956726476550102,0.002371012233197689
1761315849366648600,2.397648681640625,0.010087788105010986,-0.007436610758304596,0.0034879420418292284
1761315849376695600,2.407695556640625,0.008950884453952312,-0.006083725020289421,0.0016785904299467802
1761315849386742500,2.417742431640625,0.009149822406470776,-0.009879528544843197,0.003634682158008218
1761315849396789500,2.42778955078125,0.004837099462747574,-0.007931958884000778,0.0033161682076752186
1761315849406836500,2.43783642578125,0.008715461008250713,-0.0065740132704377174,0.0019052254501730204
1761315849416883500,2.447883544921875,0.006187322083860636,-0.007166299968957901,0.002888730727136135
1761315849426930700,2.4579306640625,0.008229433558881283,-0.00746031291782856,0.0017222663154825568
1761315849436977700,2.467977783203125,0.007759386207908392,-0.007902397774159908,0.001198955113068223
1761315849447024600,2.478024658203125,0.007694671396166086,-0.007467770017683506,-0.002499909373000264
1761315849457071600,2.488071533203125,0.00686110183596611,-0.009830792434513569,0.0024953819811344147
1761315849467118600,2.49811865234375,0.007995341904461384,-0.008228102698922157,0.0029116340447217226
1761315849477165600,2.50816552734375,0.0043502734042704105,-0.00669332267716527,0.0025073662400245667
1761315849487212500,2.518212646484375,0.009527991525828838,-0.007868043147027493,-0.0013883059145882726
1761315849497259500,2.528259521484375,0.008875250816345215,-0.009464075788855553,0.00108284130692482
1761315849507306500,2.538306396484375,0.007558051031082869,-0.007330351043492556,0.003185939509421587
1761315849517353500,2.548353515625,0.007191067561507225,-0.008904545567929745,0.0011880361707881093
1761315849527400400,2.558400390625,0.006170011591166258,-0.007848868146538734,0.0038285604678094387
1761315849537447400,2.568447509765625,0.00891200266778469,-0.008858206681907177,0.0006018743733875453
1761315849547494700,2.57849462890625,0.007841943763196468,-0.0079133166000247,0.004322843160480261
1761315849557541600,2.588541748046875,0.007795604877173901,-0.008787899278104305,0.002886067610234022
1761315849567588600,2.598588623046875,0.008282963186502457,-0.006930876523256302,0.005811816547065973
1761315849577635600,2.608635498046875,0.007222226355224848,-0.008044078014791012,-0.0015494271647185087
1761315849587682600,2.6186826171875,0.0060919807292521,-0.0063007730059325695,0.0019094864837825298
1761315849597729800,2.628729736328125,0.012293417938053608,-0.007668306119740009,0.001178448786959052
1761315849607776800,2.63877685546875,0.008547415025532246,-0.009275523945689201,0.002519882982596755
1761315849617823500,2.648823486328125,0.008778311312198639,-0.007221959996968508,0.0027321369852870703
1761315849627870500,2.658870361328125,0.005965214688330889,-0.0063210129737854,0.0026522420812398195
1761315849637917400,2.66891748046875,0.0054698665626347065,-0.007465639617294073,0.0019060244085267186
1761315849647964400,2.67896435546875,0.007066165097057819,-0.008011321537196636,0.0006655239267274737
1761315849658011600,2.68901171875,0.007863249629735947,-0.009895507246255875,0.0017193368403241038
1761315849668059600,2.6990595703125,0.008313589729368687,-0.006193980108946562,0.00148151651956141
1761315849678106600,2.709106689453125,0.007603857666254044,-0.00866379588842392,0.0005997438565827906
1761315849688153600,2.719153564453125,0.009972472675144672,-0.010029997676610947,0.0023904533591121435
1761315849698200600,2.72920068359375,0.005335377063602209,-0.006097307428717613,0.0022154836915433407
1761315849708247600,2.73924755859375,0.006392651703208685,-0.00754952896386385,0.00003302319601061754
1761315849718294500,2.74929443359375,0.007925567217171192,-0.008857141248881817,0.0024887239560484886
1761315849728341500,2.759341552734375,0.006446181330829859,-0.006043777801096439,0.00339153571985662
1761315849738388500,2.769388427734375,0.007119961082935333,-0.004453337751328945,0.0010644654976204038
1761315849748435500,2.779435546875,0.007255782373249531,-0.00860094465315342,0.001802693703211844
1761315849758482400,2.789482421875,0.007213970646262169,-0.006990797817707062,0.0009339706157334149
1761315849768529700,2.79952978515625,0.006371879018843174,-0.008021707646548748,0.0008929579053074121
1761315849778576600,2.80957666015625,0.0065106297843158245,-0.008204400539398193,0.001856223214417696
1761315849788623600,2.81962353515625,0.008235825225710869,-0.007246993947774172,0.0013555489713326097
1761315849798670600,2.829670654296875,0.011049721390008926,-0.008641424588859081,-0.00034914040588773787
1761315849808717600,2.839717529296875,0.009425725787878036,-0.008734902366995811,0.002138784620910883
1761315849818764800,2.849764892578125,0.006070409435778856,-0.006457100156694651,0.0021318604703992605
1761315849828811500,2.8598115234375,0.008798818103969097,-0.00711862975731492,0.001303351018577814
1761315849838858500,2.8698583984375,0.008068046532571316,-0.007927964441478252,0.002628007438033819
1761315849848905500,2.879905517578125,0.008905344642698765,-0.006395847536623478,0.0031225562561303377
1761315849858952400,2.889952392578125,0.006706904619932175,-0.006453904323279858,0.0022357236593961716
1761315849868999400,2.89999951171875,0.007731955498456955,-0.007901598699390888,0.0002985403698403388
1761315849879046700,2.910046630859375,0.008538627065718174,-0.0059843892231583595,0.0016871124971657991
1761315849889093600,2.92009375,0.008974053896963596,-0.007514108903706074,0.0015254586469382048
1761315849899140600,2.930140625,0.006088785361498594,-0.007759918924421072,0.0006359628750942647
1761315849909187600,2.9401875,0.005002748221158981,-0.007130347657948732,0.002157160546630621
1761315849919238400,2.95023828125,0.007754592224955559,-0.0064866612665355206,0.0034767568577080965
1761315849929285400,2.960285400390625,0.006118080113083124,-0.007847536355257034,0.004433896858245134
1761315849939332600,2.97033251953125,0.006572947837412357,-0.007758054416626692,0.0016580841038376093
1761315849949379300,2.98037939453125,0.006193713750690222,-0.00743155088275671,0.000595216522924602
1761315849959426300,2.99042626953125,0.005478388629853725,-0.006731139495968819,0.0017057546647265553
1761315849969473300,3.000473388671875,0.007925034500658512,-0.008158594369888306,0.0038778288289904594
1761315849979520300,3.010520263671875,0.007823302410542965,-0.008378038182854652,0.003823500359430909
1761315849989567500,3.0205673828125,0.003632285399362445,-0.006813164800405502,0.0003832288784906268
1761315849999614500,3.030614501953125,0.006937800906598568,-0.006589991971850395,0.0006000102148391306
1761315850009661400,3.040661376953125,0.007065366487950087,-0.005119660869240761,0.0003430151555221528
1761315850019708400,3.05070849609375,0.00857164990156889,-0.0070366039872169495,0.0007768440991640091
1761315850029755400,3.06075537109375,0.006214220076799393,-0.007792409509420395,0.002766757970675826
1761315850039802400,3.07080224609375,0.0073013221845030785,-0.0067814732901751995,0.0018482337472960353
1761315850049849600,3.080849609375,0.009062737226486206,-0.008156729862093925,-0.0005344964447431266
1761315850059896600,3.090896484375,0.008615858852863312,-0.008050469681620598,0.0037380128633230925
1761315850069943600,3.100943603515625,0.007281881291419268,-0.007684018462896347,0.000728907180018723
1761315850079990300,3.110990234375,0.0067966533824801445,-0.007156978826969862,0.0016937704058364034
1761315850090038300,3.121038330078125,0.008133294060826302,-0.006461361423134804,0.0007515440811403096
1761315850100085500,3.13108544921875,0.010200971737504005,-0.007237672805786133,0.0029518476221710443
1761315850110132500,3.141132568359375,0.008488825522363186,-0.006953513715416193,0.003721501212567091
1761315850120179500,3.151179443359375,0.008639294654130936,-0.006619553081691265,0.0015989618841558695
1761315850130226400,3.161226318359375,0.007382282521575689,-0.007447530049830675,0.0006095975404605269
1761315850140273400,3.1712734375,0.007218498270958662,-0.007875766605138779,0.0026674221735447645
1761315850150320400,3.1813203125,0.008303469978272915,-0.00827683787792921,0.0014532869681715965
1761315850160367600,3.19136767578125,0.006609166972339153,-0.010763165540993214,0.0017843178939074278
1761315850170414300,3.201414306640625,0.006054962985217571,-0.0092347776517272,0.001130245509557426
1761315850180461300,3.21146142578125,0.00817830115556717,-0.006963100749999285,0.0021057615522295237
1761315850190508300,3.22150830078125,0.007958590984344482,-0.0075964005663990974,0.0007544735562987626
1761315850200555300,3.23155517578125,0.006040049251168966,-0.007274158298969269,-0.0015952334506437182
1761315850210602500,3.2416025390625,0.007104780990630388,-0.006057626102119684,0.0023664848413318396
1761315850220649500,3.2516494140625,0.008117049001157284,-0.007423028815537691,0.0005062668933533132
1761315850230696400,3.261696533203125,0.008046208880841732,-0.006013950332999229,0.001243696198798716
1761315850240743400,3.271743408203125,0.007631287910044193,-0.008825182914733887,0.0025457157753407955
1761315850250790400,3.281790283203125,0.006352438125759363,-0.007160707376897335,0.0017648768844082952
1761315850260837400,3.29183740234375,0.006283462047576904,-0.007002515718340874,0.0006641923682764173
1761315850270884600,3.301884521484375,0.006387858185917139,-0.006915696896612644,0.0022272015921771526
1761315850280931600,3.311931640625,0.007696269080042839,-0.010060356929898262,0.0008740494376979768
1761315850290978300,3.321978271484375,0.008264055475592613,-0.00959643442183733,0.003769704606384039
1761315850301025300,3.332025390625,0.006334861274808645,-0.008988967165350914,0.0002495381922926754
1761315850311072300,3.342072265625,0.007485346868634224,-0.007499727886170149,0.0008578042034059763
1761315850321119200,3.352119140625,0.0067782774567604065,-0.007739678490906954,0.001454884884878993
1761315850331166500,3.36216650390625,0.008764995262026787,-0.006042712368071079,0.0009347695158794522
1761315850341213400,3.37221337890625,0.007259777281433344,-0.008626511320471764,0.0010689928894862533
1761315850351260400,3.382260498046875,0.008382033556699753,-0.0070853400975465775,0.0032149681355804205
1761315850361307400,3.392307373046875,0.009166333824396133,-0.005962018854916096,0.0038365498185157776
1761315850371354400,3.402354248046875,0.007725830189883709,-0.009579656645655632,0.002924150787293911
1761315850381401300,3.4124013671875,0.006708502769470215,-0.0076882797293365,0.0006831008358858526
1761315850391448600,3.422448486328125,0.008235825225710869,-0.007266967557370663,0.003311907174065709
1761315850401495600,3.43249560546875,0.008016381412744522,-0.006069344002753496,0.00024341292737517506
1761315850411542500,3.44254248046875,0.007780957501381636,-0.007503190077841282,0.0022397185675799847
1761315850421589200,3.45258935546875,0.009736250154674053,-0.00848270021378994,0.001085504423826933
1761315850431636200,3.46263623046875,0.009438509121537209,-0.007781490217894316,0.0035630431957542896
1761315850441683200,3.47268310546875,0.00657587731257081,-0.00887711439281702,0.0016556872287765145
1761315850451730400,3.48273046875,0.0073322150856256485,-0.007267233915627003,0.0011478224769234657
1761315850461777400,3.49277734375,0.008080297149717808,-0.010032926686108112,0.0046304380521178246
1761315850471824400,3.502824462890625,0.007438208907842636,-0.008506136015057564,0.0017707358347252011
1761315850481871400,3.512871337890625,0.009157013148069382,-0.007784153334796429,0.0012538161827251315
1761315850491918300,3.52291845703125,0.005601959303021431,-0.008647283539175987,0.0035862126387655735
1761315850501965300,3.53296533203125,0.006709834095090628,-0.00894023198634386,0.003329217666760087
1761315850512012500,3.543012451171875,0.007582818623632193,-0.007696801796555519,0.004418450407683849
1761315850522060300,3.553060302734375,0.006188653875142336,-0.008185225538909435,0.003722566645592451
1761315850532107300,3.563107177734375,0.007452589925378561,-0.007949269376695156,0.0019177423091605306
1761315850542154200,3.573154296875,0.005270395893603563,-0.008714661933481693,0.0025329324416816235
1761315850552201500,3.583201416015625,0.005723133217543364,-0.006179066374897957,0.0035742283798754215
1761315850562248400,3.59324853515625,0.009072590619325638,-0.006305566523224115,0.0036599822342395782
1761315850572295400,3.60329541015625,0.008361793123185635,-0.007364705670624971,0.0037257622461766005
1761315850582342400,3.61334228515625,0.009787649847567081,-0.007398527581244707,0.00013315805699676275
1761315850592389400,3.623389404296875,0.006625944748520851,-0.00794687308371067,0.0030897995457053185
1761315850602436400,3.633436279296875,0.006892793346196413,-0.00893570389598608,0.0015773903578519821
1761315850612483600,3.643483642578125,0.007589210290461779,-0.010402040556073189,0.0018410432385280728
1761315850622530600,3.653530517578125,0.005549761466681957,-0.009765013121068478,0.00273693073540926
1761315850632577500,3.66357763671875,0.007646468002349138,-0.007227020338177681,0.0034908715169876814
1761315850642624300,3.673624267578125,0.009998838417232037,-0.005826197564601898,0.003108974313363433
1761315850652671200,3.683671142578125,0.008216651156544685,-0.005909288302063942,0.0007832356495782733
1761315850662718200,3.69371826171875,0.007663245778530836,-0.007968178018927574,0.0025366609916090965
1761315850672765400,3.703765380859375,0.008184426464140415,-0.00899855513125658,0.0018279937794432044
1761315850682812400,3.7138125,0.005387042183429003,-0.006673881784081459,0.002981142606586218
1761315850692859400,3.723859375,0.0073079802095890045,-0.007287473883479834,0.0015267902053892612
1761315850702906400,3.73390625,0.00800040178000927,-0.0079173119738698,0.001291100517846644
1761315850712953300,3.743953369140625,0.008440356701612473,-0.007709318771958351,0.00016005597717594355
1761315850723000300,3.754000244140625,0.005391569808125496,-0.005632319487631321,0.0013206616276875138
1761315850733047600,3.764047607421875,0.005557484459131956,-0.007484281435608864,0.001127848750911653
1761315850743094500,3.774094482421875,0.0054576159454882145,-0.00902571901679039,0.0006407565670087934
1761315850753141500,3.7841416015625,0.006506102625280619,-0.007734085898846388,0.004295412451028824
1761315850763188500,3.7941884765625,0.00771650904789567,-0.007197725586593151,0.001415736391209066
1761315850773235200,3.804235107421875,0.007772435434162617,-0.006000900641083717,0.002232261700555682
1761315850783282400,3.814282470703125,0.008015049621462822,-0.008904811926186085,0.0010125337867066264
1761315850793329400,3.824329345703125,0.008374043740332127,-0.01019591186195612,0.00013502225920092314
1761315850803376400,3.83437646484375,0.006030461750924587,-0.00700730923563242,0.0027017768006771803
1761315850813423400,3.84442333984375,0.005200354848057032,-0.0073170349933207035,0.003168362658470869
1761315850823470300,3.85447021484375,0.0067628310061991215,-0.009515208192169666,0.0024780714884400368
1761315850833517300,3.864517333984375,0.0038898130878806114,-0.008805742487311363,0.0037209687288850546
1761315850843564500,3.874564453125,0.005297559779137373,-0.00845686811953783,0.0006825681775808334
1761315850853611500,3.884611572265625,0.007209443487226963,-0.007153250742703676,0.0005579322460107505
1761315850863658500,3.894658447265625,0.006162022240459919,-0.008382831700146198,0.000919323181733489
1761315850873705500,3.90470556640625,0.007559915538877249,-0.008978314697742462,0.0012144014472141862
1761315850883752400,3.91475244140625,0.0060051619075238705,-0.007433947641402483,-0.0014900385867804289
1761315850893799400,3.92479931640625,0.0060150157660245895,-0.007500526960939169,0.0019592875614762306
1761315850903846400,3.934846435546875,0.008917328901588917,-0.008856608532369137,0.0014887070283293724
1761315850913893400,3.944893310546875,0.00805925764143467,-0.00672288378700614,0.0017973673529922962
1761315850923936500,3.9549365234375,0.00851545762270689,-0.007127418182790279,0.0005065332516096532
1761315850933983500,3.9649833984375,0.009882458485662937,-0.007813980802893639,0.0005986785981804132
1761315850944030500,3.975030517578125,0.006442186422646046,-0.009765811264514923,0.0014173343079164624
1761315850954077400,3.985077392578125,0.007933290675282478,-0.007339405361562967,0.001883121207356453
1761315850964124400,3.99512451171875,0.005548163317143917,-0.009180182591080666,-0.0012096078135073185
1761315850974171600,4.005171630859375,0.007127950433641672,-0.01002014335244894,0.0023060310631990433
1761315850984218600,4.015218505859375,0.008176171220839024,-0.011748800985515118,0.0011944277212023735
1761315850994266600,4.0252666015625,0.007189203519374132,-0.008226770907640457,0.0024051007349044085
1761315851004313300,4.035313232421875,0.009154615923762321,-0.009816411882638931,0.0005973470397293568
1761315851014360300,4.0453603515625,0.006013417616486549,-0.007860852405428886,-0.0003760383406188339
1761315851024407600,4.055407470703125,0.00663553224876523,-0.0048948898911476135,0.00213532242923975
1761315851034454500,4.06545458984375,0.007890413515269756,-0.007253119256347418,0.0013920343481004238
1761315851044501500,4.07550146484375,0.003953995183110237,-0.008677910082042217,0.0015986956423148513
1761315851054548500,4.085548583984375,0.01008113007992506,-0.007553790230304003,-0.00040240364614874125
1761315851064595500,4.095595458984375,0.00580888707190752,-0.005948170088231564,0.0024000408593565226
1761315851074642400,4.105642333984375,0.007879761047661304,-0.00882038939744234,0.002217081608250737
1761315851084689700,4.115689697265625,0.007317834068089724,-0.00851519126445055,0.0006500775925815105
1761315851094736600,4.125736572265625,0.006373743526637554,-0.004954012110829353,0.003337473375722766
1761315851104783600,4.13578369140625,0.0062341936863958836,-0.006955644115805626,-0.00028868665685877204
1761315851114830600,4.14583056640625,0.004996356554329395,-0.008131429553031921,-0.00017097493400797248
1761315851124877600,4.155877685546875,0.00501047121360898,-0.007443268783390522,0.00017470336752012372
1761315851134924300,4.16592431640625,0.007690410129725933,-0.008915730752050877,0.0015936355339363217
1761315851144971500,4.175971435546875,0.007527690846472979,-0.00768721429631114,0.0005856291390955448
1761315851155018500,4.1860185546875,0.008584699593484402,-0.007465905509889126,0.00026525085559114814
1761315851165065500,4.1960654296875,0.007504787761718035,-0.008403871208429337,0.0028186896815896034
1761315851175112400,4.206112548828125,0.007930893450975418,-0.008097874000668526,0.000609863898716867
1761315851185159400,4.216159423828125,0.007485080510377884,-0.008084824308753014,0.0013137373607605696
1761315851195206700,4.22620654296875,0.007135940250009298,-0.007187072653323412,-0.00010412959818495438
1761315851205253600,4.236253662109375,0.006500510033220053,-0.009545035660266876,-0.0000045273736759554595
1761315851215300600,4.246300537109375,0.007818241603672504,-0.009059807285666466,-0.0003861583536490798
1761315851225347600,4.25634765625,0.006078132428228855,-0.007132478058338165,0.0006487460341304541
1761315851235394600,4.26639453125,0.00974610447883606,-0.00899722333997488,0.0006801713607273996
1761315851245441500,4.276441650390625,0.006623547989875078,-0.0065801385790109634,0.0007182545377872884
1761315851255488500,4.286488525390625,0.008380968123674393,-0.0068360683508217335,0.00010972223390126601
1761315851265535500,4.296535400390625,0.007487477269023657,-0.005595567636191845,0.0004844290087930858
1761315851275582500,4.30658251953125,0.008584965951740742,-0.006591323763132095,0.002142246812582016
1761315851285629400,4.31662939453125,0.006310892757028341,-0.006593187805265188,0.003750795964151621
1761315851295676400,4.326676513671875,0.007896538823843002,-0.008552209474146366,0.003653324441984296
1761315851305723400,4.336723388671875,0.0068326061591506,-0.009438509121537209,0.0012777847005054355
1761315851315770600,4.3467705078125,0.00842730700969696,-0.009063802659511566,0.0013526194961741567
1761315851325817600,4.356817626953125,0.006200371775776148,-0.006074403878301382,-0.0012514194240793586
1761315851335864600,4.366864501953125,0.0049588060937821865,-0.008183627389371395,0.0023960459511727095
1761315851345911600,4.37691162109375,0.006897853687405586,-0.00765818590298295,0.001281779375858605
1761315851355958500,4.38695849609375,0.008024370297789574,-0.008595884777605534,0.0028852687682956457
1761315851366005500,4.397005615234375,0.0059694754891097546,-0.008796953596174717,0.0046815709210932255
1761315851376052700,4.407052734375,0.006364688742905855,-0.00657667638733983,0.0022690133191645145
1761315851386099500,4.417099365234375,0.008101069368422031,-0.008622516877949238,0.002638659905642271
1761315851396146400,4.427146484375,0.009037969633936882,-0.00806378573179245,0.0014381069922819734
1761315851406193400,4.437193359375,0.006530869752168655,-0.006607568822801113,0.002898584585636854
1761315851416240400,4.447240478515625,0.007686149328947067,-0.0094507597386837,-0.0011382350930944085
1761315851426287400,4.457287353515625,0.008948753587901592,-0.00881985668092966,0.0027771443128585815
1761315851436334600,4.46733447265625,0.008505870588123798,-0.00788375549018383,0.0028245486319065094
1761315851446381600,4.477381591796875,0.0068312743678689,-0.009979397058486938,0.004069043789058924
1761315851456428500,4.487428466796875,0.008776979520916939,-0.007209177128970623,-0.00016165387933142483
1761315851466475500,4.4974755859375,0.0068094367161393166,-0.009494967758655548,0.002569417702034116
1761315851476522500,4.5075224609375,0.007497597485780716,-0.005285043269395828,-0.0003102582704741508
1761315851486569700,4.51756982421875,0.007785751484334469,-0.008888034150004387,0.0010266485624015331
1761315851496616700,4.52761669921875,0.008237689733505249,-0.007731422781944275,0.0017827199772000313
1761315851506664400,4.53766455078125,0.010012686252593994,-0.0070975907146930695,0.00140987744089216
1761315851516711400,4.54771142578125,0.005516205448657274,-0.010043845511972904,0.002823749789968133
1761315851526758400,4.55775830078125,0.007378287613391876,-0.007909055799245834,0.0027337349019944668
1761315851536805600,4.5678056640625,0.007517571095377207,-0.007674697786569595,0.00015233281010296196
1761315851546852600,4.5778525390625,0.007024353835731745,-0.008981244638562202,0.0024799355305731297
1761315851556899600,4.587899658203125,0.006714095361530781,-0.006428604479879141,0.003739877138286829
1761315851566946600,4.597946533203125,0.009216401726007462,-0.006443784572184086,0.00045833003241568804
1761315851576993500,4.60799365234375,0.006448311731219292,-0.008651278913021088,0.002950782421976328
1761315851587040500,4.61804052734375,0.0067481836304068565,-0.009546900168061256,0.0017297230660915375
1761315851597087700,4.628087646484375,0.007928230799734592,-0.007673365995287895,0.0017329188995063305
1761315851607134500,4.638134521484375,0.007670702878385782,-0.0076512619853019714,-0.00033875409280881286
1761315851617181400,4.648181396484375,0.008249940350651741,-0.008173241280019283,0.0035510589368641376
1761315851627228400,4.658228515625,0.007891478948295116,-0.007081345189362764,0.0018783274572342634
1761315851637275400,4.668275390625,0.004020041786134243,-0.007215834688395262,0.00307568465359509
1761315851647322400,4.678322265625,0.005041896365582943,-0.008274707943201065,0.002513491315767169
1761315851657369600,4.68836962890625,0.006205165293067694,-0.008495483547449112,0.002433596644550562
1761315851667416600,4.69841650390625,0.006187055725604296,-0.006922354456037283,0.0031790153589099646
1761315851677463600,4.708463623046875,0.006743922829627991,-0.005998503882437944,0.0017901768442243338
1761315851687510500,4.718510498046875,0.008070975542068481,-0.008667790330946445,0.0018916432745754719
1761315851697557500,4.7285576171875,0.005170527379959822,-0.00800359807908535,0.0035063179675489664
1761315851707604700,4.738604736328125,0.007987619377672672,-0.006162554491311312,0.000624777574557811
1761315851717651700,4.748651611328125,0.008048871532082558,-0.005793174263089895,0.0021963089238852262
1761315851727698700,4.75869873046875,0.006169745232909918,-0.007877630181610584,0.00364666641689837
1761315851737745400,4.768745361328125,0.008740228600800037,-0.007266434840857983,0.0018279937794432044
1761315851747792400,4.77879248046875,0.00857351440936327,-0.007750864140689373,0.000511593243572861
1761315851757839400,4.78883935546875,0.009041964076459408,-0.0080912159755826,0.00013502225920092314
1761315851767886600,4.798886474609375,0.009071525186300278,-0.007938084192574024,0.0033342777751386166
1761315851777933600,4.80893359375,0.010203635320067406,-0.007952732034027576,0.0015563513152301311
1761315851787980500,4.81898046875,0.00654551712796092,-0.004250404890626669,0.0036703685764223337
1761315851798027500,4.829027587890625,0.006215019151568413,-0.00842943787574768,0.003099919529631734
1761315851808074500,4.839074462890625,0.007456851191818714,-0.005398227367550135,0.002444781828671694
1761315851818121500,4.84912158203125,0.006369482260197401,-0.007514641620218754,0.0024088292848318815
1761315851828168700,4.859168701171875,0.007625162601470947,-0.006649646908044815,0.003625627374276519
1761315851838215700,4.869215576171875,0.009236108511686325,-0.006364156026393175,0.00019520970818120986
1761315851848262700,4.8792626953125,0.008290953002870083,-0.008057127706706524,0.000621848099399358
1761315851858309600,4.8893095703125,0.008081895299255848,-0.008175372146070004,0.0026192190125584602
1761315851868356400,4.8993564453125,0.006332730874419212,-0.006423544604331255,0.001050350721925497
1761315851878403300,4.9094033203125,0.006915696896612644,-0.008081362582743168,0.0030333404429256916
1761315851888450600,4.919450439453125,0.0065199509263038635,-0.007253385614603758,0.003597131697461009
1761315851898497500,4.92949755859375,0.006877879612147808,-0.005322593729943037,0.0018783274572342634
1761315851908544500,4.93954443359375,0.005506617948412895,-0.005479720421135426,0.0009158611064776778
1761315851918596000,4.94959619140625,0.006375873927026987,-0.007107177749276161,0.0003020024741999805
1761315851928643000,4.95964306640625,0.0074030552059412,-0.0067697553895413876,0.0005611280212178826
1761315851938690300,4.969690185546875,0.009530920535326004,-0.008886968716979027,0.0023401195649057627
1761315851948737000,4.979737060546875,0.007407848723232746,-0.007170827593654394,0.00012490226072259247
1761315851958784000,4.989783935546875,0.008285094052553177,-0.00714606000110507,0.0023196132387965918
1761315851968831000,4.9998310546875,0.006425142288208008,-0.00782703049480915,0.0016668725293129683
1761315851978877200,5.009877197265625,0.006646717432886362,-0.008508799597620964,0.00261895265430212
1761315851988924000,5.019923828125,0.010230532847344875,-0.007800132501870394,0.0015640745405107737
1761315851998971000,5.029970947265625,0.008195345290005207,-0.008498946204781532,0.002002164488658309
1761315852009018000,5.04001806640625,0.008831840939819813,-0.007210508454591036,0.0006016080733388662
1761315852019065000,5.050065185546875,0.009324525482952595,-0.006904511246830225,0.003032541600987315
1761315852029112000,5.060112060546875,0.006621151231229305,-0.006680539343506098,0.0016945693641901016
1761315852039159000,5.070158935546875,0.006854976527392864,-0.0062424493953585625,0.0025688852183520794
1761315852049206000,5.0802060546875,0.006469617132097483,-0.007005178835242987,0.0032738239970058203
1761315852059253000,5.0902529296875,0.006083991378545761,-0.009416937828063965,-0.00040266994619742036
1761315852069300200,5.10030029296875,0.00759906368330121,-0.007001450285315514,0.0005257080192677677
1761315852079347200,5.11034716796875,0.006120476871728897,-0.008218514733016491,0.002428004052489996
1761315852089394200,5.120394287109375,0.005759884603321552,-0.007375890854746103,0.0014950985787436366
1761315852099441200,5.130441162109375,0.007907724007964134,-0.005569468718022108,0.002261023735627532
1761315852109488000,5.140488037109375,0.007386011071503162,-0.00860041193664074,0.002385659608989954
1761315852119534800,5.150534912109375,0.007862983271479607,-0.006997189484536648,0.00003222424857085571
1761315852129582000,5.16058203125,0.006222742144018412,-0.007228085305541754,0.0030389330349862576
1761315852139629000,5.170629150390625,0.009984723292291164,-0.006696784868836403,0.00033396040089428425
1761315852149676000,5.180676025390625,0.00908564031124115,-0.006512227933853865,-0.0010721886064857244
1761315852159723000,5.190722900390625,0.005589975044131279,-0.00842810608446598,-0.00031132352887652814
1761315852169770000,5.20077001953125,0.008356200531125069,-0.007032875902950764,0.001683650421909988
1761315852179817000,5.21081689453125,0.00628932099789381,-0.0073623089119791985,0.0006471481174230576
1761315852189864200,5.2208642578125,0.006640858482569456,-0.008553806692361832,0.002030926523730159
1761315852199911200,5.2309111328125,0.008680573664605618,-0.008111190050840378,0.002740126335993409
1761315852209958100,5.240958251953125,0.0059931776486337185,-0.008730107918381691,0.0026519757229834795
1761315852220005000,5.251005126953125,0.0073599121533334255,-0.005056543741375208,0.003254649229347706
1761315852230052000,5.261052001953125,0.007808388210833073,-0.006614759564399719,0.0006415555253624916
1761315852240099000,5.27109912109375,0.007900799624621868,-0.008384163491427898,0.0010628675809130073
1761315852250146000,5.28114599609375,0.006150037981569767,-0.0065018413588404655,0.003718838095664978
1761315852260193000,5.291193115234375,0.005545766558498144,-0.006974552292376757,-0.001814944320358336
1761315852270240000,5.301239990234375,0.007513576187193394,-0.0068235513754189014,0.0003326288133393973
1761315852280287000,5.311286865234375,0.010378604754805565,-0.009097890928387642,0.0014620753936469555
1761315852290334000,5.321333984375,0.006894391495734453,-0.009621202014386654,0.0017222663154825568
1761315852300381200,5.331381103515625,0.009839581325650215,-0.006783337332308292,0.002953445538878441
1761315852310428200,5.34142822265625,0.010842527262866497,-0.00629065278917551,-0.0011797803454101086
1761315852320475100,5.35147509765625,0.008232629857957363,-0.008963667787611485,-0.0011749867117032409
1761315852330522000,5.361522216796875,0.007788414601236582,-0.008852347731590271,-0.0008159925346262753
1761315852340569000,5.371569091796875,0.006956709548830986,-0.006777478381991386,0.0017992316279560328
1761315852350616000,5.381615966796875,0.010447847656905651,-0.008568454533815384,0.0024351945612579584
1761315852360663300,5.391663330078125,0.008356466889381409,-0.008489091880619526,0.000502804818097502
1761315852370710000,5.4017099609375,0.007553523872047663,-0.0075878784991800785,0.0019294602097943425
1761315852380757000,5.411757080078125,0.00780652416869998,-0.007872037589550018,0.00004021373388241045
1761315852390804000,5.421803955078125,0.009245696477591991,-0.007556453347206116,0.00105301383882761
1761315852400851000,5.431850830078125,0.007434746716171503,-0.009983657859265804,0.0037760960403829813
1761315852410898000,5.44189794921875,0.007010771427303553,-0.007820638827979565,-0.00003861583536490798
1761315852420945200,5.451945068359375,0.005592638161033392,-0.007014499977231026,0.0016769925132393837
1761315852430992100,5.4619921875,0.005030178464949131,-0.006926083005964756,0.0009898969437927008
1761315852441039000,5.4720390625,0.00461685610935092,-0.008069111965596676,0.0009339706157334149
1761315852451086000,5.482086181640625,0.007715177722275257,-0.0076003954745829105,0.004089283756911755
1761315852461133000,5.492133056640625,0.0060211410745978355,-0.007348726503551006,0.0017536915838718414
1761315852471180000,5.502179931640625,0.00495081627741456,-0.0076363482512533665,0.001237571006640792
1761315852481227300,5.512227294921875,0.00538384635001421,-0.006945790257304907,0.0027603665366768837
1761315852491274200,5.522274169921875,0.0064863949082791805,-0.007653658743947744,0.00022130868455860764
1761315852501321000,5.532321044921875,0.005887716542929411,-0.005952964071184397,0.002644518855959177
1761315852511368000,5.542367919921875,0.007000385317951441,-0.007642739452421665,0.003180346917361021
1761315852521415000,5.552414794921875,0.005631254054605961,-0.008767925202846527,0.0051934304647147655
1761315852531462000,5.5624619140625,0.006281065288931131,-0.006345247384160757,0.0012013519881293178
1761315852541509000,5.572509033203125,0.005319397896528244,-0.008038219064474106,0.002062085550278425
1761315852551556000,5.58255615234375,0.007318100426346064,-0.008583367802202702,0.002662628423422575
1761315852561603000,5.59260302734375,0.009736516512930393,-0.006912766955792904,0.00324799120426178
1761315852571650000,5.602650146484375,0.006972421891987324,-0.008788165636360645,0.002296976512297988
1761315852581698300,5.6126982421875,0.008391354233026505,-0.0064387246966362,0.0013294500531628728
1761315852591745000,5.6227451171875,0.00814794097095728,-0.007504787761718035,0.0030887341126799583
1761315852601792000,5.6327919921875,0.011087272316217422,-0.007214769721031189,0.0010892328573390841
1761315852611839000,5.6428388671875,0.008475244045257568,-0.009545568376779556,0.0034051176626235247
1761315852621886000,5.652885986328125,0.0065383268520236015,-0.006905043963342905,0.002275937469676137
1761315852631933000,5.662932861328125,0.008360727690160275,-0.005556685384362936,0.0016085492679849267
1761315852641980200,5.672980224609375,0.007458448875695467,-0.006685866042971611,0.0004474110610317439
1761315852652027100,5.683027099609375,0.0062219430692493916,-0.007957259193062782,0.00030360036180354655
1761315852662074000,5.69307421875,0.00891120359301567,-0.008975119329988956,0.000037550569686573
1761315852672121000,5.70312109375,0.006013417616486549,-0.00637960247695446,-0.000728907180018723
1761315852682168000,5.71316796875,0.0059814597479999065,-0.006953780073672533,0.0016421051695942879
1761315852692215000,5.723215087890625,0.00663499953225255,-0.007468569092452526,0.0006607302348129451
1761315852702262300,5.73326220703125,0.007208910770714283,-0.006336458958685398,0.0034080471377819777
1761315852712309200,5.743309326171875,0.006842193193733692,-0.009375658817589283,0.002367816399782896
1761315852722356000,5.75335595703125,0.0065164887346327305,-0.005022189114242792,0.0006314354832284153
1761315852732403000,5.76340283203125,0.007494668010622263,-0.008009190671145916,0.004032824654132128
1761315852742450000,5.773449951171875,0.004742024466395378,-0.008962602354586124,0.0023608922492712736
1761315852752497000,5.783496826171875,0.00714579364284873,-0.007404919248074293,0.0041183121502399445
1761315852762544000,5.793544189453125,0.006726612336933613,-0.008390288800001144,0.002207760466262698
1761315852772591000,5.803591064453125,0.005143363028764725,-0.007425159215927124,0.005410211626440287
1761315852782638000,5.81363818359375,0.00624058535322547,-0.006329268682748079,0.003090864745900035
1761315852792685000,5.82368505859375,0.006016879808157682,-0.007014766335487366,0.001044758129864931
1761315852802732000,5.83373193359375,0.006841128226369619,-0.0064773401245474815,0.0037409423384815454
1761315852812780000,5.843780029296875,0.008101602084934711,-0.006933805998414755,0.0017901768442243338
1761315852822826200,5.853826171875,0.007553790230304003,-0.008903213776648045,0.003784351982176304
1761315852832874000,5.8638740234375,0.007656055502593517,-0.006265352945774794,0.0021853898651897907
1761315852842921000,5.8739208984375,0.008188155479729176,-0.006417952012270689,0.00008122641156660393
1761315852852968000,5.883968017578125,0.007564975414425135,-0.009852364659309387,0.0014271880500018597
1761315852863015200,5.89401513671875,0.009166333824396133,-0.00649731419980526,0.0026612968649715185
1761315852873062100,5.904062255859375,0.007381483446806669,-0.00688986387103796,0.0013930995482951403
1761315852883109000,5.914109130859375,0.007439540233463049,-0.008975385688245296,0.002225870033726096
1761315852893156000,5.924156005859375,0.009909089654684067,-0.009407616220414639,0.00196381495334208
1761315852903203000,5.934203125,0.009398561902344227,-0.006040315609425306,0.001508414396084845
1761315852913250000,5.94425,0.008942095562815666,-0.007976433262228966,0.0022570290602743626
1761315852923293200,5.954293212890625,0.008570052683353424,-0.008784170262515545,0.0012335762148723006
1761315852933340200,5.964340087890625,0.007297061383724213,-0.008390288800001144,0.0016953683225437999
1761315852943387400,5.974387451171875,0.00875034835189581,-0.005819805897772312,0.002430667169392109
1761315852953434000,5.98443408203125,0.009518936276435852,-0.00791624654084444,0.0006458165589720011
1761315852963481000,5.994481201171875,0.007441138383001089,-0.00881160143762827,-0.0005054679932072759
1761315852973528000,6.004528076171875,0.006611297372728586,-0.008076302707195282,0.002549710450693965
1761315852983575000,6.014574951171875,0.0063063655979931355,-0.008158061653375626,-0.0011171960504725575
1761315852993622000,6.0246220703125,0.006750314496457577,-0.006567355245351791,0.0002767024270724505
1761315853003669200,6.034669189453125,0.00560968229547143,-0.007393201347440481,0.0013243899447843432
1761315853013716200,6.04471630859375,0.007303186692297459,-0.008529040031135082,0.0002980077115353197
1761315853023763200,6.05476318359375,0.005932191386818886,-0.01059272326529026,0.002139050979167223
1761315853033810200,6.06481005859375,0.007155114784836769,-0.008817194029688835,0.0027771443128585815
1761315853043857200,6.074857177734375,0.008220112882554531,-0.010854245163500309,-0.00016671388584654778
1761315853053904100,6.084904052734375,0.005877862684428692,-0.008293882943689823,-0.0002998719282913953
1761315853063951400,6.094951416015625,0.006570817437022924,-0.008656072430312634,-0.0002817624481394887
1761315853073998300,6.104998291015625,0.003491936717182398,-0.007919974625110626,-0.0002348908019484952
1761315853084045000,6.115045166015625,0.007966579869389534,-0.01005103625357151,0.0015939018921926618
1761315853094092000,6.125092041015625,0.009009473957121372,-0.008156463503837585,0.00221947836689651
1761315853104139000,6.135138916015625,0.007903463207185268,-0.005820604972541332,0.0015691345324739814
1761315853114186000,6.14518603515625,0.007394000422209501,-0.0062637547962367535,0.0015462313313037157
1761315853124233200,6.155233154296875,0.011315505020320415,-0.0070949275977909565,0.0009446232579648495
1761315853134280200,6.1652802734375,0.0088789789006114,-0.008472846820950508,-0.001856489572674036
1761315853144327200,6.1753271484375,0.010295514017343521,-0.008347677998244762,0.0034349451307207346
1761315853154374100,6.1853740234375,0.007369765546172857,-0.00845846626907587,0.0034932682756334543
1761315853164421000,6.195421142578125,0.007865645922720432,-0.00498117646202445,0.0029531794134527445
1761315853174468000,6.205468017578125,0.006804909091442823,-0.00836791843175888,0.00264824740588665
1761315853184515300,6.215515380859375,0.008923720568418503,-0.007604124024510384,0.002852511825039983
1761315853194562300,6.225562255859375,0.009316536597907543,-0.0062483083456754684,-0.0012548814993351698
1761315853204609300,6.235609375,0.006343916058540344,-0.01004997082054615,-0.0008847020799294114
1761315853214656000,6.245656005859375,0.008022506721317768,-0.008560464717447758,-0.00016671388584654778
1761315853224703000,6.255702880859375,0.006619286723434925,-0.007848335430026054,-0.0014732606941834092
1761315853234750200,6.265750244140625,0.008980711922049522,-0.00654551712796092,0.000013582121027866378
1761315853244797200,6.275797119140625,0.007920773699879646,-0.007517837453633547,0.002251968951895833
1761315853254844200,6.28584423828125,0.005253617651760578,-0.005915945861488581,0.000556334329303354
1761315853264891100,6.29589111328125,0.006134591531008482,-0.008387093432247639,0.002785400254651904
1761315853274938000,6.305938232421875,0.0062485747039318085,-0.006729808170348406,0.000969656917732209
1761315853284985000,6.315985107421875,0.005819805897772312,-0.006563626695424318,0.005570534151047468
1761315853295032300,6.3260322265625,0.006900783162564039,-0.005992112215608358,0.0014514228096231818
1761315853305079300,6.336079345703125,0.009068063460290432,-0.007447796408087015,0.0030629015527665615
1761315853315126300,6.346126220703125,0.008015049621462822,-0.008867260999977589,0.0031182952225208282
1761315853325173200,6.35617333984375,0.006432066671550274,-0.007625695317983627,-0.0013126720441505313
1761315853335220200,6.36622021484375,0.008244081400334835,-0.005932724103331566,0.0016429040115326643
1761315853345267000,6.376266845703125,0.004594219382852316,-0.009473662823438644,0.003561445279046893
1761315853355314200,6.386314208984375,0.004433364141732454,-0.008328237570822239,0.0004985437262803316
1761315853365361200,6.396361083984375,0.009956760331988335,-0.008301072753965855,0.000559263804461807
1761315853375408000,6.406408203125,0.007821704261004925,-0.009039301425218582,0.0031036478467285633
1761315853385455000,6.416455078125,0.0070888022892177105,-0.007032609544694424,0.0010490191634744406
1761315853395502000,6.426502197265625,0.008799350820481777,-0.006445382256060839,-0.00007243797881528735
1761315853405549000,6.436549072265625,0.006688262801617384,-0.008138353936374187,0.0006311691831797361
1761315853415596300,6.44659619140625,0.007242200430482626,-0.008350607939064503,0.0022596921771764755
1761315853425643300,6.456643310546875,0.00814900640398264,-0.008521582931280136,0.003637611633166671
1761315853435690200,6.466690185546875,0.007740477565675974,-0.008868859149515629,0.002974750939756632
1761315853445737200,6.4767373046875,0.008861668407917023,-0.00751996785402298,0.0036019254475831985
1761315853455784200,6.4867841796875,0.007019559852778912,-0.006443784572184086,0.0006447513005696237
1761315853465831200,6.4968310546875,0.008436894044280052,-0.0049553439021110535,0.0016375777777284384
1761315853475878100,6.506878173828125,0.007389472797513008,-0.00694871973246336,0.003061303636059165
1761315853485925000,6.516925048828125,0.007198524195700884,-0.0038685076870024204,0.002892192918807268
1761315853495972000,6.52697216796875,0.008312790654599667,-0.007833954878151417,0.003977430984377861
1761315853506019000,6.53701904296875,0.01004837267100811,-0.008768191561102867,0.001600293442606926
1761315853516066000,6.547066162109375,0.006428071763366461,-0.004851214122027159,0.001353152096271515
1761315853526113300,6.55711328125,0.007787349168211222,-0.0076118470169603825,0.0012261193478479981
1761315853536160300,6.56716015625,0.0065590995363891125,-0.005938316695392132,0.0020335898734629154
1761315853546207200,6.577207275390625,0.008974852971732616,-0.006040315609425306,0.0017963021527975798
1761315853556254200,6.587254150390625,0.005786782596260309,-0.007260575890541077,0.0008380967774428427
1761315853566301200,6.59730126953125,0.007011836860328913,-0.006049104034900665,0.0000780306218075566
1761315853576348200,6.60734814453125,0.0057377805933356285,-0.008767658844590187,0.002270078519359231
1761315853586395100,6.61739501953125,0.003858920419588685,-0.007192931603640318,0.0028445222415030003
1761315853596442000,6.627442138671875,0.004295146092772484,-0.009059807285666466,0.0023089605383574963
1761315853606489000,6.637489013671875,0.007078149355947971,-0.010000968351960182,0.002811765531077981
1761315853616536000,6.6475361328125,0.0063002402894198895,-0.00791518110781908,0.0035292210523039103
1761315853626583000,6.6575830078125,0.008981510996818542,-0.006225405260920525,0.0023065637797117233
1761315853636630000,6.667630126953125,0.006934871431440115,-0.008843558840453625,0.0022983080707490444
1761315853646677200,6.67767724609375,0.007140733767300844,-0.011536813341081142,0.0020714066922664642
1761315853656724200,6.68772412109375,0.006747118663042784,-0.008594552986323833,0.004424309358000755
1761315853666771200,6.697771240234375,0.00848270021378994,-0.003961185924708843,-0.0003605920064728707
1761315853676818200,6.707818115234375,0.00780679052695632,-0.0044014062732458115,0.004584898240864277
1761315853686865200,6.717865234375,0.007786550559103489,-0.006196376867592335,0.0026911243330687284
1761315853696912100,6.727912109375,0.00833862368017435,-0.008293882943689823,0.0010932276491075754
1761315853706959400,6.73795947265625,0.007258179131895304,-0.007693073246628046,0.0025350630749017
1761315853717006000,6.748006103515625,0.011289938353002071,-0.006897587329149246,-0.0002825613773893565
1761315853727053000,6.758052978515625,0.007487477269023657,-0.008360194973647594,0.00177925790194422
1761315853737100000,6.76810009765625,0.004996090196073055,-0.005052282940596342,0.0006583334179595113
1761315853747147000,6.77814697265625,0.0060142166912555695,-0.006328735966235399,0.0017917747609317303
1761315853757194000,6.788194091796875,0.008963135071098804,-0.005050684791058302,0.002410160843282938
1761315853767241200,6.7982412109375,0.008353270590305328,-0.007722101639956236,0.0012929646763950586
1761315853777288200,6.8082880859375,0.008891229517757893,-0.009277387522161007,-0.0005344964447431266
1761315853787335200,6.818335205078125,0.009148224256932735,-0.00634924229234457,0.0014631407102569938
1761315853797382100,6.828382080078125,0.008371646516025066,-0.00782703049480915,0.0024474449455738068
1761315853807429000,6.83842919921875,0.005899168085306883,-0.007815578952431679,0.0000958738019107841
1761315853817476000,6.84847607421875,0.007754059974104166,-0.007331149652600288,0.003719637170433998
1761315853827523300,6.8585234375,0.004093012306839228,-0.00800572894513607,-0.0003789678157772869
1761315853837570300,6.8685703125,0.007928497157990932,-0.006085056811571121,0.0043502734042704105
1761315853847617000,6.878616943359375,0.006158027332276106,-0.009999371133744717,-0.0012056130217388272
1761315853857664000,6.8886640625,0.009794574230909348,-0.006699181627482176,0.0012442287988960743
1761315853867711000,6.8987109375,0.0054674698039889336,-0.008390821516513824,0.0006649913266301155
1761315853877758200,6.90875830078125,0.006418218370527029,-0.007807855494320393,-0.0006868292111903429
1761315853887805200,6.91880517578125,0.010045443661510944,-0.006563893053680658,0.0030333404429256916
1761315853897852200,6.92885205078125,0.007558051031082869,-0.006976150441914797,0.00242187874391675
1761315853907899100,6.938899169921875,0.002383262850344181,-0.007727694697678089,0.0015957661671563983
1761315853917946000,6.948946044921875,0.007150321267545223,-0.007969243451952934,0.002222674200311303
1761315853927993600,6.95899365234375,0.006910370197147131,-0.006857639644294977,0.0032402679789811373
1761315853938040600,6.96904052734375,0.007580687757581472,-0.008530903607606888,-0.0004247741890139878
1761315853948087600,6.979087646484375,0.0073204971849918365,-0.00996155384927988,0.0006239786162041128
1761315853958134500,6.989134521484375,0.008702411316335201,-0.006231796927750111,0.0019765980541706085
1761315853968181200,6.99918115234375,0.007473628968000412,-0.009927465580403805,0.0015188007382676005
1761315853978228200,7.009228271484375,0.009556487202644348,-0.007742874324321747,0.001109739183448255
1761315853988275500,7.019275390625,0.007636880502104759,-0.007768707349896431,0.002046639332547784
1761315853998322400,7.029322509765625,0.008728510700166225,-0.007647533435374498,0.0035635759122669697
1761315854008369400,7.039369384765625,0.009740511886775494,-0.008389223366975784,0.0012146678054705262
1761315854018416400,7.04941650390625,0.006878145970404148,-0.008173241280019283,0.00123783724848181
1761315854028463400,7.05946337890625,0.007386277429759502,-0.0070549799129366875,-0.0015765913994982839
1761315854038510600,7.069510498046875,0.007694937754422426,-0.006217948626726866,0.0009076052810996771
1761315854048557600,7.0795576171875,0.01113068126142025,-0.008806806989014149,0.0001054611784638837
1761315854058604500,7.0896044921875,0.008195611648261547,-0.007041664328426123,0.0008639294537715614
1761315854068651500,7.099651611328125,0.009873669594526291,-0.0067721521481871605,0.0018500980222597718
1761315854078698500,7.109698486328125,0.006986270658671856,-0.007366036996245384,0.0036045885644853115
1761315854088745500,7.119745361328125,0.008652610704302788,-0.008787899278104305,0.0032557144295424223
1761315854098792400,7.12979248046875,0.00754979532212019,-0.008776713162660599,0.0028996497858315706
1761315854108839400,7.13983935546875,0.006164685357362032,-0.007119694724678993,0.001219461439177394
1761315854118886400,7.149886474609375,0.008074438199400902,-0.00899748969823122,0.0007334345718845725
1761315854128933400,7.159933349609375,0.009286709129810333,-0.007635815534740686,0.001856755930930376
1761315854138980400,7.16998046875,0.006922887172549963,-0.008303203620016575,0.002739860210567713
1761315854149027300,7.18002734375,0.006342850625514984,-0.008895490318536758,0.002240783767774701
1761315854159074600,7.190074462890625,0.006103166379034519,-0.008177502080798149,0.0007262440049089491
1761315854169121500,7.20012158203125,0.0065505774691700935,-0.008642756380140781,0.0036903421860188246
1761315854179168500,7.21016845703125,0.0075631109066307545,-0.008665925823152065,0.0009741843095980585
1761315854189215500,7.220215576171875,0.005050684791058302,-0.007645136676728725,-0.0005182511522434652
1761315854199262500,7.230262451171875,0.007791077718138695,-0.007958590984344482,-0.0006101301987655461
1761315854209309400,7.240309326171875,0.004939631093293428,-0.007798800710588694,0.0008884305134415627
1761315854219356400,7.2503564453125,0.006764695513993502,-0.007921839132905006,0.003999002743512392
1761315854229403400,7.2604033203125,0.00683100800961256,-0.009035838767886162,0.0018812569323927164
1761315854239450400,7.270450439453125,0.007450725883245468,-0.011284345760941505,0.0007579356315545738
1761315854249497300,7.280497314453125,0.008300273679196835,-0.00818096473813057,0.0019033611752092838
1761315854259544300,7.29054443359375,0.00723474333062768,-0.0068083712831139565,-0.0011640676530078053
1761315854269591300,7.30059130859375,0.008767126128077507,-0.008872320875525475,0.0017470336752012372
1761315854279638500,7.310638427734375,0.008115717209875584,-0.008245679549872875,0.004305532667785883
1761315854289685500,7.320685546875,0.008729576133191586,-0.007760451175272465,0.0007962851668708026
1761315854299732500,7.330732421875,0.008293350227177143,-0.00692128948867321,0.0011805793037638068
1761315854309779500,7.340779541015625,0.008165251463651657,-0.007327687460929155,0.0017686053179204464
1761315854319826400,7.350826416015625,0.008015848696231842,-0.007760451175272465,-0.0019238675013184547
1761315854329873700,7.360873779296875,0.009953564032912254,-0.009265935979783535,0.001660214620642364
1761315854339920600,7.370920654296875,0.006909571588039398,-0.00680171325802803,0.0014021543320268393
1761315854349967400,7.38096728515625,0.007121026515960693,-0.007601194549351931,-0.0013630058383569121
1761315854360014300,7.391014404296875,0.010062221437692642,-0.00800093449652195,-0.00021678130724467337
1761315854370061300,7.401061279296875,0.010004431009292603,-0.006421680096536875,0.0014591459184885025
1761315854380108300,7.4111083984375,0.010491256602108479,-0.007994011044502258,0.002286856295540929
1761315854390155500,7.421155517578125,0.007933290675282478,-0.0064951833337545395,0.001472461735829711
1761315854400202500,7.431202392578125,0.005169195588678122,-0.008777778595685959,0.0007123955874703825
1761315854410249500,7.44124951171875,0.007726362906396389,-0.007529821712523699,0.0037260286044329405
1761315854420296400,7.45129638671875,0.00566827179864049,-0.008345015347003937,0.00401524780318141
1761315854430343400,7.461343505859375,0.003950799349695444,-0.008400941267609596,0.003765443339943886
1761315854440390400,7.471390380859375,0.006452572997659445,-0.008840896189212799,0.00072597770486027
1761315854450437600,7.481437744140625,0.006338856182992458,-0.007799067068845034,0.0022594258189201355
1761315854460484600,7.491484619140625,0.008076568134129047,-0.0043444144539535046,-0.0008889631717465818
1761315854470531600,7.501531494140625,0.005547630600631237,-0.008914931677281857,0.00166633992921561
1761315854480578300,7.511578369140625,0.007591607049107552,-0.006223541218787432,-0.0007816377910785377
1761315854490625300,7.521625244140625,0.006877613253891468,-0.007958590984344482,0.0032562471460551023
1761315854500672300,7.53167236328125,0.005554821342229843,-0.0062307314947247505,0.00041625206358730793
1761315854510719500,7.541719482421875,0.008445949293673038,-0.008925317786633968,0.003778226673603058
1761315854520766500,7.551766357421875,0.007412376347929239,-0.007251787465065718,0.0019206717843189836
1761315854530813400,7.5618134765625,0.008951949886977673,-0.008431567810475826,0.0008247809601016343
1761315854540860400,7.5718603515625,0.008273376151919365,-0.006789462640881538,-0.000477504770969972
1761315854550907400,7.581907470703125,0.009118663147091866,-0.004985437728464603,0.0017680726014077663
1761315854560954400,7.591954345703125,0.007269097957760096,-0.008419050835072994,0.0010950918076559901
1761315854571001600,7.602001708984375,0.008198541589081287,-0.007761250250041485,-0.00004207794336252846
1761315854581048600,7.612048583984375,0.010192183777689934,-0.007399326656013727,0.0027835359796881676
1761315854591095600,7.622095458984375,0.00794500857591629,-0.005785184912383556,0.002466619713231921
1761315854601142500,7.632142578125,0.008364456705749035,-0.006354302167892456,0.001543568097986281
1761315854611189200,7.642189208984375,0.006460562348365784,-0.008506935089826584,-0.0001651159836910665
1761315854621236500,7.652236572265625,0.006328735966235399,-0.006518619135022163,0.001913214917294681
1761315854631283500,7.662283447265625,0.008588427677750587,-0.007107177749276161,0.0014618091518059373
1761315854641330400,7.672330322265625,0.0075721656903624535,-0.006346845533698797,0.00037230990710668266
1761315854651377400,7.68237744140625,0.006826480850577354,-0.006895190104842186,0.004509796854108572
1761315854661424400,7.69242431640625,0.006132993847131729,-0.007993744686245918,0.0021816615480929613
1761315854671471400,7.702471435546875,0.006030461750924587,-0.007010771427303553,0.0006191849242895842
1761315854681518600,7.7125185546875,0.005813147872686386,-0.006968959700316191,0.001446362817659974
1761315854691565600,7.722565673828125,0.007089600898325443,-0.008129033260047436,0.0041401502676308155
1761315854701612500,7.732612548828125,0.0060293967835605145,-0.007502923719584942,0.000972852751147002
1761315854711659500,7.742659423828125,0.008108526468276978,-0.01008086372166872,0.0004878911131527275
1761315854721706500,7.75270654296875,0.006871488410979509,-0.007251254748553038,-0.0000857537888805382
1761315854731753500,7.76275341796875,0.006440056022256613,-0.0076422072015702724,0.0024578312877565622
1761315854741800400,7.772800537109375,0.007538343779742718,-0.007837416604161263,0.0003741741238627583
1761315854751847400,7.782847412109375,0.008017446845769882,-0.006099171470850706,0.0009390306076966226
1761315854761894400,7.792894287109375,0.007602259516716003,-0.006963100749999285,0.0009928264189511538
1761315854771941400,7.80294140625,0.007789213676005602,-0.00836658664047718,0.0021960425656288862
1761315854781988400,7.81298828125,0.006986270658671856,-0.007995874620974064,0.0007480819476768374
1761315854792035300,7.823035400390625,0.009616674855351448,-0.008888832293450832,0.0018349179299548268
1761315854802082600,7.83308251953125,0.006451241206377745,-0.008102667517960072,0.0013699301052838564
1761315854812129500,7.843129638671875,0.004913798533380032,-0.006169478874653578,0.0011797803454101086
1761315854822176500,7.853176513671875,0.007689877413213253,-0.008008657954633236,0.0012191950809210539
1761315854832223500,7.863223388671875,0.007741010282188654,-0.0073657711036503315,-0.0001334243715973571
1761315854842270500,7.8732705078125,0.006951649207621813,-0.0072989254258573055,-0.0009209210984408855
1761315854852317400,7.8833173828125,0.007682154420763254,-0.008510397747159004,0.0017321199411526322
1761315854862364400,7.893364501953125,0.007136472500860691,-0.008577508851885796,-0.0010980212828144431
1761315854872411400,7.903411376953125,0.008363923989236355,-0.00675217853859067,-0.00035606464371085167
1761315854882458400,7.913458251953125,0.00878177396953106,-0.008162588812410831,0.0006026733317412436
1761315854892505300,7.92350537109375,0.00863316934555769,-0.0073327478021383286,0.0017044231062754989
1761315854902552300,7.93355224609375,0.006039782892912626,-0.006987335626035929,0.00019387812062632293
1761315854912599600,7.943599609375,0.007952465675771236,-0.009574330411851406,-0.0003733751946128905
1761315854922645800,7.953645751953125,0.00993039458990097,-0.009882724843919277,0.0023318638559430838
1761315854932692700,7.963692626953125,0.009034507907927036,-0.00777776213362813,0.0012942962348461151
1761315854942739700,7.97373974609375,0.00890800729393959,-0.008175105787813663,0.00152306177187711
1761315854952786700,7.98378662109375,0.006331665441393852,-0.005812082905322313,0.0023616913240402937
1761315854962833700,7.993833740234375,0.00923131499439478,-0.007349259220063686,0.0020040287636220455
1761315854972880600,8.003880615234374,0.006110356654971838,-0.009013734757900238,0.0012189288390800357
1761315854982928000,8.013927978515625,0.007650729268789291,-0.005203284323215485,0.003650394966825843
1761315854992974800,8.023974853515625,0.005900765769183636,-0.006213421002030373,-0.0006018743733875453
1761315855003021800,8.034021728515626,0.006882140878587961,-0.008641159161925316,0.0005813680472783744
1761315855013068800,8.04406884765625,0.006224073935300112,-0.008669122122228146,-0.00015579492901451886
1761315855023115500,8.054115478515625,0.00643632747232914,-0.006369748618453741,0.0011462245602160692
1761315855033162500,8.06416259765625,0.007634217385202646,-0.00862970668822527,-0.00029587719473056495
1761315855043209700,8.074209716796876,0.007731689140200615,-0.00914289802312851,0.000508663768414408
1761315855053256700,8.084256591796875,0.007606787141412497,-0.005673332139849663,0.0020929782185703516
1761315855063303700,8.0943037109375,0.009996174834668636,-0.007781223859637976,0.00031638352083973587
1761315855073350700,8.1043505859375,0.008935438469052315,-0.006418218370527029,0.0017230651574209332
1761315855083397600,8.114397705078124,0.006807572208344936,-0.008747951127588749,0.0018788601737469435
1761315855093444600,8.124444580078125,0.006886401679366827,-0.007577492389827967,0.001570998691022396
1761315855103491800,8.134491943359375,0.00914529524743557,-0.009454487822949886,0.000046072687837295234
1761315855113538800,8.144538818359376,0.007792409509420395,-0.004861600697040558,0.0003880225704051554
1761315855123585800,8.154585693359374,0.008154066279530525,-0.0068001155741512775,0.0036567864008247852
1761315855133632800,8.1646328125,0.00752103328704834,-0.008754875510931015,0.0020652813836932182
1761315855143679700,8.1746796875,0.008401207625865936,-0.006311425473541021,0.003326554549857974
1761315855153727700,8.184727783203124,0.006016879808157682,-0.008665659464895725,0.00020106865849811584
1761315855163773700,8.194773681640624,0.007889880798757076,-0.007330883294343948,0.0014857775531709194
1761315855173820700,8.204820556640625,0.00752156600356102,-0.006863232236355543,0.00019041601626668125
1761315855183867600,8.21486767578125,0.0088803106918931,-0.00561207951977849,0.001945705502294004
1761315855193914600,8.22491455078125,0.009437976405024529,-0.007327421568334103,0.0008396946941502392
1761315855203961600,8.234961669921875,0.009019327349960804,-0.008964200504124165,0.0029174929950386286
1761315855214009900,8.245009765625,0.008434231393039227,-0.008313589729368687,0.00010492854926269501
1761315855224055800,8.255055908203126,0.007081078831106424,-0.0054277884773910046,0.0012932310346513987
1761315855234103600,8.265103515625,0.008993761613965034,-0.007214503362774849,0.0025510420091450214
1761315855244150500,8.275150634765625,0.00923504400998354,-0.0072957295924425125,-0.00007856325100874528
1761315855254196700,8.28519677734375,0.006640592124313116,-0.008158061653375626,-0.0005155879771336913
1761315855264244700,8.29524462890625,0.00974690355360508,-0.007720503956079483,0.002290851203724742
1761315855274290700,8.305290771484374,0.004773183725774288,-0.004948685877025127,0.0023086944129318
1761315855284337700,8.315337646484375,0.005106877535581589,-0.00842943787574768,0.0009291769238188863
1761315855294384600,8.325384521484375,0.00603365758433938,-0.007134608458727598,0.0023310647811740637
1761315855304431600,8.335431640625,0.005871471017599106,-0.009755691513419151,0.0036400086246430874
1761315855314478600,8.345478515625,0.0049705239944159985,-0.0062547000125050545,0.0030892668291926384
1761315855324526800,8.35552685546875,0.005976666230708361,-0.009404420852661133,0.003230947069823742
1761315855334572800,8.36557275390625,0.006383330561220646,-0.0059835901483893394,-0.0013872405979782343
1761315855344619800,8.375619873046874,0.006843791343271732,-0.00884941779077053,0.0023425165563821793
1761315855354666800,8.385666748046875,0.007721835747361183,-0.008610532619059086,0.00020666129421442747
1761315855364713700,8.395713623046875,0.0070251524448394775,-0.008199607022106647,0.0020458402577787638
1761315855374760700,8.4057607421875,0.008096009492874146,-0.007187871728092432,0.0031166973058134317
1761315855384808700,8.41580859375,0.0068123661912977695,-0.006172141991555691,0.0009201221400871873
1761315855394855000,8.42585498046875,0.006094910204410553,-0.012075571343302727,0.002807770622894168
1761315855404902700,8.435902587890626,0.00902864895761013,-0.007456318475306034,0.0013728595804423094
1761315855414948600,8.445948486328126,0.007090666331350803,-0.0065622953698039055,0.0029798108153045177
1761315855424996600,8.45599658203125,0.009002283215522766,-0.006278402172029018,0.002112685702741146
1761315855435042600,8.46604248046875,0.00896712951362133,-0.006456567905843258,0.003849332919344306
1761315855445089500,8.476089599609375,0.007812383119016886,-0.006095442920923233,0.0015363775892183185
1761315855455136800,8.48613671875,0.008255532942712307,-0.008813465014100075,0.0010250506456941366
1761315855465183700,8.496183837890625,0.007232080213725567,-0.008815862238407135,0.003287405939772725
1761315855475230700,8.506230712890625,0.009588445536792278,-0.006054430268704891,0.0014583469601348042
1761315855485277700,8.516277587890626,0.011145595461130142,-0.007800132501870394,0.0034229608718305826
1761315855495324700,8.52632470703125,0.006779609248042107,-0.00805925764143467,-0.00001917476038215682
1761315855505372700,8.53637255859375,0.008074171841144562,-0.008433965034782887,0.0014322480419650674
1761315855515419600,8.546419677734375,0.006070409435778856,-0.006468818057328463,0.0010570086305961013
1761315855525465600,8.556465576171876,0.009401490911841393,-0.008014250546693802,0.0037470676470547915
1761315855535512600,8.5665126953125,0.007279484532773495,-0.006184658966958523,0.0012697952333837748
1761315855545559600,8.5765595703125,0.0075812204740941525,-0.008905078284442425,0.0008173241512849927
1761315855555606500,8.5866064453125,0.005489840172231197,-0.006895989179611206,0.004679440520703793
1761315855565653800,8.59665380859375,0.00637906976044178,-0.00788482092320919,-0.00040320257539860904
1761315855575700700,8.60670068359375,0.006997455842792988,-0.007778560742735863,0.0020967067684978247
1761315855585747700,8.616747802734375,0.0068299430422484875,-0.007290936075150967,-0.0005755090969614685
1761315855595794700,8.626794677734376,0.006601443514227867,-0.006369748618453741,0.0012088088551536202
1761315855605841700,8.636841552734374,0.00572925852611661,-0.008500011637806892,0.0018791264155879617
1761315855615888600,8.646888671875,0.007289072033017874,-0.008833705447614193,0.0011464908020570874
1761315855625936000,8.656935791015625,0.008225172758102417,-0.00999431125819683,0.0009355684742331505
1761315855635983600,8.666983642578124,0.00893863383680582,-0.006089583970606327,0.0012503541074693203
1761315855646029800,8.67702978515625,0.008930910378694534,-0.009206281043589115,0.001178448786959052
1761315855656076500,8.68707666015625,0.008105331100523472,-0.007987619377672672,-0.0025920546613633633
1761315855666123500,8.69712353515625,0.009881659410893917,-0.008538094349205494,0.0012932310346513987
1761315855676170500,8.70717041015625,0.00621129060164094,-0.0073050507344305515,0.002625077962875366
1761315855686217700,8.7172177734375,0.007743140682578087,-0.006997722201049328,0.002513757674023509
1761315855696264700,8.7272646484375,0.00652687530964613,-0.007014766335487366,0.0018700717482715845
1761315855706311700,8.737311767578126,0.010069944895803928,-0.008348743431270123,-0.0001877528557088226
1761315855716358700,8.747358642578124,0.007770571392029524,-0.0075966669246554375,0.000029827404432580806
1761315855726405600,8.757405517578125,0.008200671523809433,-0.005949768237769604,0.0013662016717717052
1761315855736452600,8.76745263671875,0.00752050057053566,-0.00999138131737709,0.0018716695485636592
1761315855746499800,8.777499755859376,0.0070802802219986916,-0.007905594073235989,0.0003328951424919069
1761315855756546800,8.787546875,0.009898703545331955,-0.007289338391274214,0.001612277701497078
1761315855766593800,8.79759375,0.009475527331233025,-0.006980677600950003,0.0017243968322873116
1761315855776640800,8.807640869140625,0.004399808589369059,-0.008952482603490353,0.002689526416361332
1761315855786687500,8.8176875,0.00923397857695818,-0.007382016163319349,-0.0005233111442066729
1761315855796734700,8.827734619140625,0.00875141378492117,-0.005864280741661787,-0.00012223910016473383
1761315855806781700,8.83778173828125,0.007138869725167751,-0.006455236114561558,-0.00014088122406974435
1761315855816828700,8.84782861328125,0.008706405758857727,-0.008166050538420677,0.0017001620726659894
1761315855826875600,8.857875732421874,0.007180415093898773,-0.007420898415148258,0.0024498419370502234
1761315855836922600,8.867922607421875,0.005450425669550896,-0.007484547793865204,0.0032959282398223877
1761315855846969600,8.877969482421875,0.006388124544173479,-0.006951915565878153,0.0037468012887984514
1761315855857016800,8.888016845703126,0.007133010774850845,-0.006898119580000639,0.0019321233266964555
1761315855867063800,8.898063720703124,0.006215285509824753,-0.007712514605373144,0.0005717806634493172
1761315855877110800,8.90811083984375,0.00660597113892436,-0.007132478058338165,0.0020703414920717478
1761315855887157800,8.91815771484375,0.008294681087136269,-0.006358297076076269,-0.00027031084755435586
1761315855897204700,8.928204833984376,0.008297877386212349,-0.007616640534251928,0.0029225528705865145
1761315855907251700,8.938251708984374,0.00384427304379642,-0.006588927004486322,0.0014729943359270692
1761315855917298700,8.948298583984375,0.008550078608095646,-0.008826781064271927,-0.00047404266661033034
1761315855927346000,8.958345947265625,0.008051801472902298,-0.00839961040765047,0.000580036488827318
1761315855937393000,8.968392822265624,0.007208111695945263,-0.006688529159873724,0.0006141249323263764
1761315855947439900,8.97843994140625,0.009306415915489197,-0.006715959403663874,0.002430667169392109
1761315855957486800,8.98848681640625,0.00971707608550787,-0.007284278050065041,0.0012900352012366056
1761315855967533800,8.998533935546876,0.007900000549852848,-0.006725813262164593,0.0005667206714861095
1761315855977580800,9.008580810546874,0.008521582931280136,-0.006316751707345247,0.003448793664574623
1761315855987628000,9.0186279296875,0.008953280746936798,-0.00538304727524519,0.002293514320626855
1761315855997675000,9.028675048828125,0.008812133222818375,-0.006638728082180023,0.001359543763101101
1761315856007722000,9.038721923828126,0.007958324626088142,-0.00968565046787262,0.0023102923296391964
1761315856017769000,9.04876904296875,0.006462160497903824,-0.009788980707526207,0.0035033884923905134
1761315856027816000,9.05881591796875,0.009986854158341885,-0.00908723846077919,-0.0003733751946128905
1761315856037862000,9.06886181640625,0.007783621083945036,-0.006995857693254948,0.0026051041204482317
1761315856047909000,9.0789091796875,0.007270696107298136,-0.006684534251689911,-0.001074052881449461
1761315856057956000,9.0889560546875,0.007196660153567791,-0.0060240705497562885,-0.000032490566809428856
1761315856068002800,9.0990029296875,0.005661347880959511,-0.005901032127439976,0.0015124091878533363
1761315856078049800,9.1090498046875,0.008274175226688385,-0.008922122418880463,0.0007209177128970623
1761315856088096800,9.1190966796875,0.008620918728411198,-0.0076030585914850235,0.0010388991795480251
1761315856098143700,9.129143798828125,0.007577492389827967,-0.009396164678037167,0.0007816377910785377
1761315856108192000,9.13919189453125,0.008087221533060074,-0.007637679576873779,0.001255946815945208
1761315856118238000,9.149238037109376,0.007152451667934656,-0.007517304737120867,0.0014506238512694836
1761315856128285000,9.159284912109374,0.006803577765822411,-0.008185758255422115,-0.0012753878254443407
1761315856138332000,9.169331787109375,0.006053897552192211,-0.008919725194573402,0.0015909724170342088
1761315856148379000,9.17937890625,0.00920361839234829,-0.007636614143848419,0.000027696874894900247
1761315856158425900,9.18942578125,0.007299724500626326,-0.008933840319514275,0.0026027073618024588
1761315856168473000,9.19947314453125,0.007497597485780716,-0.009967146441340446,0.001088966615498066
1761315856178520000,9.20952001953125,0.007327421568334103,-0.006734601687639952,0.0016732640797272325
1761315856188567000,9.219567138671875,0.008025169372558594,-0.006383596919476986,0.0016136092599481344
1761315856198613800,9.22961376953125,0.010899519547820091,-0.008105862885713577,0.0021992383990436792
1761315856208660700,9.23966064453125,0.0092923017218709,-0.007772701792418957,0.004676776938140392
1761315856218707700,9.249707763671875,0.008556736633181572,-0.00818096473813057,-0.001514539704658091
1761315856228755000,9.2597548828125,0.008774583227932453,-0.008954079821705818,0.001514806062914431
1761315856238802000,9.269802001953124,0.009121859446167946,-0.006810235325247049,0.002936667762696743
1761315856248849000,9.279848876953125,0.009044361300766468,-0.00700810831040144,0.0012650014832615852
1761315856258896000,9.289895751953125,0.006679740734398365,-0.009002815932035446,0.0017478326335549355
1761315856268942800,9.29994287109375,0.007665110286325216,-0.007698133587837219,0.0006657902849838138
1761315856278989800,9.30998974609375,0.006066148169338703,-0.00878150761127472,0.0026043052785098553
1761315856289037000,9.320037109375,0.005456284619867802,-0.006800381932407618,0.002299373270943761
1761315856299084000,9.330083984375,0.009633985348045826,-0.007567638531327248,0.0012490225490182638
1761315856309131000,9.340131103515626,0.007156180217862129,-0.009573797695338726,0.0007329019135795534
1761315856319178000,9.350177978515624,0.007482417393475771,-0.00785392802208662,0.0011912320042029023
1761315856329224700,9.360224609375,0.009710418060421944,-0.007062703371047974,0.004849616438150406
1761315856339272000,9.37027197265625,0.006720220670104027,-0.008076834492385387,0.0020277309231460094
1761315856349319000,9.38031884765625,0.007129015866667032,-0.008298942819237709,0.0016450346447527409
1761315856359366000,9.390365966796875,0.005850432440638542,-0.008292551152408123,0.001689509372226894
1761315856369412900,9.400412841796875,0.004166249185800552,-0.007137271575629711,0.0007760451408103108
1761315856379459800,9.4104599609375,0.007905859500169754,-0.006449909880757332,0.0020692760590463877
1761315856389506800,9.4205068359375,0.006126868538558483,-0.008293882943689823,0.00669385539367795
1761315856399554000,9.430553955078125,0.004151069093495607,-0.008682438172399998,0.0023467775899916887
1761315856409601000,9.44060107421875,0.009022257290780544,-0.008187889121472836,0.0011819108622148633
1761315856419648000,9.45064794921875,0.008471515029668808,-0.007904262281954288,0.0002921487612184137
1761315856429695000,9.460695068359374,0.00842384435236454,-0.006943926215171814,0.003922836389392614
1761315856439742000,9.470741943359375,0.008467786945402622,-0.00726483715698123,0.0034080471377819777
1761315856449789000,9.480788818359375,0.0073173013515770435,-0.007622233126312494,0.003531884169206023
1761315856459836000,9.4908359375,0.007940747775137424,-0.010299775749444962,0.002320678671821952
1761315856469883000,9.5008828125,0.009001484140753746,-0.007508249953389168,0.0004956142511218786
1761315856479929900,9.510929931640625,0.006797985173761845,-0.007592139765620232,0.0018825886072590947
1761315856489976800,9.520976806640626,0.009302421472966671,-0.007447263691574335,0.0026016421616077423
1761315856500023800,9.53102392578125,0.006975884083658457,-0.00890614278614521,0.0018972359830513597
1761315856510070800,9.54107080078125,0.008792959153652191,-0.006382265593856573,0.002252501668408513
1761315856520118000,9.551117919921875,0.008345281705260277,-0.008785502053797245,0.0023252058308571577
1761315856530165000,9.5611650390625,0.00663526589050889,-0.006314621306955814,0.0036418726667761803
1761315856540212000,9.5712119140625,0.00675324397161603,-0.005056277383118868,0.0022738068364560604
1761315856550259000,9.581259033203125,0.008349542506039143,-0.00785818975418806,0.0026343988720327616
1761315856560306000,9.591305908203125,0.011271828785538673,-0.008685899898409843,0.0006607302348129451
1761315856570353000,9.601352783203126,0.0073593794368207455,-0.009278985671699047,0.0022471752017736435
1761315856580399900,9.61139990234375,0.009914948605000973,-0.007215568795800209,0.002314287004992366
1761315856590447900,9.62144775390625,0.010669955052435398,-0.0062640211544930935,0.0006202502408996224
1761315856600494800,9.631494873046876,0.007103183306753635,-0.00751890242099762,0.0023097596131265163
1761315856610541800,9.641541748046874,0.006022738758474588,-0.006846720818430185,0.00098217383492738
1761315856620589000,9.651589111328125,0.0072986590676009655,-0.004802478477358818,-0.00138058268930763
1761315856630636000,9.661635986328125,0.005888515617698431,-0.006448844447731972,0.0020117517560720444
1761315856640683000,9.67168310546875,0.006581469904631376,-0.005901564843952656,0.0012551478575915098
1761315856650730000,9.68172998046875,0.005234176758676767,-0.007685350254178047,0.00119602563790977
1761315856660777000,9.69177685546875,0.009098157286643982,-0.0062698801048099995,0.0009174589649774134
1761315856670824000,9.701823974609376,0.005608883686363697,-0.005261074751615524,0.0009443568997085094
1761315856680871000,9.711870849609374,0.006174805108457804,-0.006931142881512642,0.002484729280695319
1761315856690918000,9.72191796875,0.006620352156460285,-0.005947371479123831,0.001612544059753418
1761315856700964900,9.73196484375,0.006369748618453741,-0.004458398092538118,-0.0012506204657256603
1761315856711011800,9.74201171875,0.009177785366773605,-0.004936168901622295,0.0022218753583729267
1761315856721058800,9.752058837890624,0.0083085298538208,-0.007443002425134182,0.001127582392655313
1761315856731105800,9.762105712890625,0.007779892534017563,-0.006110889371484518,0.000013315805517777335
1761315856741153000,9.772153076171875,0.008745288476347923,-0.008562329225242138,0.00276196445338428
1761315856751200000,9.782199951171876,0.006852846127003431,-0.006524478085339069,0.0013315805699676275
1761315856761247000,9.7922470703125,0.009123989380896091,-0.008668855763971806,-0.0005842975224368274
1761315856771294000,9.8022939453125,0.007140201050788164,-0.005515939090400934,-0.00014221279707271606
1761315856781341000,9.8123408203125,0.008080829866230488,-0.006132727488875389,0.0003062635369133204
1761315856791388000,9.822387939453124,0.008130364120006561,-0.009608418680727482,0.0032024511601775885
1761315856801435000,9.832434814453125,0.011055846698582172,-0.00726457079872489,0.0018367822049185634
1761315856811481900,9.84248193359375,0.008267517201602459,-0.007918909192085266,0.0009134642314165831
1761315856821528800,9.85252880859375,0.008941829204559326,-0.008981777355074883,0.002171008847653866
1761315856831575800,9.862575927734374,0.007698665838688612,-0.006446181330829859,0.002448244020342827
1761315856841622800,9.872622802734375,0.007094128523021936,-0.007024353835731745,0.000830107310321182
1761315856851669800,9.882669677734375,0.00609411159530282,-0.007967378944158554,0.000597879639826715
1761315856861717000,9.892717041015626,0.008902148343622684,-0.00708800321444869,-0.001546763931401074
1761315856871764000,9.902763916015624,0.008523447439074516,-0.007938616909086704,0.001568069215863943
1761315856881811000,9.91281103515625,0.0067966533824801445,-0.005962018854916096,0.0021859225817024708
1761315856891858000,9.92285791015625,0.005362540949136019,-0.008799084462225437,0.0016735304379835725
1761315856901905000,9.93290478515625,0.007392402272671461,-0.008419583551585674,0.0026059031952172518
1761315856911952100,9.9429521484375,0.004343083128333092,-0.0067870658822357655,0.00133850472047925
1761315856921999000,9.9529990234375,0.007725830189883709,-0.005029379855841398,0.0014112089993432164
1761315856932046000,9.963046142578126,0.00694978516548872,-0.0068296766839921474,0.002779274946078658
1761315856942093000,9.973093017578124,0.006992928218096495,-0.008198275230824947,0.0017470336752012372
1761315856952140000,9.98314013671875,0.008645419962704182,-0.008638761937618256,0.0007989483419805765
1761315856962187000,9.99318701171875,0.005330583080649376,-0.008291219361126423,0.0011358382180333138
1761315856972234200,10.003234130859376,0.006120743229985237,-0.007904794998466969,0.0021901836153119802
1761315856982281200,10.01328125,0.006469883490353823,-0.008202802389860153,-0.00010599380766507238
1761315856992328200,10.023328125,0.0065138256177306175,-0.009821471758186817,0.003391801845282316
1761315857002375200,10.033375244140625,0.005735916085541248,-0.007404386531561613,0.003605387406423688
1761315857012422100,10.043422119140626,0.00504136411473155,-0.006792924832552671,0.002311357529833913
1761315857022469000,10.05346923828125,0.008184959180653095,-0.007830492220818996,0.0022948458790779114
1761315857032516400,10.063516357421875,0.009693906642496586,-0.007545268163084984,-0.0009622001089155674
1761315857042563000,10.07356298828125,0.006156163290143013,-0.008899485692381859,0.00011265171633567661
1761315857052610000,10.083610107421874,0.009723201394081116,-0.007993478327989578,0.002423742786049843
1761315857062657000,10.093656982421875,0.006396380253136158,-0.007865912280976772,0.0033981935121119022
1761315857072704000,10.1037041015625,0.006266417913138866,-0.005401955917477608,0.0022082931827753782
1761315857082751000,10.1137509765625,0.005071723833680153,-0.007586813066154718,0.00173744629137218
1761315857092798200,10.123798095703124,0.008411328308284283,-0.00600462919101119,0.0031108383554965258
1761315857102845200,10.13384521484375,0.00897059217095375,-0.007255516014993191,0.0023587618488818407
1761315857112892200,10.14389208984375,0.006000102031975985,-0.0072898706421256065,0.0015960324089974165
1761315857122939100,10.153939208984376,0.005758286919444799,-0.008901082910597324,0.0006330333999358118
1761315857132986000,10.163986083984375,0.009163937531411648,-0.00766005041077733,-0.00017869810108095407
1761315857143033300,10.174033447265625,0.008314122445881367,-0.004731371998786926,0.0011198592837899923
1761315857153080300,10.184080322265626,0.008845156989991665,-0.008202536031603813,0.0026788737159222364
1761315857163127300,10.194127197265624,0.0043595945462584496,-0.007958590984344482,-0.0006785734440200031
1761315857173174000,10.204174072265625,0.0070374030619859695,-0.0070344735868275166,-0.0009217200567945838
1761315857183221000,10.214220947265625,0.0041129859164357185,-0.009499495849013329,0.0026908579748123884
1761315857193268000,10.22426806640625,0.007321029901504517,-0.007592139765620232,0.0014511564513668418
1761315857203315200,10.234315185546874,0.007072024047374725,-0.007782822009176016,0.0007685882737860084
1761315857213362200,10.244362060546875,0.006670153234153986,-0.007754858583211899,0.0006205165409483016
1761315857223409200,10.2544091796875,0.006998787168413401,-0.009031577967107296,-0.0013723268639296293
1761315857233456000,10.2644560546875,0.005843508057296276,-0.008417453616857529,-0.000300404557492584
1761315857243503000,10.274503173828125,0.006993993651121855,-0.005631254054605961,0.0037417414132505655
1761315857253550000,10.284550048828125,0.006403304636478424,-0.006901049055159092,0.003658917034044862
1761315857263596000,10.294595947265625,0.0062243398278951645,-0.01002200786024332,0.00018349179299548268
1761315857273643300,10.304643310546876,0.00714659271761775,-0.009853695519268513,0.004454935900866985
1761315857283690200,10.314690185546874,0.008225172758102417,-0.00932239554822445,0.004164917394518852
1761315857293737200,10.3247373046875,0.006607302464544773,-0.010064352303743362,0.004585164599120617
1761315857303784200,10.3347841796875,0.007203850895166397,-0.006610498297959566,-0.00046845004544593394
1761315857313831200,10.3448310546875,0.008297344669699669,-0.0076179723255336285,0.002769421087577939
1761315857323878100,10.354878173828125,0.009603625163435936,-0.006057093385607004,0.0037001960445195436
1761315857333925000,10.364925048828125,0.007219030521810055,-0.007437143474817276,0.005520466715097427
1761315857343972000,10.37497216796875,0.007533816155046225,-0.007784686051309109,0.00034194986801594496
1761315857354019000,10.38501904296875,0.009438509121537209,-0.009730124846100807,0.002941993996500969
1761315857364066000,10.395066162109375,0.008788165636360645,-0.00771863991394639,0.0006290386663749814
1761315857374113000,10.405113037109375,0.008253934793174267,-0.007771370466798544,0.001327053178101778
1761315857384160000,10.415159912109376,0.006502906791865826,-0.007138337008655071,0.003980360459536314
1761315857394207200,10.425207275390624,0.007041664328426123,-0.011087005957961082,0.00253453035838902
1761315857404254200,10.435254150390625,0.0105916578322649,-0.005877862684428692,0.004520982038229704
1761315857414301200,10.44530126953125,0.007556719705462456,-0.005932457745075226,0.0005909554311074317
1761315857424348200,10.45534814453125,0.00552366254851222,-0.007653392385691404,0.001505751279182732
1761315857434395100,10.46539501953125,0.008816394954919815,-0.009129316546022892,0.004728442523628473
1761315857444442400,10.4754423828125,0.0071037160232663155,-0.008735966868698597,0.003296460723504424
1761315857454489300,10.4854892578125,0.008095743134617805,-0.006153766065835953,0.0020303940400481224
1761315857464536000,10.4955361328125,0.005563077051192522,-0.008684301748871803,0.001540638622827828
1761315857474583000,10.5055830078125,0.006292250473052263,-0.007514108903706074,0.0006809702608734369
1761315857484630000,10.515630126953125,0.005514607764780521,-0.008845423348248005,0.005842442624270916
1761315857494677000,10.525677001953126,0.007815578952431679,-0.006119944155216217,0.004899683874100447
1761315857504724200,10.53572412109375,0.006037119776010513,-0.0076512619853019714,0.0024080302100628614
1761315857514771200,10.545771240234375,0.006042446009814739,-0.00768907880410552,0.0026282735634595156
1761315857524818200,10.555818115234375,0.007676029112190008,-0.007982292212545872,0.00364666641689837
1761315857534865200,10.565865234375,0.007984156720340252,-0.008163920603692532,0.000505734293255955
1761315857544912100,10.575912109375,0.006444317288696766,-0.008102933876216412,0.004590490832924843
1761315857554959000,10.585958984375,0.0076882797293365,-0.008675513789057732,0.0019201391842216253
1761315857565006300,10.59600634765625,0.005240035708993673,-0.007465905509889126,0.005681321490556002
1761315857575053300,10.60605322265625,0.007846205495297909,-0.008243548683822155,0.000636761833447963
1761315857585100300,10.616100341796875,0.006065881811082363,-0.009877397678792477,0.0032261533197015524
1761315857595147000,10.62614697265625,0.010220413096249104,-0.008093879558146,0.0009784454014152288
1761315857605194000,10.636194091796876,0.010484598577022552,-0.006844324059784412,-0.0005145227187313139
1761315857615241000,10.646240966796874,0.0076882797293365,-0.007788414601236582,0.003034938359633088
1761315857625288200,10.6562880859375,0.007505586836487055,-0.00848296657204628,0.001680987305007875
1761315857635335200,10.666335205078125,0.006971356924623251,-0.008207063190639019,0.0020519655663520098
1761315857645382100,10.676382080078126,0.010262757539749146,-0.008609200827777386,0.00219524372369051
1761315857655429000,10.68642919921875,0.007837150245904922,-0.009523464366793633,0.0007920240750536323
1761315857665476000,10.69647607421875,0.008371912874281406,-0.00717482203617692,0.0028668928425759077
1761315857675523000,10.706523193359375,0.008113319985568523,-0.006536462344229221,0.002923884429037571
1761315857685570300,10.7165703125,0.01028725877404213,-0.006738063879311085,0.0037238982040435076
1761315857695617300,10.7266171875,0.009779127314686775,-0.006499710958451033,0.0029377329628914595
1761315857705664300,10.736664306640625,0.008726646192371845,-0.0059689427725970745,0.004400340840220451
1761315857715711200,10.746711181640626,0.008262190967798233,-0.007075486239045858,-0.000368847802747041
1761315857725758000,10.756758056640624,0.007989216595888138,-0.006189985200762749,0.0027630296535789967
1761315857735805000,10.766804931640625,0.007647799793630838,-0.006261890754103661,0.0025923210196197033
1761315857745852200,10.77685205078125,0.0038991342298686504,-0.00589730404317379,0.0017475662752985954
1761315857755899100,10.786899169921876,0.0076270271092653275,-0.009429454803466797,0.0006868292111903429
1761315857765946000,10.796946044921874,0.006468818057328463,-0.011450260877609253,0.0010897654574364424
1761315857775993000,10.8069931640625,0.009061671793460846,-0.008958607912063599,0.0029198897536844015
1761315857786040000,10.8170400390625,0.006039782892912626,-0.006107959896326065,0.0010279801208525896
1761315857796087300,10.82708740234375,0.006126602180302143,-0.008345281705260277,0.0015448997728526592
1761315857806134300,10.83713427734375,0.007000118959695101,-0.009707488119602203,-0.0002884203568100929
1761315857816181200,10.84718115234375,0.004896754398941994,-0.008231564424932003,0.0030397321097552776
1761315857826228200,10.857228271484376,0.004126567859202623,-0.007695204112678766,0.003882089862599969
1761315857836275200,10.867275146484374,0.007222492713481188,-0.008833172731101513,0.002207494108006358
1761315857846322200,10.877322265625,0.007507184520363808,-0.006323942448943853,0.002010686555877328
1761315857856369200,10.887369140625,0.006398510653525591,-0.007187871728092432,-0.0015502260066568851
1761315857866416000,10.897416015625,0.008041680790483952,-0.008313856087625027,0.0010817759903147817
1761315857876463000,10.907463134765624,0.0062666842713952065,-0.006527673918753862,0.0009448895580135286
1761315857886510000,10.917510009765625,0.007969509810209274,-0.007303453050553799,0.0012093414552509785
1761315857896557000,10.92755712890625,0.008618521504104137,-0.008991897106170654,0.0017502295086160302
1761315857906604000,10.93760400390625,0.005862416233867407,-0.005283711478114128,0.0023643544409424067
1761315857916651300,10.9476513671875,0.009123191237449646,-0.007646468002349138,0.00028815402765758336
1761315857926698800,10.95769873046875,0.007930893450975418,-0.006413424387574196,0.00008921589324017987
1761315857936745700,10.967745849609376,0.006997722201049328,-0.00720651401206851,0.0015864450251683593
1761315857946792700,10.977792724609374,0.010147709399461746,-0.008213987573981285,0.0018700717482715845
1761315857956839700,10.987839599609375,0.00914209894835949,-0.006631004624068737,0.00012516857532318681
1761315857966886700,10.99788671875,0.009107744321227074,-0.006295979022979736,0.0025654230266809464
1761315857976933600,11.00793359375,0.005773200653493404,-0.009169530123472214,0.0020940436515957117
1761315857986979800,11.017979736328124,0.006964432541280985,-0.006824616342782974,0.001392300589941442
1761315857997026600,11.028026611328125,0.007506385911256075,-0.008949019946157932,0.0016397082945331931
1761315858007073500,11.038073486328125,0.008694954216480255,-0.008552475832402706,0.0007241134881041944
1761315858017120500,11.04812060546875,0.006669087801128626,-0.006056028418242931,0.0006095975404605269
1761315858027167500,11.05816748046875,0.00692155584692955,-0.006426740437746048,0.0013883059145882726
1761315858037214700,11.068214599609375,0.008587895892560482,-0.007902930490672588,0.00177899154368788
1761315858047261700,11.07826171875,0.005379585549235344,-0.00618279492482543,0.0017206683987751603
1761315858057308700,11.08830859375,0.006975617725402117,-0.005106078926473856,0.0017715347930788994
1761315858067355600,11.098355712890625,0.006539658177644014,-0.00666535971686244,0.0006215817993506789
1761315858077402600,11.108402587890625,0.006710366811603308,-0.007186007685959339,0.0018735338235273957
1761315858087449600,11.11844970703125,0.005453355144709349,-0.006626743823289871,0.0024802018888294697
1761315858097496800,11.128496826171874,0.005742041394114494,-0.009059807285666466,0.002364886924624443
1761315858107543800,11.138543701171875,0.008510664105415344,-0.007895739749073982,0.003605920122936368
1761315858117590800,11.1485908203125,0.006819023750722408,-0.009363674558699131,0.0019172097090631723
1761315858127637500,11.158637451171876,0.0065260762348771095,-0.006400641519576311,0.0014500912511721253
1761315858137684500,11.1686845703125,0.008117315359413624,-0.0060174125246703625,0.002040514023974538
1761315858147731500,11.1787314453125,0.004028031136840582,-0.00762915750965476,0.0007518103811889887
1761315858157778700,11.18877880859375,0.007152984384447336,-0.00749014038592577,0.0014839133946225047
1761315858167825700,11.19882568359375,0.009720271453261375,-0.005834719631820917,0.001359277404844761
1761315858177872600,11.20887255859375,0.007858721539378166,-0.009668606333434582,0.00264824740588665
1761315858187919600,11.218919677734375,0.006666957400739193,-0.00902891531586647,0.0008391620358452201
1761315858197966600,11.228966552734375,0.006698382552713156,-0.007737814448773861,-0.000928377965465188
1761315858208013600,11.239013671875,0.00842464342713356,-0.006247243378311396,0.0034796863328665495
1761315858218060800,11.249060791015625,0.010245979763567448,-0.006923952605575323,0.0002109223569277674
1761315858228107800,11.259107666015625,0.008640892803668976,-0.006357498001307249,0.0011544802691787481
1761315858238154800,11.26915478515625,0.00726457079872489,-0.006740993354469538,0.0021467742044478655
1761315858248201700,11.27920166015625,0.007502391003072262,-0.0062789348885416985,0.0010274475207552314
1761315858258248400,11.28924853515625,0.008612129837274551,-0.007476558443158865,0.0007488809060305357
1761315858268295700,11.299295654296875,0.007616640534251928,-0.006909571588039398,0.00373082235455513
1761315858278342700,11.3093427734375,0.007786816451698542,-0.006854710169136524,0.0015486282063648105
1761315858288389600,11.3193896484375,0.005153216887265444,-0.007259510923177004,0.0013249226612970233
1761315858298436600,11.3294365234375,0.009049421176314354,-0.009608418680727482,0.0031009847298264503
1761315858308483600,11.339483642578125,0.010209760628640652,-0.007221959996968508,0.0030415961518883705
1761315858318530600,11.349530517578126,0.006040848325937986,-0.007918642833828926,0.0015544871566817164
1761315858328577800,11.359577880859375,0.007619836367666721,-0.008805742487311363,0.0008314388687722385
1761315858338624800,11.369624755859375,0.008241417817771435,-0.007705323863774538,0.004234159830957651
1761315858348671700,11.379671630859375,0.006999053526669741,-0.006712763570249081,0.002373941708356142
1761315858358718700,11.38971875,0.004923119675368071,-0.006051234435290098,0.0010956244077533484
1761315858368765700,11.399765625,0.008779376745223999,-0.00863263662904501,0.0013166668359190226
1761315858378812700,11.409812744140625,0.007252053823322058,-0.008352206088602543,0.002228266792371869
1761315858388859600,11.419859619140626,0.007072823122143745,-0.006193447392433882,0.0030088394414633512
1761315858398906600,11.42990673828125,0.006851780693978071,-0.006207562051713467,0.0031396006233990192
1761315858408953600,11.43995361328125,0.007504787761718035,-0.010832673870027065,0.0000977380113909021
1761315858419000600,11.45000048828125,0.00675244489684701,-0.008322378620505333,0.00287434970960021
1761315858429047600,11.460047607421876,0.008131695911288261,-0.00800439715385437,0.002496180823072791
1761315858439094500,11.470094482421874,0.010104033164680004,-0.008280833251774311,0.003063700394704938
1761315858449141800,11.480141845703125,0.008511196821928024,-0.006991330534219742,0.0008239820599555969
1761315858459188700,11.490188720703125,0.007984423078596592,-0.009181248024106026,0.0029148298781365156
1761315858469235700,11.500235595703124,0.008200671523809433,-0.0076086511835455894,0.002398176584392786
1761315858479282700,11.51028271484375,0.007852064445614815,-0.008648881688714027,0.001728391507640481
1761315858489329700,11.52032958984375,0.008791094645857811,-0.008730107918381691,0.0022367890924215317
1761315858499376600,11.530376708984376,0.007840612903237343,-0.009592439979314804,0.002793123247101903
1761315858509422600,11.540422607421876,0.006774283014237881,-0.01079725380986929,0.00030786142451688647
1761315858519469800,11.5504697265625,0.00809015054255724,-0.006825415417551994,0.002560629276558757
1761315858529516800,11.560516845703125,0.007249657064676285,-0.00768748065456748,0.0004623247659765184
1761315858539563800,11.570563720703126,0.004959604702889919,-0.007706122938543558,0.004443484358489513
1761315858549610500,11.580610595703124,0.010626545175909996,-0.007778294384479523,-0.00021118867152836174
1761315858559657500,11.590657470703125,0.008268316276371479,-0.009906427003443241,0.0026136261876672506
1761315858569704700,11.60070458984375,0.00902731716632843,-0.007121292874217033,0.004209658596664667
1761315858579751700,11.610751708984376,0.007876032963395119,-0.006341252941638231,0.0009366337326355278
1761315858589798700,11.620798583984374,0.007394533138722181,-0.010613495483994484,0.0007821703911758959
1761315858599845600,11.630845703125,0.006997189484536648,-0.008500809781253338,0.003829359309747815
1761315858609892600,11.640892578125,0.007381749805063009,-0.00863103847950697,0.0005914880894124508
1761315858619939600,11.650939697265626,0.004553206264972687,-0.005422195885330439,0.0023638217244297266
1761315858629986800,11.66098681640625,0.007196926511824131,-0.006872553378343582,0.0016397082945331931
1761315858640033800,11.67103369140625,0.006926615722477436,-0.008532768115401268,0.003457315731793642
1761315858650080800,11.681080810546876,0.007712248247116804,-0.008280833251774311,0.0029401297215372324
1761315858660127700,11.691127685546874,0.007862184196710587,-0.0059596216306090355,0.0013960290234535933
1761315858670174700,11.7011748046875,0.0063092950731515884,-0.007163903210312128,0.0017816547770053148
1761315858680221400,11.711221435546875,0.005356681998819113,-0.009601227939128876,0.0011502192355692387
1761315858690268700,11.7212685546875,0.007189735770225525,-0.007788680959492922,0.0023369237314909697
1761315858700315600,11.731315673828124,0.007169229444116354,-0.00794234499335289,0.000693220819812268
1761315858710362600,11.741362548828125,0.008591890335083008,-0.009454221464693546,0.0019409117521718144
1761315858720409600,11.75140966796875,0.00914715975522995,-0.00923264678567648,0.000818123109638691
1761315858730456600,11.76145654296875,0.008339955471456051,-0.008567655459046364,0.0005661880713887513
1761315858740503600,11.771503662109374,0.00896739587187767,-0.007588677573949099,0.0007835020078346133
1761315858750550800,11.78155078125,0.008321845903992653,-0.006105563137680292,0.0007779093575663865
1761315858760597800,11.79159765625,0.00757988914847374,-0.008222243748605251,0.003317499766126275
1761315858770644700,11.801644775390624,0.008423046208918095,-0.007352188695222139,0.0014444985426962376
1761315858780691700,11.811691650390625,0.007993744686245918,-0.007911453023552895,0.00005352953667170368
1761315858790738700,11.82173876953125,0.009101619012653828,-0.009365006349980831,0.0018064221367239952
1761315858800785700,11.83178564453125,0.007303186692297459,-0.007831291295588017,0.0025534387677907944
1761315858810832600,11.84183251953125,0.008256864733994007,-0.008170045912265778,0.0030900659039616585
1761315858820879600,11.851879638671875,0.007870972156524658,-0.008383364416658878,0.0006370281334966421
1761315858830926600,11.861926513671875,0.007415039464831352,-0.007445399183779955,0.0009230516152456403
1761315858840973600,11.8719736328125,0.007791077718138695,-0.004959338344633579,0.002950782421976328
1761315858851020500,11.8820205078125,0.007317834068089724,-0.00794314406812191,0.0011765845119953156
1761315858861067800,11.89206787109375,0.007133809383958578,-0.005853095557540655,0.0031499869655817747
1761315858871114800,11.90211474609375,0.006894924212247133,-0.0075761605985462666,0.002805906580761075
1761315858881161700,11.91216162109375,0.008833439089357853,-0.007198257837444544,0.0019081549253314734
