time,seconds_elapsed,z,y,x
1761315788065434600,0.0544345703125,-0.984954833984375,-0.00286865234375,-0.0158843994140625
1761315788075481600,0.064481689453125,-0.9859161376953125,-0.00201416015625,-0.0148468017578125
1761315788085525800,0.07452587890625,-0.9859466552734375,-0.0019683837890625,-0.0163116455078125
1761315788095573800,0.08457373046875,-0.98553466796875,-0.0013427734375,-0.016876220703125
1761315788105620700,0.094620849609375,-0.98626708984375,-0.0032806396484375,-0.0166015625
1761315788115667700,0.104667724609375,-0.985565185546875,-0.0024261474609375,-0.01513671875
1761315788125715700,0.1147158203125,-0.985626220703125,-0.00286865234375,-0.015655517578125
1761315788135762700,0.1247626953125,-0.98590087890625,-0.00250244140625,-0.016021728515625
1761315788145809700,0.1348095703125,-0.985687255859375,-0.0027008056640625,-0.015838623046875
1761315788155858000,0.14485791015625,-0.9862823486328125,-0.002777099609375,-0.0159759521484375
1761315788165904600,0.154904541015625,-0.9853363037109375,-0.0022430419921875,-0.016387939453125
1761315788175952600,0.16495263671875,-0.9865570068359375,-0.0025787353515625,-0.01568603515625
1761315788185999600,0.17499951171875,-0.9858856201171875,-0.001922607421875,-0.0160064697265625
1761315788196046800,0.185046875,-0.9855804443359375,-0.0027923583984375,-0.0164642333984375
1761315788206094800,0.1950947265625,-0.9859771728515625,-0.0022125244140625,-0.0167236328125
1761315788216141800,0.205141845703125,-0.985198974609375,-0.0020751953125,-0.0172576904296875
1761315788226188500,0.2151884765625,-0.985931396484375,-0.00177001953125,-0.015106201171875
1761315788236236800,0.22523681640625,-0.98529052734375,-0.0025177001953125,-0.0163116455078125
1761315788246283800,0.23528369140625,-0.9857940673828125,-0.002410888671875,-0.0159759521484375
1761315788256330800,0.245330810546875,-0.9858551025390625,-0.0025787353515625,-0.0152587890625
1761315788266378800,0.255378662109375,-0.9855804443359375,-0.0024871826171875,-0.016021728515625
1761315788276425700,0.26542578125,-0.985931396484375,-0.0024566650390625,-0.016021728515625
1761315788286473700,0.2754736328125,-0.9855804443359375,-0.0021514892578125,-0.0162353515625
1761315788296520700,0.285520751953125,-0.98553466796875,-0.00189208984375,-0.015472412109375
1761315788306567700,0.295567626953125,-0.9854583740234375,-0.001800537109375,-0.0155487060546875
1761315788316616000,0.305615966796875,-0.9857330322265625,-0.0020294189453125,-0.015045166015625
1761315788326662700,0.31566259765625,-0.9862213134765625,-0.0026702880859375,-0.0160369873046875
1761315788336709600,0.325709716796875,-0.9869842529296875,-0.0020751953125,-0.0163726806640625
1761315788346757600,0.335757568359375,-0.9857025146484375,-0.00225830078125,-0.0164642333984375
1761315788356804600,0.3458046875,-0.985809326171875,-0.001922607421875,-0.01556396484375
1761315788366852900,0.355852783203125,-0.986114501953125,-0.001983642578125,-0.0161895751953125
1761315788376899800,0.36589990234375,-0.9860382080078125,-0.0027008056640625,-0.0157928466796875
1761315788386946600,0.375946533203125,-0.98638916015625,-0.0027618408203125,-0.015472412109375
1761315788396994800,0.385994873046875,-0.98565673828125,-0.0025177001953125,-0.01568603515625
1761315788407041800,0.396041748046875,-0.9852294921875,-0.0025634765625,-0.0155792236328125
1761315788417088800,0.4060888671875,-0.985504150390625,-0.002349853515625,-0.0157470703125
1761315788427136800,0.41613671875,-0.9865875244140625,-0.0019989013671875,-0.016021728515625
1761315788437183700,0.426183837890625,-0.985443115234375,-0.001861572265625,-0.0157928466796875
1761315788447230700,0.436230712890625,-0.9859466552734375,-0.0020751953125,-0.015045166015625
1761315788457278700,0.44627880859375,-0.985870361328125,-0.0020751953125,-0.015289306640625
1761315788467325700,0.45632568359375,-0.986419677734375,-0.002655029296875,-0.0151214599609375
1761315788477373700,0.466373779296875,-0.985992431640625,-0.0032806396484375,-0.01580810546875
1761315788487420700,0.476420654296875,-0.9853363037109375,-0.0023651123046875,-0.01629638671875
1761315788497467600,0.486467529296875,-0.9855194091796875,-0.0029754638671875,-0.01519775390625
1761315788507515600,0.496515625,-0.9850921630859375,-0.0025634765625,-0.0154266357421875
1761315788517562600,0.506562744140625,-0.985809326171875,-0.0025787353515625,-0.01556396484375
1761315788527609900,0.51660986328125,-0.9857025146484375,-0.00286865234375,-0.015472412109375
1761315788537657900,0.526657958984375,-0.985870361328125,-0.002166748046875,-0.0169525146484375
1761315788547704600,0.53670458984375,-0.9855499267578125,-0.0022735595703125,-0.01641845703125
1761315788557752600,0.546752685546875,-0.985504150390625,-0.0021820068359375,-0.0162353515625
1761315788567799800,0.5567998046875,-0.9856719970703125,-0.0021209716796875,-0.016143798828125
1761315788577846800,0.5668466796875,-0.9856719970703125,-0.00262451171875,-0.0171051025390625
1761315788587894800,0.576894775390625,-0.98614501953125,-0.0027618408203125,-0.0161285400390625
1761315788597941800,0.586941650390625,-0.9853973388671875,-0.0026092529296875,-0.016082763671875
1761315788607988500,0.596988525390625,-0.9853515625,-0.00225830078125,-0.01605224609375
1761315788618036700,0.60703662109375,-0.985076904296875,-0.00238037109375,-0.0163726806640625
1761315788628083700,0.617083740234375,-0.985198974609375,-0.00225830078125,-0.0158538818359375
1761315788638130700,0.627130615234375,-0.986297607421875,-0.0023956298828125,-0.016357421875
1761315788648178700,0.6371787109375,-0.9860687255859375,-0.0028533935546875,-0.016326904296875
1761315788658225700,0.6472255859375,-0.98583984375,-0.0025634765625,-0.014984130859375
1761315788668273700,0.657273681640625,-0.9853668212890625,-0.002716064453125,-0.015167236328125
1761315788678320600,0.667320556640625,-0.9853057861328125,-0.0026702880859375,-0.016754150390625
1761315788688367600,0.67736767578125,-0.984954833984375,-0.001556396484375,-0.01617431640625
1761315788698415900,0.687415771484375,-0.986572265625,-0.0020751953125,-0.015472412109375
1761315788708462600,0.697462646484375,-0.985504150390625,-0.0023193359375,-0.0164337158203125
1761315788718509600,0.707509521484375,-0.9853973388671875,-0.0022735595703125,-0.01654052734375
1761315788728557800,0.717557861328125,-0.9853057861328125,-0.0026397705078125,-0.0168609619140625
1761315788738604800,0.727604736328125,-0.9854888916015625,-0.0025634765625,-0.015899658203125
1761315788748651800,0.73765185546875,-0.9853668212890625,-0.0025177001953125,-0.0159912109375
1761315788758699800,0.74769970703125,-0.98480224609375,-0.0023040771484375,-0.0158843994140625
1761315788768746500,0.75774658203125,-0.9862213134765625,-0.0024566650390625,-0.0159454345703125
1761315788778794800,0.767794677734375,-0.9863739013671875,-0.0021514892578125,-0.0161285400390625
1761315788788841700,0.777841796875,-0.9856414794921875,-0.002410888671875,-0.016265869140625
1761315788798888700,0.787888671875,-0.9860382080078125,-0.002166748046875,-0.016448974609375
1761315788808936700,0.797936767578125,-0.9860382080078125,-0.002532958984375,-0.0160064697265625
1761315788818983700,0.807983642578125,-0.98602294921875,-0.0016326904296875,-0.0167083740234375
1761315788829030700,0.81803076171875,-0.986358642578125,-0.002777099609375,-0.0166778564453125
1761315788839078700,0.82807861328125,-0.986785888671875,-0.0020599365234375,-0.0159149169921875
1761315788849126400,0.83812646484375,-0.9856719970703125,-0.001983642578125,-0.016357421875
1761315788859173400,0.84817333984375,-0.98583984375,-0.0019378662109375,-0.0155181884765625
1761315788869221000,0.85822119140625,-0.9855804443359375,-0.0025482177734375,-0.0158233642578125
1761315788879268400,0.868268310546875,-0.9844818115234375,-0.0027313232421875,-0.0153350830078125
1761315788889316400,0.87831640625,-0.9847412109375,-0.0025634765625,-0.016448974609375
1761315788899363300,0.88836328125,-0.9862823486328125,-0.002349853515625,-0.0157470703125
1761315788909410300,0.898410400390625,-0.9868621826171875,-0.0020904541015625,-0.0149688720703125
1761315788919458300,0.908458251953125,-0.9857635498046875,-0.0023651123046875,-0.0162506103515625
1761315788929505300,0.91850537109375,-0.98504638671875,-0.002899169921875,-0.0161285400390625
1761315788939552300,0.92855224609375,-0.9852294921875,-0.0028228759765625,-0.0157012939453125
1761315788949600300,0.938600341796875,-0.9859161376953125,-0.003326416015625,-0.01617431640625
1761315788959647200,0.948647216796875,-0.985504150390625,-0.003021240234375,-0.0151824951171875
1761315788969694500,0.958694580078125,-0.9852447509765625,-0.0027923583984375,-0.015869140625
1761315788979742200,0.9687421875,-0.984710693359375,-0.0025634765625,-0.015716552734375
1761315788989789200,0.9787890625,-0.98565673828125,-0.0020294189453125,-0.0155792236328125
1761315788999837400,0.98883740234375,-0.9859619140625,-0.0025482177734375,-0.016082763671875
1761315789009884400,0.998884521484375,-0.9864959716796875,-0.00299072265625,-0.015899658203125
1761315789019931400,1.008931396484375,-0.9850616455078125,-0.00238037109375,-0.01593017578125
1761315789029979100,1.018979248046875,-0.9854278564453125,-0.0028839111328125,-0.0152740478515625
1761315789040026000,1.029026123046875,-0.9852142333984375,-0.00286865234375,-0.01556396484375
1761315789050073300,1.0390732421875,-0.9851531982421875,-0.00213623046875,-0.0157928466796875
1761315789060121300,1.049121337890625,-0.9853515625,-0.001983642578125,-0.015350341796875
1761315789070168300,1.059168212890625,-0.9852752685546875,-0.001922607421875,-0.0164947509765625
1761315789080216300,1.06921630859375,-0.9857635498046875,-0.0026702880859375,-0.016082763671875
1761315789090263300,1.07926318359375,-0.985626220703125,-0.002288818359375,-0.015960693359375
1761315789100310300,1.089310302734375,-0.985992431640625,-0.0024871826171875,-0.0159912109375
1761315789110358300,1.099358154296875,-0.984893798828125,-0.0022430419921875,-0.0162353515625
1761315789120405200,1.1094052734375,-0.985565185546875,-0.003387451171875,-0.0165557861328125
1761315789130452500,1.119452392578125,-0.985382080078125,-0.002471923828125,-0.016510009765625
1761315789140500200,1.129500244140625,-0.9850311279296875,-0.0016937255859375,-0.0155487060546875
1761315789150547200,1.139547119140625,-0.9854736328125,-0.0023956298828125,-0.0153350830078125
1761315789160594200,1.14959423828125,-0.98529052734375,-0.002471923828125,-0.0156707763671875
1761315789170642400,1.159642333984375,-0.985870361328125,-0.0032806396484375,-0.0158538818359375
1761315789180689400,1.169689453125,-0.984954833984375,-0.0023956298828125,-0.015777587890625
1761315789190736400,1.179736328125,-0.985931396484375,-0.002197265625,-0.0152435302734375
1761315789200784100,1.1897841796875,-0.9856109619140625,-0.002197265625,-0.0159149169921875
1761315789210831400,1.199831298828125,-0.9848480224609375,-0.0016937255859375,-0.016021728515625
1761315789220879400,1.20987939453125,-0.9856414794921875,-0.0023651123046875,-0.0159454345703125
1761315789230926300,1.21992626953125,-0.9859771728515625,-0.0023956298828125,-0.0159149169921875
1761315789240973300,1.229973388671875,-0.9857330322265625,-0.0016937255859375,-0.0158538818359375
1761315789251021300,1.240021240234375,-0.9860382080078125,-0.0030059814453125,-0.0156707763671875
1761315789261068300,1.250068359375,-0.98663330078125,-0.0022125244140625,-0.0165863037109375
1761315789271115300,1.260115234375,-0.9850616455078125,-0.0028839111328125,-0.016815185546875
1761315789281163300,1.270163330078125,-0.9844970703125,-0.0021820068359375,-0.0160369873046875
1761315789291210500,1.28021044921875,-0.9854888916015625,-0.0022735595703125,-0.0161895751953125
1761315789301257500,1.290257568359375,-0.986175537109375,-0.001922607421875,-0.015289306640625
1761315789311305200,1.30030517578125,-0.985626220703125,-0.00238037109375,-0.015411376953125
1761315789321352200,1.310352294921875,-0.9859466552734375,-0.0020599365234375,-0.016510009765625
1761315789331400400,1.320400390625,-0.9854278564453125,-0.002197265625,-0.0162811279296875
1761315789341447400,1.330447509765625,-0.9850921630859375,-0.00238037109375,-0.015228271484375
1761315789351494400,1.340494384765625,-0.9862060546875,-0.002197265625,-0.0162811279296875
1761315789361542100,1.350542236328125,-0.9857635498046875,-0.0032958984375,-0.0166168212890625
1761315789371589000,1.360589111328125,-0.98504638671875,-0.0027923583984375,-0.0165557861328125
1761315789381636400,1.37063623046875,-0.98516845703125,-0.002166748046875,-0.0157623291015625
1761315789391684400,1.380684326171875,-0.985137939453125,-0.0023345947265625,-0.01544189453125
1761315789401731300,1.3907314453125,-0.984588623046875,-0.002044677734375,-0.016693115234375
1761315789411778300,1.4007783203125,-0.98602294921875,-0.00213623046875,-0.0163726806640625
1761315789421826300,1.410826416015625,-0.98565673828125,-0.001708984375,-0.0159454345703125
1761315789431873300,1.420873291015625,-0.98486328125,-0.0023651123046875,-0.0165252685546875
1761315789441921300,1.43092138671875,-0.9854736328125,-0.0030975341796875,-0.015289306640625
1761315789451968300,1.44096826171875,-0.9856109619140625,-0.0027313232421875,-0.0163421630859375
1761315789462015500,1.451015380859375,-0.98614501953125,-0.0023956298828125,-0.0163421630859375
1761315789472063200,1.461063232421875,-0.986541748046875,-0.00201416015625,-0.016082763671875
1761315789482110200,1.471110107421875,-0.986663818359375,-0.0020294189453125,-0.0164031982421875
1761315789492157200,1.4811572265625,-0.9851837158203125,-0.002685546875,-0.01556396484375
1761315789502205400,1.491205322265625,-0.9852752685546875,-0.002532958984375,-0.01611328125
1761315789512252400,1.50125244140625,-0.986053466796875,-0.0025634765625,-0.016815185546875
1761315789522299400,1.51129931640625,-0.9861907958984375,-0.00225830078125,-0.0161285400390625
1761315789532347100,1.52134716796875,-0.9859619140625,-0.0024871826171875,-0.015167236328125
1761315789542394400,1.531394287109375,-0.985992431640625,-0.0027313232421875,-0.0165252685546875
1761315789552441300,1.54144140625,-0.986053466796875,-0.002227783203125,-0.0155487060546875
1761315789562489300,1.5514892578125,-0.9858856201171875,-0.003204345703125,-0.0152435302734375
1761315789572536300,1.561536376953125,-0.9856414794921875,-0.00244140625,-0.0162506103515625
1761315789582584300,1.571584228515625,-0.985931396484375,-0.0023193359375,-0.016448974609375
1761315789592631300,1.58163134765625,-0.9860992431640625,-0.0023193359375,-0.01568603515625
1761315789602678300,1.59167822265625,-0.986236572265625,-0.00250244140625,-0.0157928466796875
1761315789612726300,1.601726318359375,-0.9852447509765625,-0.00244140625,-0.0159454345703125
1761315789622773500,1.6117734375,-0.9857940673828125,-0.002227783203125,-0.0155181884765625
1761315789632820500,1.621820556640625,-0.9851531982421875,-0.0023040771484375,-0.016204833984375
1761315789642868200,1.6318681640625,-0.9852142333984375,-0.0020904541015625,-0.0158233642578125
1761315789652915200,1.641915283203125,-0.9857330322265625,-0.002410888671875,-0.015869140625
1761315789662962200,1.651962158203125,-0.9852142333984375,-0.00213623046875,-0.015106201171875
1761315789673010400,1.662010498046875,-0.9859466552734375,-0.0019073486328125,-0.016082763671875
1761315789683057400,1.672057373046875,-0.9847869873046875,-0.00213623046875,-0.016387939453125
1761315789693105200,1.682105224609375,-0.9849090576171875,-0.00250244140625,-0.01617431640625
1761315789703152000,1.692152099609375,-0.985137939453125,-0.0023193359375,-0.0164642333984375
1761315789713199400,1.702199462890625,-0.9862518310546875,-0.002227783203125,-0.016448974609375
1761315789723247400,1.712247314453125,-0.9851531982421875,-0.0025787353515625,-0.015960693359375
1761315789733294300,1.72229443359375,-0.9855804443359375,-0.0020904541015625,-0.0157012939453125
1761315789743341300,1.73234130859375,-0.9852294921875,-0.0020599365234375,-0.015838623046875
1761315789753389300,1.742389404296875,-0.9859466552734375,-0.0023651123046875,-0.015869140625
1761315789763436300,1.752436279296875,-0.98553466796875,-0.0026397705078125,-0.0168914794921875
1761315789773483300,1.762483154296875,-0.9859619140625,-0.002532958984375,-0.016387939453125
1761315789783531300,1.77253125,-0.9849395751953125,-0.0028076171875,-0.015380859375
1761315789793578500,1.78257861328125,-0.9857177734375,-0.001922607421875,-0.016204833984375
1761315789803625500,1.79262548828125,-0.985321044921875,-0.0022125244140625,-0.0162811279296875
1761315789813673200,1.802673095703125,-0.9853515625,-0.002471923828125,-0.0162200927734375
1761315789823720200,1.81272021484375,-0.9855194091796875,-0.0025787353515625,-0.0158233642578125
1761315789833768400,1.8227685546875,-0.98529052734375,-0.002105712890625,-0.016021728515625
1761315789843815400,1.8328154296875,-0.9854583740234375,-0.0021514892578125,-0.0161285400390625
1761315789853858600,1.842858642578125,-0.98443603515625,-0.0023956298828125,-0.0155029296875
1761315789863906600,1.852906494140625,-0.9861602783203125,-0.0022735595703125,-0.01611328125
1761315789873953500,1.86295361328125,-0.9859161376953125,-0.0024566650390625,-0.01611328125
1761315789884000500,1.87300048828125,-0.9851837158203125,-0.002685546875,-0.0158233642578125
1761315789894048500,1.883048583984375,-0.986053466796875,-0.0023956298828125,-0.0153656005859375
1761315789904095700,1.893095703125,-0.985137939453125,-0.001800537109375,-0.016204833984375
1761315789914142700,1.903142822265625,-0.9844970703125,-0.0022735595703125,-0.01629638671875
1761315789924190500,1.9131904296875,-0.9854736328125,-0.0029296875,-0.01544189453125
1761315789934237400,1.923237548828125,-0.985931396484375,-0.0027008056640625,-0.0160369873046875
1761315789944285700,1.93328564453125,-0.9854583740234375,-0.0021209716796875,-0.01593017578125
1761315789954332700,1.943332763671875,-0.9866180419921875,-0.002044677734375,-0.01654052734375
1761315789964379600,1.953379638671875,-0.98577880859375,-0.0017242431640625,-0.01513671875
1761315789974427400,1.963427490234375,-0.986175537109375,-0.0023193359375,-0.015838623046875
1761315789984474600,1.973474609375,-0.9854736328125,-0.0021820068359375,-0.0161285400390625
1761315789994521600,1.983521484375,-0.985443115234375,-0.0016326904296875,-0.0167236328125
1761315790004569600,1.993569580078125,-0.9859161376953125,-0.001739501953125,-0.0163421630859375
1761315790014616600,2.003616455078125,-0.9859771728515625,-0.002044677734375,-0.016357421875
1761315790024663600,2.01366357421875,-0.9861907958984375,-0.0021820068359375,-0.015289306640625
1761315790034711600,2.023711669921875,-0.985443115234375,-0.002593994140625,-0.0162506103515625
1761315790044758500,2.033758544921875,-0.986419677734375,-0.00238037109375,-0.015655517578125
1761315790054805500,2.043805419921875,-0.9857635498046875,-0.002197265625,-0.0159759521484375
1761315790064853500,2.053853515625,-0.9859771728515625,-0.0027618408203125,-0.0163116455078125
1761315790074900700,2.063900634765625,-0.9860992431640625,-0.002655029296875,-0.0158233642578125
1761315790084948500,2.073948486328125,-0.985992431640625,-0.0022125244140625,-0.015655517578125
1761315790094995500,2.083995361328125,-0.9858245849609375,-0.0025177001953125,-0.015594482421875
1761315790105042400,2.09404248046875,-0.985137939453125,-0.0020751953125,-0.015533447265625
1761315790115090700,2.104090576171875,-0.9856414794921875,-0.0031585693359375,-0.0160064697265625
1761315790125137700,2.1141376953125,-0.9854278564453125,-0.0025634765625,-0.0162200927734375
1761315790135184600,2.1241845703125,-0.98565673828125,-0.0018157958984375,-0.0159912109375
1761315790145232400,2.134232421875,-0.9851837158203125,-0.001953125,-0.0159912109375
1761315790155279600,2.144279541015625,-0.9857940673828125,-0.0024566650390625,-0.0158538818359375
1761315790165326600,2.15432666015625,-0.9857025146484375,-0.0023651123046875,-0.0152435302734375
1761315790175374600,2.16437451171875,-0.9855804443359375,-0.0021514892578125,-0.0156707763671875
1761315790185421600,2.174421630859375,-0.9855194091796875,-0.0022125244140625,-0.0163421630859375
1761315790195468500,2.184468505859375,-0.986785888671875,-0.0024871826171875,-0.0158843994140625
1761315790205516500,2.1945166015625,-0.9861602783203125,-0.0023651123046875,-0.01531982421875
1761315790215563500,2.2045634765625,-0.98541259765625,-0.002593994140625,-0.016571044921875
1761315790225611500,2.214611572265625,-0.985809326171875,-0.00262451171875,-0.0160369873046875
1761315790235658800,2.22465869140625,-0.986602783203125,-0.001861572265625,-0.0161590576171875
1761315790245705700,2.234705810546875,-0.98602294921875,-0.0020751953125,-0.0162353515625
1761315790255753500,2.24475341796875,-0.9851837158203125,-0.001434326171875,-0.0161895751953125
1761315790265800400,2.254800537109375,-0.9859466552734375,-0.002685546875,-0.015838623046875
1761315790275847400,2.264847412109375,-0.986572265625,-0.002166748046875,-0.015655517578125
1761315790285895700,2.274895751953125,-0.9856109619140625,-0.002471923828125,-0.016693115234375
1761315790295942700,2.284942626953125,-0.985137939453125,-0.0027008056640625,-0.01611328125
1761315790305989400,2.2949892578125,-0.9851837158203125,-0.002227783203125,-0.0161590576171875
1761315790316037600,2.30503759765625,-0.9864349365234375,-0.0024566650390625,-0.016571044921875
1761315790326084600,2.315084716796875,-0.9851531982421875,-0.0014801025390625,-0.015472412109375
1761315790336131600,2.325131591796875,-0.98675537109375,-0.001800537109375,-0.015625
1761315790346179600,2.3351796875,-0.9855194091796875,-0.001800537109375,-0.01507568359375
1761315790356226600,2.3452265625,-0.9862060546875,-0.0018768310546875,-0.0150909423828125
1761315790366274600,2.355274658203125,-0.9855499267578125,-0.002471923828125,-0.0155487060546875
1761315790376321500,2.365321533203125,-0.9852447509765625,-0.002227783203125,-0.0158233642578125
1761315790386368500,2.375368408203125,-0.986297607421875,-0.00225830078125,-0.0163726806640625
1761315790396416800,2.385416748046875,-0.9857025146484375,-0.002685546875,-0.0158538818359375
1761315790406463700,2.395463623046875,-0.9853057861328125,-0.002288818359375,-0.0162200927734375
1761315790416510500,2.405510498046875,-0.9852142333984375,-0.002288818359375,-0.0161285400390625
1761315790426558500,2.415558349609375,-0.9850616455078125,-0.0028228759765625,-0.0153961181640625
1761315790436605400,2.42560546875,-0.98553466796875,-0.0027618408203125,-0.0157928466796875
1761315790446652700,2.435652587890625,-0.985870361328125,-0.002227783203125,-0.0154876708984375
1761315790456700700,2.44570068359375,-0.9852142333984375,-0.003021240234375,-0.015899658203125
1761315790466747600,2.45574755859375,-0.98529052734375,-0.0029144287109375,-0.0159912109375
1761315790476794400,2.46579443359375,-0.9859771728515625,-0.0016632080078125,-0.0151519775390625
1761315790486842600,2.475842529296875,-0.985992431640625,-0.0028228759765625,-0.0164642333984375
1761315790496889600,2.4858896484375,-0.985260009765625,-0.002960205078125,-0.0163726806640625
1761315790506937600,2.4959375,-0.9866485595703125,-0.0027313232421875,-0.0157012939453125
1761315790516984600,2.505984619140625,-0.986083984375,-0.0019683837890625,-0.0152435302734375
1761315790527031600,2.516031494140625,-0.9859619140625,-0.0020599365234375,-0.0153045654296875
1761315790537079600,2.52607958984375,-0.98486328125,-0.0022430419921875,-0.016448974609375
1761315790547126500,2.53612646484375,-0.9857177734375,-0.0016937255859375,-0.0164947509765625
1761315790557173500,2.546173583984375,-0.98602294921875,-0.0023956298828125,-0.0158843994140625
1761315790567221800,2.5562216796875,-0.98516845703125,-0.0031280517578125,-0.0166015625
1761315790577268500,2.5662685546875,-0.9862213134765625,-0.0032196044921875,-0.0168914794921875
1761315790587315500,2.5763154296875,-0.985443115234375,-0.00250244140625,-0.0159454345703125
1761315790597363500,2.586363525390625,-0.9870452880859375,-0.0029296875,-0.0158538818359375
1761315790607410400,2.596410400390625,-0.985687255859375,-0.0026702880859375,-0.01593017578125
1761315790617457700,2.606457763671875,-0.9860992431640625,-0.0024566650390625,-0.0160675048828125
1761315790627505700,2.616505615234375,-0.9859771728515625,-0.002288818359375,-0.0153350830078125
1761315790637552400,2.626552490234375,-0.985748291015625,-0.003021240234375,-0.0156402587890625
1761315790647599400,2.636599365234375,-0.985626220703125,-0.002349853515625,-0.014801025390625
1761315790657647600,2.646647705078125,-0.9858856201171875,-0.0017547607421875,-0.0149993896484375
1761315790667694600,2.656694580078125,-0.9862823486328125,-0.0021514892578125,-0.01605224609375
1761315790677742600,2.66674267578125,-0.985870361328125,-0.0026397705078125,-0.01544189453125
1761315790687789600,2.67678955078125,-0.98577880859375,-0.003173828125,-0.015777587890625
1761315790697836500,2.68683642578125,-0.9853515625,-0.002471923828125,-0.01690673828125
1761315790707884500,2.696884521484375,-0.9856414794921875,-0.0023193359375,-0.0160980224609375
1761315790717931500,2.706931640625,-0.9863128662109375,-0.002410888671875,-0.01568603515625
1761315790727978500,2.716978515625,-0.985443115234375,-0.0023651123046875,-0.0165863037109375
1761315790738026500,2.727026611328125,-0.9848480224609375,-0.002410888671875,-0.01641845703125
1761315790748073500,2.737073486328125,-0.985443115234375,-0.0031585693359375,-0.015899658203125
1761315790758120400,2.747120361328125,-0.9859161376953125,-0.0023193359375,-0.016082763671875
1761315790768168400,2.75716845703125,-0.9867401123046875,-0.00238037109375,-0.015899658203125
1761315790778215700,2.767215576171875,-0.9855804443359375,-0.0016021728515625,-0.0162200927734375
1761315790788262700,2.7772626953125,-0.986328125,-0.001708984375,-0.0154571533203125
1761315790798310400,2.787310302734375,-0.985076904296875,-0.0023040771484375,-0.0159454345703125
1761315790808357400,2.797357421875,-0.98529052734375,-0.0023956298828125,-0.01666259765625
1761315790818405600,2.807405517578125,-0.9859771728515625,-0.00250244140625,-0.0166778564453125
1761315790828452600,2.81745263671875,-0.9852294921875,-0.002899169921875,-0.015594482421875
1761315790838499600,2.82749951171875,-0.986114501953125,-0.0024261474609375,-0.0162506103515625
1761315790848547600,2.837547607421875,-0.9867706298828125,-0.0019378662109375,-0.0157928466796875
1761315790858594000,2.847593994140625,-0.9861297607421875,-0.0020294189453125,-0.0157012939453125
1761315790868641000,2.85764111328125,-0.98602294921875,-0.0026397705078125,-0.0155487060546875
1761315790878689000,2.86768896484375,-0.9864501953125,-0.0025787353515625,-0.016265869140625
1761315790888736000,2.877736083984375,-0.9845733642578125,-0.0026702880859375,-0.0156097412109375
1761315790898783000,2.887782958984375,-0.984893798828125,-0.0018310546875,-0.0163421630859375
1761315790908831200,2.897831298828125,-0.986053466796875,-0.0026702880859375,-0.0164642333984375
1761315790918878000,2.9078779296875,-0.9858245849609375,-0.0021209716796875,-0.016510009765625
1761315790928925000,2.917925048828125,-0.9856109619140625,-0.0029144287109375,-0.0167236328125
1761315790938973000,2.927972900390625,-0.985931396484375,-0.0020904541015625,-0.0150604248046875
1761315790949020200,2.938020263671875,-0.9865570068359375,-0.002716064453125,-0.015869140625
1761315790959067100,2.948067138671875,-0.9862213134765625,-0.002349853515625,-0.0162353515625
1761315790969115100,2.958115234375,-0.98553466796875,-0.0029449462890625,-0.01568603515625
1761315790979161900,2.968161865234375,-0.985931396484375,-0.0022735595703125,-0.016082763671875
1761315790989210000,2.978210205078125,-0.9862518310546875,-0.002349853515625,-0.0157012939453125
1761315790999257000,2.988257080078125,-0.98663330078125,-0.001861572265625,-0.016143798828125
1761315791009304000,2.998303955078125,-0.9849700927734375,-0.0018768310546875,-0.0162506103515625
1761315791019352000,3.00835205078125,-0.984771728515625,-0.0024566650390625,-0.016143798828125
1761315791029399000,3.01839892578125,-0.986572265625,-0.0020751953125,-0.01611328125
1761315791039446000,3.028446044921875,-0.986724853515625,-0.0021514892578125,-0.0162811279296875
1761315791049494000,3.038493896484375,-0.98541259765625,-0.0028533935546875,-0.0155792236328125
1761315791059541000,3.048541015625,-0.985260009765625,-0.0025634765625,-0.01507568359375
1761315791069588000,3.058587890625,-0.98529052734375,-0.0022125244140625,-0.0154876708984375
1761315791079636200,3.06863623046875,-0.9856414794921875,-0.002777099609375,-0.015411376953125
1761315791089683000,3.078682861328125,-0.98577880859375,-0.0020751953125,-0.015472412109375
1761315791099730000,3.08872998046875,-0.9860076904296875,-0.00177001953125,-0.015655517578125
1761315791109778200,3.098778076171875,-0.9853515625,-0.0015106201171875,-0.0154266357421875
1761315791119825200,3.1088251953125,-0.9855194091796875,-0.002532958984375,-0.016632080078125
1761315791129872100,3.1188720703125,-0.9850311279296875,-0.0024261474609375,-0.0163116455078125
1761315791139920000,3.128919921875,-0.986297607421875,-0.0017242431640625,-0.0164031982421875
1761315791149966800,3.138966796875,-0.9860382080078125,-0.002716064453125,-0.016204833984375
1761315791160015000,3.14901513671875,-0.985626220703125,-0.001739501953125,-0.0161895751953125
1761315791170062000,3.15906201171875,-0.9867706298828125,-0.0027313232421875,-0.0157012939453125
1761315791180109000,3.169109130859375,-0.986480712890625,-0.0030975341796875,-0.016204833984375
1761315791190157000,3.179156982421875,-0.9860687255859375,-0.0023193359375,-0.01654052734375
1761315791200204000,3.1892041015625,-0.9856414794921875,-0.0021820068359375,-0.0169830322265625
1761315791210251000,3.1992509765625,-0.984954833984375,-0.0028228759765625,-0.0161895751953125
1761315791220299000,3.209299072265625,-0.9860992431640625,-0.0020904541015625,-0.015594482421875
1761315791230346000,3.219345947265625,-0.9853363037109375,-0.0023193359375,-0.0160980224609375
1761315791240393200,3.229393310546875,-0.98492431640625,-0.00262451171875,-0.0165252685546875
1761315791250441000,3.23944091796875,-0.9859771728515625,-0.002105712890625,-0.0158233642578125
1761315791260488000,3.249488037109375,-0.9861907958984375,-0.0030975341796875,-0.0157470703125
1761315791270535000,3.259534912109375,-0.985595703125,-0.0024261474609375,-0.01580810546875
1761315791280583200,3.269583251953125,-0.9853668212890625,-0.00244140625,-0.0157928466796875
1761315791290630100,3.279630126953125,-0.9857940673828125,-0.0025482177734375,-0.0166778564453125
1761315791300677000,3.289677001953125,-0.985626220703125,-0.00189208984375,-0.0157318115234375
1761315791310724900,3.299724853515625,-0.985687255859375,-0.0026092529296875,-0.0154876708984375
1761315791320771800,3.309771728515625,-0.98504638671875,-0.0022735595703125,-0.0156097412109375
1761315791330819000,3.319819091796875,-0.985565185546875,-0.0020294189453125,-0.0162200927734375
1761315791340867000,3.3298671875,-0.9857940673828125,-0.0025482177734375,-0.015594482421875
1761315791350914000,3.3399140625,-0.9862823486328125,-0.002288818359375,-0.0152587890625
1761315791360962000,3.349962158203125,-0.98565673828125,-0.0020904541015625,-0.0163421630859375
1761315791371009000,3.360009033203125,-0.9851531982421875,-0.0024871826171875,-0.0164947509765625
1761315791381056000,3.370055908203125,-0.986358642578125,-0.0032501220703125,-0.016204833984375
1761315791391104000,3.38010400390625,-0.9859771728515625,-0.0032806396484375,-0.0163116455078125
1761315791401151000,3.39015087890625,-0.985748291015625,-0.0029296875,-0.016204833984375
1761315791411198200,3.4001982421875,-0.9841461181640625,-0.00244140625,-0.015716552734375
1761315791421246000,3.410245849609375,-0.9860382080078125,-0.0022125244140625,-0.0163116455078125
1761315791431293000,3.42029296875,-0.9850616455078125,-0.0028228759765625,-0.015777587890625
1761315791441340000,3.43033984375,-0.9863128662109375,-0.0027313232421875,-0.0160980224609375
1761315791451388200,3.44038818359375,-0.9857635498046875,-0.003143310546875,-0.0167999267578125
1761315791461435100,3.45043505859375,-0.985443115234375,-0.00299072265625,-0.0159912109375
1761315791471482000,3.460482177734375,-0.986297607421875,-0.0023345947265625,-0.0166778564453125
1761315791481529900,3.47052978515625,-0.98614501953125,-0.0025787353515625,-0.0164642333984375
1761315791491577000,3.4805771484375,-0.9860382080078125,-0.0028839111328125,-0.0157623291015625
1761315791501624000,3.4906240234375,-0.9860687255859375,-0.0024566650390625,-0.015594482421875
1761315791511672000,3.500672119140625,-0.98577880859375,-0.00177001953125,-0.0161285400390625
1761315791521719000,3.510718994140625,-0.986114501953125,-0.0019073486328125,-0.0162353515625
1761315791531766000,3.52076611328125,-0.986480712890625,-0.002471923828125,-0.01531982421875
1761315791541814000,3.53081396484375,-0.98565673828125,-0.0021209716796875,-0.01641845703125
1761315791551861000,3.540861083984375,-0.9849700927734375,-0.001708984375,-0.0165863037109375
1761315791561908000,3.550907958984375,-0.98602294921875,-0.0026397705078125,-0.0155792236328125
1761315791571956200,3.560956298828125,-0.9860382080078125,-0.001861572265625,-0.015960693359375
1761315791582003200,3.571003173828125,-0.9856414794921875,-0.0025634765625,-0.0153350830078125
1761315791592050200,3.58105029296875,-0.9852142333984375,-0.001861572265625,-0.0161285400390625
1761315791602098000,3.591097900390625,-0.986053466796875,-0.0023193359375,-0.0156402587890625
1761315791612145000,3.601144775390625,-0.985504150390625,-0.002410888671875,-0.014984130859375
1761315791622193200,3.611193115234375,-0.986083984375,-0.0025482177734375,-0.0160675048828125
1761315791632240000,3.621240234375,-0.9861297607421875,-0.002227783203125,-0.016357421875
1761315791642287000,3.631287109375,-0.986083984375,-0.00201416015625,-0.0159454345703125
1761315791652334800,3.6413349609375,-0.9861297607421875,-0.00177001953125,-0.0165863037109375
1761315791662382000,3.651382080078125,-0.9863739013671875,-0.0023956298828125,-0.01580810546875
1761315791672429000,3.661428955078125,-0.984619140625,-0.0022125244140625,-0.016510009765625
1761315791682477000,3.67147705078125,-0.9857330322265625,-0.002838134765625,-0.0167388916015625
1761315791692524000,3.68152392578125,-0.9853668212890625,-0.00262451171875,-0.0155487060546875
1761315791702571300,3.6915712890625,-0.9859619140625,-0.002288818359375,-0.01580810546875
1761315791712619000,3.701618896484375,-0.985992431640625,-0.0020751953125,-0.0159759521484375
1761315791722666000,3.711666015625,-0.985595703125,-0.002471923828125,-0.0149383544921875
1761315791732713000,3.721712890625,-0.9853363037109375,-0.001922607421875,-0.0158538818359375
1761315791742761200,3.73176123046875,-0.9859771728515625,-0.0029754638671875,-0.01690673828125
1761315791752808200,3.74180810546875,-0.98590087890625,-0.0022735595703125,-0.015655517578125
1761315791762855200,3.751855224609375,-0.985565185546875,-0.0028533935546875,-0.0163726806640625
1761315791772903000,3.76190283203125,-0.986083984375,-0.00244140625,-0.0158233642578125
1761315791782950100,3.7719501953125,-0.987152099609375,-0.0019683837890625,-0.015716552734375
1761315791792997000,3.7819970703125,-0.9854583740234375,-0.00238037109375,-0.0166168212890625
1761315791803045000,3.792045166015625,-0.98602294921875,-0.002227783203125,-0.0164031982421875
1761315791813092000,3.802092041015625,-0.986175537109375,-0.0023040771484375,-0.0161285400390625
1761315791823139000,3.81213916015625,-0.9857025146484375,-0.0015869140625,-0.01513671875
1761315791833187000,3.82218701171875,-0.9845123291015625,-0.0018768310546875,-0.015350341796875
1761315791843234000,3.832234130859375,-0.9860382080078125,-0.0016937255859375,-0.0158843994140625
1761315791853282800,3.84228271484375,-0.9851837158203125,-0.0028076171875,-0.0162353515625
1761315791863329800,3.852329833984375,-0.98590087890625,-0.0027618408203125,-0.0159912109375
1761315791873376800,3.862376708984375,-0.9847869873046875,-0.00250244140625,-0.016204833984375
1761315791883425000,3.872425048828125,-0.9853515625,-0.0017547607421875,-0.0162506103515625
1761315791893472000,3.882471923828125,-0.9865264892578125,-0.00213623046875,-0.016754150390625
1761315791903519000,3.89251904296875,-0.9854278564453125,-0.002410888671875,-0.016265869140625
1761315791913566700,3.902566650390625,-0.9849853515625,-0.002410888671875,-0.0174102783203125
1761315791923614000,3.912614013671875,-0.9864349365234375,-0.0019073486328125,-0.0173492431640625
1761315791933661000,3.922660888671875,-0.9862060546875,-0.002471923828125,-0.015411376953125
1761315791943709000,3.932708984375,-0.985595703125,-0.0028076171875,-0.016265869140625
1761315791953756000,3.942755859375,-0.985992431640625,-0.0021820068359375,-0.016021728515625
1761315791963803000,3.952802978515625,-0.9862213134765625,-0.002105712890625,-0.01666259765625
1761315791973851000,3.962850830078125,-0.9858245849609375,-0.002197265625,-0.0154571533203125
1761315791983897900,3.97289794921875,-0.9853668212890625,-0.0022125244140625,-0.0170745849609375
1761315791993944800,3.98294482421875,-0.9854278564453125,-0.0020599365234375,-0.0162200927734375
1761315792003993000,3.9929931640625,-0.98590087890625,-0.0024871826171875,-0.015350341796875
1761315792014040000,4.0030400390625,-0.984771728515625,-0.0023193359375,-0.0160064697265625
1761315792024087000,4.013087158203125,-0.9857940673828125,-0.001953125,-0.0166778564453125
1761315792034134800,4.023134765625,-0.9862213134765625,-0.0017852783203125,-0.0163726806640625
1761315792044181800,4.033181640625,-0.984619140625,-0.0022735595703125,-0.0155029296875
1761315792054229000,4.04322900390625,-0.985565185546875,-0.0027008056640625,-0.0155792236328125
1761315792064277000,4.053277099609375,-0.9854888916015625,-0.002777099609375,-0.0166168212890625
1761315792074324000,4.063323974609375,-0.985626220703125,-0.002410888671875,-0.01605224609375
1761315792084371000,4.073370849609375,-0.986724853515625,-0.002471923828125,-0.015533447265625
1761315792094419000,4.0834189453125,-0.9858856201171875,-0.002410888671875,-0.0153656005859375
1761315792104466000,4.0934658203125,-0.985504150390625,-0.00146484375,-0.0154571533203125
1761315792114513000,4.103512939453125,-0.985809326171875,-0.00286865234375,-0.0155792236328125
1761315792124561000,4.113560791015625,-0.985137939453125,-0.002288818359375,-0.0160675048828125
1761315792134608100,4.123608154296875,-0.9852752685546875,-0.0028839111328125,-0.0154266357421875
1761315792144656000,4.13365576171875,-0.9852447509765625,-0.003021240234375,-0.0158233642578125
1761315792154702800,4.143702880859375,-0.984832763671875,-0.00244140625,-0.016448974609375
1761315792164749800,4.153749755859375,-0.985504150390625,-0.0030059814453125,-0.01580810546875
1761315792174798000,4.163798095703125,-0.9854736328125,-0.0024566650390625,-0.0157012939453125
1761315792184845000,4.173844970703125,-0.98651123046875,-0.002685546875,-0.0167999267578125
1761315792194892000,4.18389208984375,-0.986297607421875,-0.0023651123046875,-0.0159912109375
1761315792204939800,4.193939697265625,-0.9860992431640625,-0.00250244140625,-0.0160064697265625
1761315792214987000,4.203987060546875,-0.9862213134765625,-0.0029144287109375,-0.0157623291015625
1761315792225034000,4.214033935546875,-0.9852294921875,-0.0029754638671875,-0.016204833984375
1761315792235082000,4.22408203125,-0.985565185546875,-0.002899169921875,-0.0165863037109375
1761315792245129000,4.23412890625,-0.986175537109375,-0.0025482177734375,-0.0156097412109375
1761315792255176000,4.244176025390625,-0.9853973388671875,-0.003692626953125,-0.0155792236328125
1761315792265224000,4.254223876953125,-0.985565185546875,-0.00244140625,-0.0162506103515625
1761315792275271000,4.26427099609375,-0.9863433837890625,-0.002197265625,-0.0157012939453125
1761315792285318000,4.27431787109375,-0.9856719970703125,-0.0022430419921875,-0.0166015625
1761315792295366000,4.284365966796875,-0.986602783203125,-0.002838134765625,-0.0156402587890625
1761315792305413000,4.2944130859375,-0.98541259765625,-0.0018157958984375,-0.0158843994140625
1761315792315459800,4.3044599609375,-0.9853668212890625,-0.001861572265625,-0.0163116455078125
1761315792325507800,4.3145078125,-0.98602294921875,-0.002471923828125,-0.016387939453125
1761315792335554800,4.324554931640625,-0.98583984375,-0.0026397705078125,-0.0157928466796875
1761315792345602000,4.33460205078125,-0.98590087890625,-0.0021209716796875,-0.016448974609375
1761315792355650000,4.344650146484375,-0.98651123046875,-0.002716064453125,-0.0162811279296875
1761315792365697000,4.354697021484375,-0.9854278564453125,-0.002410888671875,-0.016265869140625
1761315792375743700,4.36474365234375,-0.9853057861328125,-0.002197265625,-0.015533447265625
1761315792385792000,4.3747919921875,-0.9858551025390625,-0.002105712890625,-0.0158843994140625
1761315792395839000,4.3848388671875,-0.9853668212890625,-0.001953125,-0.01629638671875
1761315792405886000,4.394885986328125,-0.98486328125,-0.00225830078125,-0.0151214599609375
1761315792415934000,4.404933837890625,-0.9857177734375,-0.0026092529296875,-0.0158233642578125
1761315792425981000,4.41498095703125,-0.9859466552734375,-0.002777099609375,-0.015838623046875
1761315792436028000,4.42502783203125,-0.985809326171875,-0.0023193359375,-0.01544189453125
1761315792446076000,4.435075927734375,-0.985565185546875,-0.002410888671875,-0.01629638671875
1761315792456123000,4.445122802734375,-0.985748291015625,-0.002685546875,-0.0163726806640625
1761315792466169900,4.455169921875,-0.9858245849609375,-0.0021514892578125,-0.0151519775390625
1761315792476218000,4.465218017578125,-0.985382080078125,-0.0024261474609375,-0.015350341796875
1761315792486264800,4.475264892578125,-0.9851837158203125,-0.0029754638671875,-0.0159454345703125
1761315792496311800,4.485311767578125,-0.9851837158203125,-0.0016937255859375,-0.01507568359375
1761315792506359800,4.49535986328125,-0.9859466552734375,-0.002532958984375,-0.016021728515625
1761315792516407000,4.505406982421875,-0.986083984375,-0.002410888671875,-0.0153961181640625
1761315792526454000,4.5154541015625,-0.9863128662109375,-0.00286865234375,-0.0157623291015625
1761315792536501800,4.525501708984375,-0.9858551025390625,-0.0016326904296875,-0.015838623046875
1761315792546548700,4.535548828125,-0.9851226806640625,-0.0020294189453125,-0.0156402587890625
1761315792556596000,4.545595947265625,-0.9858856201171875,-0.002105712890625,-0.0159759521484375
1761315792566644000,4.55564404296875,-0.9860992431640625,-0.0017852783203125,-0.0163421630859375
1761315792576691000,4.56569091796875,-0.9861297607421875,-0.0028076171875,-0.0156707763671875
1761315792586739000,4.575739013671875,-0.985870361328125,-0.003143310546875,-0.015655517578125
1761315792596786000,4.585785888671875,-0.9857635498046875,-0.0023040771484375,-0.016571044921875
1761315792606833000,4.5958330078125,-0.9849700927734375,-0.0024566650390625,-0.01580810546875
1761315792616881000,4.605880859375,-0.9856414794921875,-0.0023193359375,-0.0157470703125
1761315792626927900,4.615927978515625,-0.9853973388671875,-0.001800537109375,-0.01568603515625
1761315792636974800,4.625974853515625,-0.98602294921875,-0.0021820068359375,-0.015167236328125
1761315792647022800,4.63602294921875,-0.98492431640625,-0.002410888671875,-0.016021728515625
1761315792657069800,4.64606982421875,-0.98553466796875,-0.0019989013671875,-0.015777587890625
1761315792667116800,4.65611669921875,-0.9855499267578125,-0.002410888671875,-0.0155487060546875
1761315792677165000,4.6661650390625,-0.9857940673828125,-0.0028228759765625,-0.015777587890625
1761315792687212000,4.6762119140625,-0.9857330322265625,-0.0023040771484375,-0.016448974609375
1761315792697259000,4.686259033203125,-0.985321044921875,-0.0025177001953125,-0.0160064697265625
1761315792707306800,4.696306640625,-0.9852447509765625,-0.0027618408203125,-0.015777587890625
1761315792717353700,4.706353759765625,-0.9859619140625,-0.0020294189453125,-0.016204833984375
1761315792727401000,4.71640087890625,-0.9859161376953125,-0.0034942626953125,-0.0164947509765625
1761315792737449000,4.726448974609375,-0.98699951171875,-0.0018157958984375,-0.01568603515625
1761315792747496000,4.736495849609375,-0.9853363037109375,-0.003448486328125,-0.015960693359375
1761315792757543000,4.74654296875,-0.985504150390625,-0.0026092529296875,-0.0166168212890625
1761315792767591000,4.7565908203125,-0.985107421875,-0.0026702880859375,-0.01666259765625
1761315792777638000,4.766637939453125,-0.9851531982421875,-0.0027923583984375,-0.01544189453125
1761315792787684900,4.776684814453125,-0.986236572265625,-0.0022735595703125,-0.0158538818359375
1761315792797732900,4.78673291015625,-0.9860992431640625,-0.002349853515625,-0.0154571533203125
1761315792807780000,4.796780029296875,-0.9862060546875,-0.002716064453125,-0.016387939453125
1761315792817827000,4.8068271484375,-0.984771728515625,-0.0018310546875,-0.0160675048828125
1761315792827874800,4.816874755859375,-0.98480224609375,-0.00244140625,-0.0158538818359375
1761315792837921800,4.826921875,-0.9861907958984375,-0.002838134765625,-0.015716552734375
1761315792847968800,4.83696875,-0.9861297607421875,-0.001556396484375,-0.0160980224609375
1761315792858016800,4.847016845703125,-0.98492431640625,-0.002777099609375,-0.0165252685546875
1761315792868063700,4.857063720703125,-0.9849395751953125,-0.0021514892578125,-0.0160369873046875
1761315792878111000,4.867111083984375,-0.98553466796875,-0.00262451171875,-0.0157623291015625
1761315792888158700,4.87715869140625,-0.9855194091796875,-0.0023956298828125,-0.0168304443359375
1761315792898205700,4.887205810546875,-0.9861297607421875,-0.001922607421875,-0.016510009765625
1761315792908252700,4.897252685546875,-0.9855499267578125,-0.00189208984375,-0.0160675048828125
1761315792918301000,4.907301025390625,-0.986236572265625,-0.002410888671875,-0.014862060546875
1761315792928348000,4.917347900390625,-0.986480712890625,-0.0027618408203125,-0.0149993896484375
1761315792938395000,4.927394775390625,-0.9860687255859375,-0.0023345947265625,-0.0158538818359375
1761315792948439800,4.937439697265625,-0.9863739013671875,-0.0023040771484375,-0.0161590576171875
1761315792958486800,4.94748681640625,-0.9857635498046875,-0.003173828125,-0.0154266357421875
1761315792968534800,4.95753466796875,-0.9855804443359375,-0.00274658203125,-0.0164947509765625
1761315792978582000,4.96758203125,-0.9854736328125,-0.003021240234375,-0.0169219970703125
1761315792988629000,4.97762890625,-0.9847564697265625,-0.0020751953125,-0.0159454345703125
1761315792998676700,4.9876767578125,-0.9852142333984375,-0.00238037109375,-0.01641845703125
1761315793008723700,4.9977236328125,-0.9857177734375,-0.0023651123046875,-0.0164642333984375
1761315793018770700,5.007770751953125,-0.985260009765625,-0.0023956298828125,-0.0155181884765625
1761315793028819000,5.01781884765625,-0.9857940673828125,-0.00238037109375,-0.015716552734375
1761315793038866000,5.027865966796875,-0.985504150390625,-0.002532958984375,-0.01593017578125
1761315793048912600,5.03791259765625,-0.9859161376953125,-0.002532958984375,-0.015533447265625
1761315793058961000,5.0479609375,-0.9862213134765625,-0.002410888671875,-0.016082763671875
1761315793069008000,5.0580078125,-0.9857330322265625,-0.002288818359375,-0.01617431640625
1761315793079054800,5.068054931640625,-0.9855804443359375,-0.0025634765625,-0.0163116455078125
1761315793089102800,5.078102783203125,-0.984619140625,-0.0025482177734375,-0.016326904296875
1761315793099149800,5.08814990234375,-0.9851226806640625,-0.0022430419921875,-0.015472412109375
1761315793109196800,5.09819677734375,-0.98541259765625,-0.001800537109375,-0.0164337158203125
1761315793119244800,5.108244873046875,-0.985565185546875,-0.002349853515625,-0.0159149169921875
1761315793129291800,5.118291748046875,-0.9859466552734375,-0.00244140625,-0.0167694091796875
1761315793139338800,5.1283388671875,-0.9862518310546875,-0.002777099609375,-0.015838623046875
1761315793149387000,5.138386962890625,-0.9865264892578125,-0.0021820068359375,-0.015350341796875
1761315793159433700,5.148433837890625,-0.9853973388671875,-0.0022735595703125,-0.0159912109375
1761315793169480700,5.158480712890625,-0.9854583740234375,-0.0025787353515625,-0.01611328125
1761315793179528700,5.16852880859375,-0.98590087890625,-0.001739501953125,-0.0162811279296875
1761315793189576000,5.178575927734375,-0.985443115234375,-0.0027008056640625,-0.0164947509765625
1761315793199623000,5.188622802734375,-0.9857940673828125,-0.00213623046875,-0.01605224609375
1761315793209670700,5.198670654296875,-0.9858551025390625,-0.002685546875,-0.0147247314453125
1761315793219717600,5.208717529296875,-0.9866943359375,-0.002044677734375,-0.0159759521484375
1761315793229764600,5.2187646484375,-0.9857330322265625,-0.0020599365234375,-0.0160675048828125
1761315793239812900,5.228812744140625,-0.9855194091796875,-0.0020599365234375,-0.0156097412109375
1761315793249859800,5.23885986328125,-0.9856719970703125,-0.001922607421875,-0.01641845703125
1761315793259906800,5.24890673828125,-0.9859466552734375,-0.002227783203125,-0.01593017578125
1761315793269954600,5.25895458984375,-0.9862213134765625,-0.0023651123046875,-0.01531982421875
1761315793280001800,5.269001708984375,-0.985748291015625,-0.0022430419921875,-0.0154876708984375
1761315793290048800,5.279048828125,-0.9862823486328125,-0.0020751953125,-0.017059326171875
1761315793300096800,5.2890966796875,-0.98565673828125,-0.0022430419921875,-0.0156707763671875
1761315793310143700,5.299143798828125,-0.9853057861328125,-0.0025787353515625,-0.0153961181640625
1761315793320191000,5.30919091796875,-0.98565673828125,-0.0023651123046875,-0.0161590576171875
1761315793330238700,5.31923876953125,-0.986419677734375,-0.0028533935546875,-0.0159759521484375
1761315793340285700,5.32928564453125,-0.9865264892578125,-0.0016937255859375,-0.015899658203125
1761315793350332700,5.339332763671875,-0.986297607421875,-0.0023040771484375,-0.0164642333984375
1761315793360381000,5.349380859375,-0.98626708984375,-0.0024566650390625,-0.01617431640625
1761315793370428000,5.359427978515625,-0.9861907958984375,-0.0032196044921875,-0.0160369873046875
1761315793380475000,5.369474853515625,-0.9857940673828125,-0.0021209716796875,-0.0161895751953125
1761315793390522600,5.379522705078125,-0.986419677734375,-0.001922607421875,-0.015869140625
1761315793400569900,5.38956982421875,-0.98614501953125,-0.0022735595703125,-0.015411376953125
1761315793410616800,5.399616943359375,-0.985198974609375,-0.001983642578125,-0.0161895751953125
1761315793420664800,5.409664794921875,-0.985931396484375,-0.0024261474609375,-0.015960693359375
1761315793430711800,5.4197119140625,-0.985382080078125,-0.002532958984375,-0.0161895751953125
1761315793440758800,5.4297587890625,-0.985015869140625,-0.0029449462890625,-0.0164794921875
1761315793450806000,5.439805908203125,-0.986358642578125,-0.0017852783203125,-0.0157318115234375
1761315793460853800,5.449853759765625,-0.9862823486328125,-0.0020294189453125,-0.0150909423828125
1761315793470900700,5.459900634765625,-0.9867401123046875,-0.0021820068359375,-0.015533447265625
1761315793480947700,5.46994775390625,-0.9857635498046875,-0.002655029296875,-0.015625
1761315793490996000,5.479995849609375,-0.9853973388671875,-0.00213623046875,-0.0160980224609375
1761315793501043000,5.49004296875,-0.9859466552734375,-0.0020904541015625,-0.01629638671875
1761315793511090000,5.50008984375,-0.9862518310546875,-0.002777099609375,-0.016448974609375
1761315793521137700,5.5101376953125,-0.9857635498046875,-0.003021240234375,-0.016326904296875
1761315793531185000,5.520184814453125,-0.985809326171875,-0.0028533935546875,-0.016204833984375
1761315793541231900,5.53023193359375,-0.986114501953125,-0.001983642578125,-0.0153045654296875
1761315793551283000,5.540282958984375,-0.985595703125,-0.003143310546875,-0.015777587890625
1761315793561330000,5.550329833984375,-0.985137939453125,-0.0020904541015625,-0.0176544189453125
1761315793571377000,5.560376953125,-0.9853057861328125,-0.001190185546875,-0.01678466796875
1761315793581423900,5.570423828125,-0.9855804443359375,-0.0017547607421875,-0.0153961181640625
