time,seconds_elapsed,z,y,x
1761315788065434600,0.0544345703125,0.007027283310890198,-0.006620085798203945,0.0012833772925660014
1761315788075481600,0.064481689453125,0.005686647724360228,-0.008493886329233646,0.002055960241705179
1761315788085525800,0.07452587890625,0.006719421595335007,-0.009501892141997814,0.0010495517635717988
1761315788095573800,0.08457373046875,0.007494668010622263,-0.006584665738046169,0.0013949638232588768
1761315788105620700,0.094620849609375,0.005980127956718206,-0.00809334684163332,0.002579271560534835
1761315788115667700,0.104667724609375,0.006369748618453741,-0.005306348204612732,0.003163569141179323
1761315788125715700,0.1147158203125,0.005754558369517326,-0.009922139346599579,0.002513491315767169
1761315788135762700,0.1247626953125,0.005841644015163183,-0.007435545790940523,0.0033755565527826548
1761315788145809700,0.1348095703125,0.011037470772862434,-0.005281581077724695,0.00458622956648469
1761315788155858000,0.14485791015625,0.008695753291249275,-0.00768881244584918,-0.0005225121858529747
1761315788165904600,0.154904541015625,0.008289354853332043,-0.007650995627045631,0.00202293717302382
1761315788175952600,0.16495263671875,0.007779093459248543,-0.008646485395729542,0.0033534523099660873
1761315788185999600,0.17499951171875,0.008900018408894539,-0.006499444600194693,0.002386192325502634
1761315788196046800,0.185046875,0.007354319095611572,-0.008229699917137623,0.0003784351865760982
1761315788206094800,0.1950947265625,0.007648066151887178,-0.008173241280019283,0.0000929443194763735
1761315788216141800,0.205141845703125,0.008921056985855103,-0.00863503385335207,-0.00010812433902174234
1761315788226188500,0.2151884765625,0.00541394017636776,-0.009046492166817188,0.0015076154377311468
1761315788236236800,0.22523681640625,0.008100270293653011,-0.00920441746711731,-0.0013411679537966847
1761315788246283800,0.23528369140625,0.005774531979113817,-0.006996390409767628,0.002246642718091607
1761315788256330800,0.245330810546875,0.0075966669246554375,-0.0070461914874613285,0.0020546286832541227
1761315788266378800,0.255378662109375,0.00740278884768486,-0.007834753952920437,0.0015464976895600557
1761315788276425700,0.26542578125,0.005111138802021742,-0.00875034835189581,0.0020477045327425003
1761315788286473700,0.2754736328125,0.006915430538356304,-0.007214237004518509,0.003732952754944563
1761315788296520700,0.285520751953125,0.006961769424378872,-0.007394000422209501,0.0019773971289396286
1761315788306567700,0.295567626953125,0.008228102698922157,-0.0062701464630663395,0.0014405038673430681
1761315788316616000,0.305615966796875,0.006098372396081686,-0.007847003638744354,0.001972337020561099
1761315788326662700,0.31566259765625,0.006981210317462683,-0.009554356336593628,-0.0005834985640831292
1761315788336709600,0.325709716796875,0.008535430766642094,-0.007558850105851889,0.0012926984345540404
1761315788346757600,0.335757568359375,0.006316218990832567,-0.008421448059380054,0.00033955302205868065
1761315788356804600,0.3458046875,0.005049886181950569,-0.007325024344027042,-0.0001715075777610764
1761315788366852900,0.355852783203125,0.00863450113683939,-0.00734260119497776,0.0025827335193753242
1761315788376899800,0.36589990234375,0.009043562225997448,-0.007395864464342594,0.0030927290208637714
1761315788386946600,0.375946533203125,0.009724532254040241,-0.007820372469723225,0.004028297495096922
1761315788396994800,0.385994873046875,0.008651278913021088,-0.008243282325565815,0.0027292075101286173
1761315788407041800,0.396041748046875,0.008404670283198357,-0.008989766240119934,0.0014386395923793316
1761315788417088800,0.4060888671875,0.0068302094005048275,-0.006904244888573885,0.0023217438720166683
1761315788427136800,0.41613671875,0.009818541817367077,-0.00894076470285654,0.00119629199616611
1761315788437183700,0.426183837890625,0.00817936658859253,-0.008193748071789742,0.002049835165962577
1761315788447230700,0.436230712890625,0.006097573786973953,-0.007778028026223183,-0.0001906823308672756
1761315788457278700,0.44627880859375,0.006896255537867546,-0.007652326952666044,0.0006378270918503404
1761315788467325700,0.45632568359375,0.007194796111434698,-0.008412392809987068,0.00350472005084157
1761315788477373700,0.466373779296875,0.008578041568398476,-0.0062272693030536175,0.0033981935121119022
1761315788487420700,0.476420654296875,0.008893360383808613,-0.008045942522585392,-0.0000577905957470648
1761315788497467600,0.486467529296875,0.008360194973647594,-0.008467520587146282,-0.000028229507734067738
1761315788507515600,0.496515625,0.008739429526031017,-0.0070435283705592155,0.0005193164106458426
1761315788517562600,0.506562744140625,0.007384945638477802,-0.009600961580872536,0.0028993834275752306
1761315788527609900,0.51660986328125,0.007784952409565449,-0.008112254552543163,0.0009912285022437572
1761315788537657900,0.526657958984375,0.007729292381554842,-0.008188155479729176,-0.0010010822443291545
1761315788547704600,0.53670458984375,0.004911934491246939,-0.007200921420007944,0.004726844374090433
1761315788557752600,0.546752685546875,0.0076118470169603825,-0.007385478354990482,0.0026642263401299715
1761315788567799800,0.5567998046875,0.005121258553117514,-0.006669087801128626,0.00166607357095927
1761315788577846800,0.5668466796875,0.0049340385012328625,-0.0073199644684791565,-0.0012753878254443407
1761315788587894800,0.576894775390625,0.006302637048065662,-0.008429969660937786,0.0016990967560559511
1761315788597941800,0.586941650390625,0.006266417913138866,-0.007506918627768755,0.0036280243657529354
1761315788607988500,0.596988525390625,0.007031810469925404,-0.00845633540302515,0.003614708548411727
1761315788618036700,0.60703662109375,0.007095459848642349,-0.009878995828330517,0.00019121496006846428
1761315788628083700,0.617083740234375,0.008462727069854736,-0.007558051031082869,-0.0007265103631652892
1761315788638130700,0.627130615234375,0.007752728182822466,-0.00782649777829647,0.0026160231791436672
1761315788648178700,0.6371787109375,0.006183859892189503,-0.01050403993576765,0.0014988270122557878
1761315788658225700,0.6472255859375,0.006988667417317629,-0.008266451768577099,0.0010961571242660284
1761315788668273700,0.657273681640625,0.00566960358992219,-0.00884915143251419,0.00014168016787152737
1761315788678320600,0.667320556640625,0.010516556911170483,-0.007481085602194071,-0.00010492854926269501
1761315788688367600,0.67736767578125,0.0051841093227267265,-0.007709851488471031,0.0008660599705763161
1761315788698415900,0.687415771484375,0.007386011071503162,-0.009886719286441803,0.003817907767370343
1761315788708462600,0.697462646484375,0.008776447735726833,-0.006356965284794569,0.00023169501218944788
1761315788718509600,0.707509521484375,0.005152684170752764,-0.007650729268789291,0.002989398315548897
1761315788728557800,0.717557861328125,0.006704507861286402,-0.008696818724274635,-0.0019941749051213264
1761315788738604800,0.727604736328125,0.007302653975784779,-0.008853678591549397,0.0009515474666841328
1761315788748651800,0.73765185546875,0.005288239102810621,-0.006084257736802101,0.0010130665032193065
1761315788758699800,0.74769970703125,0.00515801040455699,-0.008731173351407051,0.0028160265646874905
1761315788768746500,0.75774658203125,0.004185956437140703,-0.005908489227294922,0.0006921555614098907
1761315788778794800,0.767794677734375,0.0067724185064435005,-0.007680024020373821,0.0011286477092653513
1761315788788841700,0.777841796875,0.007897604256868362,-0.007230216171592474,0.001817341079004109
1761315788798888700,0.787888671875,0.005204349290579557,-0.00875141378492117,0.0013142699608579278
1761315788808936700,0.797936767578125,0.005879460833966732,-0.008444351144134998,0.0030514500103890896
1761315788818983700,0.807983642578125,0.006047772243618965,-0.009720804169774055,0.003736947663128376
1761315788829030700,0.81803076171875,0.006341785658150911,-0.0070456587709486485,0.003710848744958639
1761315788839078700,0.82807861328125,0.006119145080447197,-0.007056844420731068,0.0006748450105078518
1761315788849126400,0.83812646484375,0.006749249063432217,-0.009894974529743195,0.001838646363466978
1761315788859173400,0.84817333984375,0.008419849909842014,-0.007617173250764608,0.003266899613663554
1761315788869221000,0.85822119140625,0.008054730482399464,-0.006952980998903513,0.0008945558220148087
1761315788879268400,0.868268310546875,0.008509065955877304,-0.00660677021369338,0.0021904499735683203
1761315788889316400,0.87831640625,0.009068329818546772,-0.007734352257102728,0.0007214503129944205
1761315788899363300,0.88836328125,0.00765925133600831,-0.008342618122696877,0.002409894485026598
1761315788909410300,0.898410400390625,0.00884808599948883,-0.00999297946691513,0.0015385081060230732
1761315788919458300,0.908458251953125,0.008182828314602375,-0.007306648883968592,0.002234125742688775
1761315788929505300,0.91850537109375,0.0067756143398582935,-0.009735185652971268,0.00063383235828951
1761315788939552300,0.92855224609375,0.007285876199603081,-0.009431318379938602,0.003719370812177658
1761315788949600300,0.938600341796875,0.008258196525275707,-0.008840363472700119,0.001068193931132555
1761315788959647200,0.948647216796875,0.006103964988142252,-0.007289072033017874,0.0035752938129007816
1761315788969694500,0.958694580078125,0.006736998446285725,-0.008272843435406685,0.0019976370967924595
1761315788979742200,0.9687421875,0.006534065585583448,-0.006892526987940073,0.002025600289925933
1761315788989789200,0.9787890625,0.007631021551787853,-0.008127435110509396,0.0027861990965902805
1761315788999837400,0.98883740234375,0.009101352654397488,-0.008170844055712223,0.002957174088805914
1761315789009884400,0.998884521484375,0.007983624003827572,-0.009728527627885342,0.0027545075863599777
1761315789019931400,1.008931396484375,0.007493868935853243,-0.008759935386478901,0.003599528456106782
1761315789029979100,1.018979248046875,0.006256298162043095,-0.01125265471637249,0.0002716424351092428
1761315789040026000,1.029026123046875,0.003973702434450388,-0.006420082412660122,0.003448527306318283
1761315789050073300,1.0390732421875,0.004309260752052069,-0.0067838700488209724,0.0022916500456631184
1761315789060121300,1.049121337890625,0.007900266908109188,-0.006280532572418451,0.002612827345728874
1761315789070168300,1.059168212890625,0.007875766605138779,-0.010922156274318695,0.0019270633347332478
1761315789080216300,1.06921630859375,0.008712264709174633,-0.006687996443361044,0.0020591560751199722
1761315789090263300,1.07926318359375,0.006683735176920891,-0.00896499864757061,0.0013198626693338156
1761315789100310300,1.089310302734375,0.0073655047453939915,-0.008820655755698681,0.0024913870729506016
1761315789110358300,1.099358154296875,0.007892278023064137,-0.010252637788653374,0.0015896408585831523
1761315789120405200,1.1094052734375,0.007583084981888533,-0.007574562914669514,0.0008234494016505778
1761315789130452500,1.119452392578125,0.008596950210630894,-0.007698932196944952,0.001383245806209743
1761315789140500200,1.129500244140625,0.009131979197263718,-0.007001983001828194,0.0004844290087930858
1761315789150547200,1.139547119140625,0.005015264730900526,-0.007012103218585253,0.0013424995122477412
1761315789160594200,1.14959423828125,0.0088187912479043,-0.007643804885447025,0.0021411816123872995
1761315789170642400,1.159642333984375,0.007278152741491795,-0.007041397970169783,0.0013052152935415506
1761315789180689400,1.169689453125,0.008287224918603897,-0.005920207127928734,0.00009986854274757206
1761315789190736400,1.179736328125,0.006450974848121405,-0.009915747679769993,0.0003254382754676044
1761315789200784100,1.1897841796875,0.0052173989824950695,-0.008159925229847431,-0.001877262257039547
1761315789210831400,1.199831298828125,0.008567655459046364,-0.005893575493246317,0.002543318783864379
1761315789220879400,1.20987939453125,0.0054847802966833115,-0.007408914156258106,-0.0001328917423961684
1761315789230926300,1.21992626953125,0.00711596617475152,-0.007367102429270744,0.0009179916232824326
1761315789240973300,1.229973388671875,0.007261907681822777,-0.008074970915913582,0.002496979897841811
1761315789251021300,1.240021240234375,0.00996448379009962,-0.007866977714002132,-0.0002519350382499397
1761315789261068300,1.250068359375,0.005526325665414333,-0.007327687460929155,0.0022072279825806618
1761315789271115300,1.260115234375,0.006359894759953022,-0.00631861574947834,0.0023156185634434223
1761315789281163300,1.270163330078125,0.008673915639519691,-0.006995591334998608,0.0021020330023020506
1761315789291210500,1.28021044921875,0.004139084834605455,-0.009187373332679272,0.0037824877072125673
1761315789301257500,1.290257568359375,0.005979329347610474,-0.008941829204559326,0.00037257623625919223
1761315789311305200,1.30030517578125,0.0062554990872740746,-0.007678425870835781,0.0012895026011392474
1761315789321352200,1.310352294921875,0.006996124051511288,-0.007172957994043827,0.0003510046226438135
1761315789331400400,1.320400390625,0.009051552042365074,-0.007922371849417686,0.0011400992516428232
1761315789341447400,1.330447509765625,0.007250988855957985,-0.008314921520650387,0.0034852789249271154
1761315789351494400,1.340494384765625,0.0070704263634979725,-0.00884968414902687,0.002272475278005004
1761315789361542100,1.350542236328125,0.007212372962385416,-0.0054094125516712666,0.000690291344653815
1761315789371589000,1.360589111328125,0.007951400242745876,-0.006096774712204933,0.003715642262250185
1761315789381636400,1.37063623046875,0.008055795915424824,-0.008433432318270206,-0.00007856325100874528
1761315789391684400,1.380684326171875,0.0062216767109930515,-0.006885869428515434,0.0019273296929895878
1761315789401731300,1.3907314453125,0.00887738075107336,-0.006503439508378506,0.005136971361935139
1761315789411778300,1.4007783203125,0.007488009985536337,-0.007375890854746103,0.0002972087822854519
1761315789421826300,1.410826416015625,0.008740494959056377,-0.008024370297789574,-0.0003424825263209641
1761315789431873300,1.420873291015625,0.006156695540994406,-0.007544735446572304,0.000815193576272577
1761315789441921300,1.43092138671875,0.008643821813166142,-0.007665376644581556,0.002624012529850006
1761315789451968300,1.44096826171875,0.007181480061262846,-0.008198275230824947,0.001407214323990047
1761315789462015500,1.451015380859375,0.006250971462577581,-0.00845846626907587,0.002433863002806902
1761315789472063200,1.461063232421875,0.006357498001307249,-0.009616408497095108,-0.00038056570338085294
1761315789482110200,1.471110107421875,0.006143379956483841,-0.005621932912617922,0.0026258768048137426
1761315789492157200,1.4811572265625,0.006596117280423641,-0.00830693170428276,0.0027321369852870703
1761315789502205400,1.491205322265625,0.0062733422964811325,-0.00606375141069293,0.0010484865633770823
1761315789512252400,1.50125244140625,0.008837699890136719,-0.0054365769028663635,0.0027867318131029606
1761315789522299400,1.51129931640625,0.007187339011579752,-0.00890880636870861,0.002927346620708704
1761315789532347100,1.52134716796875,0.005033107940107584,-0.008176171220839024,0.0008170577930286527
1761315789542394400,1.531394287109375,0.006025401875376701,-0.008597216568887234,0.0015723302494734526
1761315789552441300,1.54144140625,0.006494118366390467,-0.007142065558582544,0.0011773834703490138
1761315789562489300,1.5514892578125,0.006986004300415516,-0.00869042705744505,-0.00032091091270558536
1761315789572536300,1.561536376953125,0.008928514085710049,-0.008378038182854652,0.00046818371629342437
1761315789582584300,1.571584228515625,0.008902148343622684,-0.005891445092856884,0.00003914846820407547
1761315789592631300,1.58163134765625,0.006884004920721054,-0.00762969022616744,0.0005747101386077702
1761315789602678300,1.59167822265625,0.00782543234527111,-0.008430768735706806,0.001014664419926703
1761315789612726300,1.601726318359375,0.009590309113264084,-0.008431567810475826,-0.002674879040569067
1761315789622773500,1.6117734375,0.008318383246660233,-0.00887738075107336,0.0008442220860160887
1761315789632820500,1.621820556640625,0.007998005487024784,-0.007327421568334103,0.0029403960797935724
1761315789642868200,1.6318681640625,0.005533515941351652,-0.008595085702836514,0.0019715381786227226
1761315789652915200,1.641915283203125,0.0070669641718268394,-0.0067881313152611256,0.0010820423485711217
1761315789662962200,1.651962158203125,0.007349525578320026,-0.006928213406354189,0.0033446638844907284
1761315789673010400,1.662010498046875,0.007595601491630077,-0.009898170828819275,0.00004926848123432137
1761315789683057400,1.672057373046875,0.009009740315377712,-0.007547664921730757,0.0025097629986703396
1761315789693105200,1.682105224609375,0.005857356358319521,-0.006840595509856939,0.0028695559594780207
1761315789703152000,1.692152099609375,0.006190517917275429,-0.006615558639168739,0.0007267766632139683
1761315789713199400,1.702199462890625,0.006618754006922245,-0.007610248867422342,0.0018048242200165987
1761315789723247400,1.712247314453125,0.0029995182994753122,-0.00726483715698123,0.002296177437528968
1761315789733294300,1.72229443359375,0.004865328781306744,-0.005848567932844162,0.0015931029338389635
1761315789743341300,1.73234130859375,0.005204082932323217,-0.007701328955590725,0.0022796657867729664
1761315789753389300,1.742389404296875,0.007187339011579752,-0.006374542135745287,0.004144943784922361
1761315789763436300,1.752436279296875,0.0052179316990077496,-0.009905894286930561,0.0008756473544053733
1761315789773483300,1.762483154296875,0.00669278996065259,-0.005873335525393486,0.0016495619202032685
1761315789783531300,1.77253125,0.007768174633383751,-0.007275223266333342,-0.000028229507734067738
1761315789793578500,1.78257861328125,0.0076334187760949135,-0.007158843334764242,-0.0008133294177241623
1761315789803625500,1.79262548828125,0.0051803807727992535,-0.008129565045237541,0.001996571896597743
1761315789813673200,1.802673095703125,0.006223807577043772,-0.0070762853138148785,0.0015270565636456013
1761315789823720200,1.81272021484375,0.007682420779019594,-0.01013732235878706,0.0009384979493916035
1761315789833768400,1.8227685546875,0.009967945516109467,-0.007680290378630161,-0.0004777711001224816
1761315789843815400,1.8328154296875,0.007276288699358702,-0.009037969633936882,0.0014820491196587682
1761315789853858600,1.842858642578125,0.009563677944242954,-0.007860852405428886,0.002222674200311303
1761315789863906600,1.852906494140625,0.0067814732901751995,-0.008608934469521046,0.001674861996434629
1761315789873953500,1.86295361328125,0.005395297892391682,-0.009806823916733265,0.002511627273634076
1761315789884000500,1.87300048828125,0.007455519400537014,-0.008100003935396671,0.0014591459184885025
1761315789894048500,1.883048583984375,0.008041947148740292,-0.00606455048546195,0.0036583843175321817
1761315789904095700,1.893095703125,0.008700015023350716,-0.007156712934374809,0.004192614462226629
1761315789914142700,1.903142822265625,0.007673099637031555,-0.007400392089039087,0.0016815199051052332
1761315789924190500,1.9131904296875,0.008447546511888504,-0.00806245394051075,0.0031047132797539234
1761315789934237400,1.923237548828125,0.005139634478837252,-0.008267517201602459,0.0029459886718541384
1761315789944285700,1.93328564453125,0.009908024221658707,-0.008492288179695606,0.0015808524331077933
1761315789954332700,1.943332763671875,0.008443285711109638,-0.006421413738280535,0.0018804579740390182
1761315789964379600,1.953379638671875,0.006657103542238474,-0.0075995963998138905,0.0008498146780766547
1761315789974427400,1.963427490234375,0.008433165960013866,-0.010090717114508152,0.0029787456151098013
1761315789984474600,1.973474609375,0.007409180514514446,-0.008782838471233845,0.0004599279200192541
1761315789994521600,1.983521484375,0.0054666707292199135,-0.007735950406640768,0.0008125304593704641
1761315790004569600,1.993569580078125,0.005927397403866053,-0.005723399575799704,0.001924666459672153
1761315790014616600,2.003616455078125,0.00609384523704648,-0.006619819439947605,0.0021670141723006964
1761315790024663600,2.01366357421875,0.005085838492959738,-0.007005178835242987,-0.00034408041392453015
1761315790034711600,2.023711669921875,0.004135889001190662,-0.009680324234068394,0.0012301141396164894
1761315790044758500,2.033758544921875,0.006469883490353823,-0.009738114662468433,0.0008644621120765805
1761315790054805500,2.043805419921875,0.007889348082244396,-0.009180981665849686,0.002837598090991378
1761315790064853500,2.053853515625,0.006981210317462683,-0.006433930713683367,0.0033364081755280495
1761315790074900700,2.063900634765625,0.006415288895368576,-0.006387059111148119,0.0002412823960185051
1761315790084948500,2.073948486328125,0.009689112193882465,-0.007707454264163971,0.0009049421059899032
1761315790094995500,2.083995361328125,0.00957033596932888,-0.007416104432195425,0.0020991035271435976
1761315790105042400,2.09404248046875,0.006420615129172802,-0.007633951026946306,0.0018373148050159216
1761315790115090700,2.104090576171875,0.009743707254529,-0.007704258430749178,0.0010780475568026304
1761315790125137700,2.1141376953125,0.005705822724848986,-0.009210542775690556,-0.0025571673177182674
1761315790135184600,2.1241845703125,0.007631287910044193,-0.006569485645741224,0.0018037590198218822
1761315790145232400,2.134232421875,0.006996124051511288,-0.006345247384160757,0.000586161739192903
1761315790155279600,2.144279541015625,0.007229949813336134,-0.006929278839379549,0.001234641415067017
1761315790165326600,2.15432666015625,0.008599613793194294,-0.008989766240119934,0.000874582096002996
1761315790175374600,2.16437451171875,0.0062882560305297375,-0.008497614413499832,0.0015909724170342088
1761315790185421600,2.174421630859375,0.006380933802574873,-0.006047772243618965,0.0005970807396806777
1761315790195468500,2.184468505859375,0.004028031136840582,-0.0068448567762970924,0.003114300547167659
1761315790205516500,2.1945166015625,0.007734618615359068,-0.005428054835647345,0.0016618125373497605
1761315790215563500,2.2045634765625,0.006963100749999285,-0.009459547698497772,0.002543052425608039
1761315790225611500,2.214611572265625,0.006190251559019089,-0.007839547470211983,0.002065015025436878
1761315790235658800,2.22465869140625,0.007755924016237259,-0.007260043174028397,0.001984321279451251
1761315790245705700,2.234705810546875,0.006387325469404459,-0.007879494689404964,0.0011965582380071282
1761315790255753500,2.24475341796875,0.0065678879618644714,-0.00917272549122572,0.0015638081822544336
1761315790265800400,2.254800537109375,0.005792108830064535,-0.006912234704941511,-0.000222373942960985
1761315790275847400,2.264847412109375,0.007867244072258472,-0.005877862684428692,0.0025747441686689854
1761315790285895700,2.274895751953125,0.0071095749735832214,-0.007556186988949776,0.0002663161139935255
1761315790295942700,2.284942626953125,0.009501625783741474,-0.009106945246458054,0.002623746171593666
1761315790305989400,2.2949892578125,0.009941047988831997,-0.008747152984142303,0.003823234001174569
1761315790316037600,2.30503759765625,0.00848323293030262,-0.006915164180099964,-0.0009238505735993385
1761315790326084600,2.315084716796875,0.008800415322184563,-0.0062818643637001514,0.0020096213556826115
1761315790336131600,2.325131591796875,0.005648031830787659,-0.007384679280221462,0.0008977515972219408
1761315790346179600,2.3351796875,0.00782516598701477,-0.006481068674474955,-0.000278300343779847
1761315790356226600,2.3452265625,0.007014233618974686,-0.008807073347270489,0.0018759306985884905
1761315790366274600,2.355274658203125,0.008859537541866302,-0.00891093723475933,-0.000007723167072981596
1761315790376321500,2.365321533203125,0.006464823614805937,-0.006148706190288067,0.0005864280392415822
1761315790386368500,2.375368408203125,0.007167099043726921,-0.009884854778647423,0.0013342436868697405
1761315790396416800,2.385416748046875,0.0076115806587040424,-0.006415288895368576,0.0035950010642409325
1761315790406463700,2.395463623046875,0.0049529471434652805,-0.007240069564431906,0.003668770659714937
1761315790416510500,2.405510498046875,0.007132478058338165,-0.008561796508729458,-0.00027563716867007315
1761315790426558500,2.415558349609375,0.009032377041876316,-0.0070403325371444225,0.002630936913192272
1761315790436605400,2.42560546875,0.008827313780784607,-0.007679757662117481,0.0007976167253218591
1761315790446652700,2.435652587890625,0.0062304651364684105,-0.008073372766375542,0.0002364887041039765
1761315790456700700,2.44570068359375,0.005930593237280846,-0.010014284402132034,0.001067661214619875
1761315790466747600,2.45574755859375,0.006205698009580374,-0.009186840616166592,0.003260508179664612
1761315790476794400,2.46579443359375,0.004722317215055227,-0.0067545752972364426,0.001942243310622871
1761315790486842600,2.475842529296875,0.006716492120176554,-0.008578840643167496,0.0020477045327425003
1761315790496889600,2.4858896484375,0.006741259712725878,-0.006974020041525364,0.0025121597573161125
1761315790506937600,2.4959375,0.006281331647187471,-0.0036171053070575,0.001463939668610692
1761315790516984600,2.505984619140625,0.009166333824396133,-0.007567372173070908,-0.00045673211570829153
1761315790527031600,2.516031494140625,0.007726895622909069,-0.006200105417519808,0.0018820558907464147
1761315790537079600,2.52607958984375,0.007198790553957224,-0.006195844151079655,0.0024525050539523363
1761315790547126500,2.53612646484375,0.006388657260686159,-0.008682171814143658,0.0008727178792469203
1761315790557173500,2.546173583984375,0.0067718857899308205,-0.007598265074193478,0.0006519418093375862
1761315790567221800,2.5562216796875,0.007919974625110626,-0.007340470794588327,0.001008272753097117
1761315790577268500,2.5662685546875,0.00535375252366066,-0.009150887839496136,0.0016591493040323257
1761315790587315500,2.5763154296875,0.009096825495362282,-0.00748960766941309,0.0035571842454373837
1761315790597363500,2.586363525390625,0.006444050930440426,-0.006702377460896969,0.0012506204657256603
1761315790607410400,2.596410400390625,0.006765494588762522,-0.00857298169285059,0.001353152096271515
1761315790617457700,2.606457763671875,0.010185259394347668,-0.006700513418763876,-0.0010130665032193065
1761315790627505700,2.616505615234375,0.005376656074076891,-0.00820919405668974,-0.0015728629659861326
1761315790637552400,2.626552490234375,0.006639526691287756,-0.00785792339593172,0.00011930961773032323
1761315790647599400,2.636599365234375,0.008098140358924866,-0.007514641620218754,0.001178448786959052
1761315790657647600,2.646647705078125,0.007486412301659584,-0.009764746762812138,-0.0004391552647575736
1761315790667694600,2.656694580078125,0.0070701600052416325,-0.007310110609978437,-0.00042637207661755383
1761315790677742600,2.66674267578125,0.008185491897165775,-0.00990296434611082,0.0011741877533495426
1761315790687789600,2.67678955078125,0.006580937188118696,-0.0048424256965518,0.0019185412675142288
1761315790697836500,2.68683642578125,0.005149221979081631,-0.00782623142004013,0.0016042882343754172
1761315790707884500,2.696884521484375,0.00621049152687192,-0.007795072626322508,0.0024029703345149755
1761315790717931500,2.706931640625,0.008028632029891014,-0.007656854577362537,0.0008972189389169216
1761315790727978500,2.716978515625,0.00848616287112236,-0.008191883563995361,0.0025947177782654762
1761315790738026500,2.727026611328125,0.006375074852257967,-0.008488559164106846,0.0020961740519851446
1761315790748073500,2.737073486328125,0.008344216272234917,-0.009623066522181034,0.0007635282818228006
1761315790758120400,2.747120361328125,0.009089901112020016,-0.008699215948581696,0.0020999026019126177
1761315790768168400,2.75716845703125,0.006449377164244652,-0.007881092838943005,0.0046296389773488045
1761315790778215700,2.767215576171875,0.008678709156811237,-0.008040616288781166,0.001014398061670363
1761315790788262700,2.7772626953125,0.007243531756103039,-0.00628985371440649,0.003552124137058854
1761315790798310400,2.787310302734375,0.010928547941148281,-0.005112470127642155,0.0017744642682373524
1761315790808357400,2.797357421875,0.007719438523054123,-0.008102134801447392,0.00017443705291952938
1761315790818405600,2.807405517578125,0.007833422161638737,-0.00635030772536993,0.0013965616235509515
1761315790828452600,2.81745263671875,0.006599046755582094,-0.006373743526637554,0.0008285093936137855
1761315790838499600,2.82749951171875,0.006858172360807657,-0.008559932000935078,0.001065264455974102
1761315790848547600,2.837547607421875,0.0070733558386564255,-0.006888798903673887,0.0012548814993351698
1761315790858594000,2.847593994140625,0.008842759765684605,-0.007211573887616396,0.0025750105269253254
1761315790868641000,2.85764111328125,0.008228102698922157,-0.0073468624614179134,0.0011496866354718804
1761315790878689000,2.86768896484375,0.00896846130490303,-0.007173224352300167,0.0029377329628914595
1761315790888736000,2.877736083984375,0.008448878303170204,-0.006527940277010202,0.002612560987472534
1761315790898783000,2.887782958984375,0.009493104182183743,-0.008980445563793182,0.0003376888344064355
1761315790908831200,2.897831298828125,0.007320763543248177,-0.008648881688714027,0.0038400120101869106
1761315790918878000,2.9078779296875,0.005250155925750732,-0.00518810423091054,0.0043777041137218475
1761315790928925000,2.917925048828125,0.005623264703899622,-0.009217467159032822,0.0009345032158307731
1761315790938973000,2.927972900390625,0.007167631760239601,-0.006449110805988312,0.0019883159548044205
1761315790949020200,2.938020263671875,0.005391835700720549,-0.008326639421284199,0.003023486817255616
1761315790959067100,2.948067138671875,0.007654723711311817,-0.010728011839091778,0.003718571737408638
1761315790969115100,2.958115234375,0.005912750028073788,-0.008556203916668892,0.0046416232362389565
1761315790979161900,2.968161865234375,0.006960703991353512,-0.006626477465033531,0.0007494135061278939
1761315790989210000,2.978210205078125,0.00765845226123929,-0.008437693119049072,0.0018551580142229795
1761315790999257000,2.988257080078125,0.006387059111148119,-0.008253668434917927,-0.0005099953268654644
1761315791009304000,2.998303955078125,0.006287456955760717,-0.008753543719649315,0.005380916874855757
1761315791019352000,3.00835205078125,0.007760184817016125,-0.008342618122696877,0.003940146882086992
1761315791029399000,3.01839892578125,0.010142382234334946,-0.008650479838252068,-0.0008149272762238979
1761315791039446000,3.028446044921875,0.006411027628928423,-0.010804710909724236,0.0037414750549942255
1761315791049494000,3.038493896484375,0.00720651401206851,-0.0073535204865038395,-0.0001954760227818042
1761315791059541000,3.048541015625,0.00697907991707325,-0.00680118054151535,0.003546531544998288
1761315791069588000,3.058587890625,0.0023877902422100306,-0.007910121232271194,0.0015454323729500175
1761315791079636200,3.06863623046875,0.006620884872972965,-0.008561530150473118,0.0024551681708544493
1761315791089683000,3.078682861328125,0.006356965284794569,-0.008625978603959084,0.00024048343766480684
1761315791099730000,3.08872998046875,0.009136772714555264,-0.008637962862849236,0.003162503708153963
1761315791109778200,3.098778076171875,0.007219563238322735,-0.007331416010856628,0.0004924184759147465
1761315791119825200,3.1088251953125,0.00618093041703105,-0.008074704557657242,0.0008170577930286527
1761315791129872100,3.1188720703125,0.006954312324523926,-0.008302404545247555,0.0017001620726659894
1761315791139920000,3.128919921875,0.005073055624961853,-0.008443552069365978,0.002657302189618349
1761315791149966800,3.138966796875,0.007077616639435291,-0.010178335011005402,0.00002103897168126423
1761315791160015000,3.14901513671875,0.004204865079373121,-0.00956687331199646,0.00035446672700345516
1761315791170062000,3.15906201171875,0.0075639099813997746,-0.00755112711340189,0.0023529028985649347
1761315791180109000,3.169109130859375,0.006764429155737162,-0.008930910378694534,0.001371527905575931
1761315791190157000,3.179156982421875,0.007443268783390522,-0.007144728675484657,0.0031760858837515116
1761315791200204000,3.1892041015625,0.005947371479123831,-0.0065564364194869995,0.0017829863354563713
1761315791210251000,3.1992509765625,0.0062155514024198055,-0.008213987573981285,0.0017843178939074278
1761315791220299000,3.209299072265625,0.0070943948812782764,-0.006880809087306261,0.0017664746847003698
1761315791230346000,3.219345947265625,0.005614742636680603,-0.007155647501349449,-0.0003685815026983619
1761315791240393200,3.229393310546875,0.006744988262653351,-0.009321596473455429,0.0017813884187489748
1761315791250441000,3.23944091796875,0.009138903580605984,-0.0073018549010157585,0.0008737831376492977
1761315791260488000,3.249488037109375,0.008362325839698315,-0.005800630897283554,0.0017923073610290885
1761315791270535000,3.259534912109375,0.007904528640210629,-0.007434746716171503,0.0024825986474752426
1761315791280583200,3.269583251953125,0.005027515348047018,-0.0073412698693573475,0.0013014868600293994
1761315791290630100,3.279630126953125,0.008157262578606606,-0.007901065982878208,0.001437041675671935
1761315791300677000,3.289677001953125,0.007613444700837135,-0.007795338984578848,-0.000028229507734067738
1761315791310724900,3.299724853515625,0.00851492490619421,-0.008184426464140415,0.0038434739690274
1761315791320771800,3.309771728515625,0.009007609449326992,-0.007051517721265554,0.0032322786282747984
1761315791330819000,3.319819091796875,0.008070177398622036,-0.005131112411618233,-0.0020596887916326523
1761315791340867000,3.3298671875,0.007754325866699219,-0.007458182517439127,0.0011084076249971986
1761315791350914000,3.3399140625,0.006927680689841509,-0.007270696107298136,0.0018751317402347922
1761315791360962000,3.349962158203125,0.009138104505836964,-0.00827843602746725,0.0016732640797272325
1761315791371009000,3.360009033203125,0.007225422188639641,-0.009211075492203236,0.0025592977181077003
1761315791381056000,3.370055908203125,0.005225388333201408,-0.009560215286910534,0.0008756473544053733
1761315791391104000,3.38010400390625,0.004445082042366266,-0.008072840049862862,0.00392869533970952
1761315791401151000,3.39015087890625,0.00851492490619421,-0.007649131119251251,0.002153698354959488
1761315791411198200,3.4001982421875,0.008115450851619244,-0.007125020958483219,0.0031220237724483013
1761315791421246000,3.410245849609375,0.004578240215778351,-0.0070222229696810246,0.0033963292371481657
1761315791431293000,3.42029296875,0.005664277356117964,-0.008304269053041935,0.004716458264738321
1761315791441340000,3.43033984375,0.006418484263122082,-0.009725597687065601,0.0013451626291498542
1761315791451388200,3.44038818359375,0.008052334189414978,-0.007719971239566803,0.0026695525739341974
1761315791461435100,3.45043505859375,0.00824035331606865,-0.005241633392870426,0.002517486223950982
1761315791471482000,3.460482177734375,0.008275240659713745,-0.005431250669062138,0.0006330333999358118
1761315791481529900,3.47052978515625,0.008989233523607254,-0.008249141275882721,0.0032868734560906887
1761315791491577000,3.4805771484375,0.007889880798757076,-0.008070177398622036,0.0015941682504490018
1761315791501624000,3.4906240234375,0.008719189092516899,-0.006764162797480822,0.0025861957110464573
1761315791511672000,3.500672119140625,0.007069360930472612,-0.006809968966990709,0.002213885774835944
1761315791521719000,3.510718994140625,0.006957774516195059,-0.007539142854511738,0.0022684806026518345
1761315791531766000,3.52076611328125,0.00669305631890893,-0.009578591212630272,0.0021907163318246603
1761315791541814000,3.53081396484375,0.007216633763164282,-0.006906642112880945,0.0021795309148728848
1761315791551861000,3.540861083984375,0.008081096224486828,-0.009752496145665646,-0.0005036037764512002
1761315791561908000,3.550907958984375,0.006904777605086565,-0.008298143744468689,0.0019518306944519281
1761315791571956200,3.560956298828125,0.006006493698805571,-0.006175604183226824,0.002058357233181596
1761315791582003200,3.571003173828125,0.007535947021096945,-0.009443568997085094,0.0016772588714957237
1761315791592050200,3.58105029296875,0.007836084812879562,-0.007935686968266964,0.001368598430417478
1761315791602098000,3.591097900390625,0.010241452604532242,-0.005036836490035057,0.0021965752821415663
1761315791612145000,3.601144775390625,0.009249424561858177,-0.008258994668722153,0.0015899071004241705
1761315791622193200,3.611193115234375,0.008015315979719162,-0.00740252248942852,0.002058357233181596
1761315791632240000,3.621240234375,0.005970807280391455,-0.007798268459737301,0.0014966964954510331
1761315791642287000,3.631287109375,0.0054301852360367775,-0.00637933611869812,0.0008583368035033345
1761315791652334800,3.6413349609375,0.00509782275184989,-0.009211608208715916,-0.00021944446780253202
1761315791662382000,3.651382080078125,0.0062760054133832455,-0.0073204971849918365,0.002189118415117264
1761315791672429000,3.661428955078125,0.007533550262451172,-0.007424892857670784,0.0026320021133869886
1761315791682477000,3.67147705078125,0.006924218963831663,-0.008593222126364708,0.00013369068619795144
1761315791692524000,3.68152392578125,0.006660565733909607,-0.006028864067047834,0.0014306501252576709
1761315791702571300,3.6915712890625,0.008960205130279064,-0.0073623089119791985,0.001276453142054379
1761315791712619000,3.701618896484375,0.00875301193445921,-0.007163636852055788,0.0011739213950932026
1761315791722666000,3.711666015625,0.008731706067919731,-0.00561154680326581,0.003096990054473281
1761315791732713000,3.721712890625,0.00774633651599288,-0.008551676757633686,-0.00009187905379803851
1761315791742761200,3.73176123046875,0.007848069071769714,-0.008510397747159004,0.0007843009079806507
1761315791752808200,3.74180810546875,0.00826964806765318,-0.00830666534602642,0.0021824603900313377
1761315791762855200,3.751855224609375,0.009611082263290882,-0.009488310664892197,0.00029081720276735723
1761315791772903000,3.76190283203125,0.007250722497701645,-0.007774299941956997,0.0013217268278822303
1761315791782950100,3.7719501953125,0.006047239992767572,-0.009410279802978039,0.0022003035992383957
1761315791792997000,3.7819970703125,0.006385727785527706,-0.006630738265812397,0.001669003046117723
1761315791803045000,3.792045166015625,0.0059998356737196445,-0.006727145053446293,0.0026999127585440874
1761315791813092000,3.802092041015625,0.006110623013228178,-0.008795888163149357,0.0023438481148332357
1761315791823139000,3.81213916015625,0.007224623579531908,-0.008313856087625027,0.0006343649583868682
1761315791833187000,3.82218701171875,0.005163336638361216,-0.009012935683131218,0.0014721954939886928
1761315791843234000,3.832234130859375,0.005362807307392359,-0.006056294776499271,0.0032690302468836308
1761315791853282800,3.84228271484375,0.007836084812879562,-0.005283178761601448,0.002037318190559745
1761315791863329800,3.852329833984375,0.007683486212044954,-0.006786799523979425,0.001543834456242621
1761315791873376800,3.862376708984375,0.004985171370208263,-0.008078432641923428,0.0029531794134527445
1761315791883425000,3.872425048828125,0.005077316425740719,-0.006113019771873951,0.0024346618447452784
1761315791893472000,3.882471923828125,0.007574562914669514,-0.008963135071098804,0.0028415927663445473
1761315791903519000,3.89251904296875,0.005079447291791439,-0.007223558146506548,0.002189118415117264
1761315791913566700,3.902566650390625,0.006638728082180023,-0.0075945365242660046,0.0038605183362960815
1761315791923614000,3.912614013671875,0.008068845607340336,-0.007676029112190008,0.004156661685556173
1761315791933661000,3.922660888671875,0.007303985767066479,-0.008709602057933807,0.0014881744282320142
1761315791943709000,3.932708984375,0.010207363404333591,-0.00689039658755064,0.004058391321450472
1761315791953756000,3.942755859375,0.008565790951251984,-0.005175853613764048,0.0011153318919241428
1761315791963803000,3.952802978515625,0.009485380724072456,-0.00941853504627943,0.0036019254475831985
1761315791973851000,3.962850830078125,0.0059867859818041325,-0.008856608532369137,0.00279046013019979
1761315791983897900,3.97289794921875,0.005607818253338337,-0.00777776213362813,0.0007033408619463444
1761315791993944800,3.98294482421875,0.008065649308264256,-0.009917079471051693,-0.0005784385721199214
1761315792003993000,3.9929931640625,0.0075697689317166805,-0.0060387179255485535,0.001418932224623859
1761315792014040000,4.0030400390625,0.00692022405564785,-0.006317018065601587,-0.0003105245705228299
1761315792024087000,4.013087158203125,0.009640377014875412,-0.0088187912479043,0.001130245509557426
1761315792034134800,4.023134765625,0.00806165486574173,-0.010010822676122189,0.003073820611461997
1761315792044181800,4.033181640625,0.008460596203804016,-0.008438492193818092,0.0020668793004006147
1761315792054229000,4.04322900390625,0.006400641519576311,-0.007310110609978437,0.0008671252289786935
1761315792064277000,4.053277099609375,0.009495766833424568,-0.009306150488555431,0.0027457191608846188
1761315792074324000,4.063323974609375,0.00905741099268198,-0.007228618022054434,-0.000005326322025211994
1761315792084371000,4.073370849609375,0.007212372962385416,-0.007107177749276161,-0.00010120012302650139
1761315792094419000,4.0834189453125,0.007232879288494587,-0.0060019660741090775,0.0015254586469382048
1761315792104466000,4.0934658203125,0.008435030467808247,-0.004022971261292696,0.0008586031035520136
1761315792114513000,4.103512939453125,0.006103698629885912,-0.007044860161840916,0.0017259946325793862
1761315792124561000,4.113560791015625,0.006000634748488665,-0.006918626371771097,-0.0013496900210157037
1761315792134608100,4.123608154296875,0.004114317707717419,-0.009913883171975613,-0.00012170646368758753
1761315792144656000,4.13365576171875,0.006044842768460512,-0.008301871828734875,0.0014674017438665032
1761315792154702800,4.143702880859375,0.005520200356841087,-0.008414790034294128,-0.00017177389236167073
1761315792164749800,4.153749755859375,0.006388923618942499,-0.00625975988805294,0.0003371562052052468
1761315792174798000,4.163798095703125,0.0057257963344454765,-0.007390005514025688,-0.00046152580762282014
1761315792184845000,4.173844970703125,0.008641690947115421,-0.004066114313900471,0.0017369136912748218
1761315792194892000,4.18389208984375,0.007935686968266964,-0.008527441881597042,-0.0010724549647420645
1761315792204939800,4.193939697265625,0.009109608829021454,-0.00782782956957817,-0.00045593318645842373
1761315792214987000,4.203987060546875,0.010277139022946358,-0.007250456139445305,0.0035430695861577988
1761315792225034000,4.214033935546875,0.007685083895921707,-0.008267517201602459,0.0007307713967747986
1761315792235082000,4.22408203125,0.008790561929345131,-0.007399593014270067,0.000556600687559694
1761315792245129000,4.23412890625,0.005260808393359184,-0.0073652383871376514,0.0009912285022437572
1761315792255176000,4.244176025390625,0.009097624570131302,-0.006077599711716175,0.0011827098205685616
1761315792265224000,4.254223876953125,0.007097324356436729,-0.007500793319195509,0.0019126823171973228
1761315792275271000,4.26427099609375,0.004235225263983011,-0.006955377757549286,0.0019827233627438545
1761315792285318000,4.27431787109375,0.007744472473859787,-0.00865953415632248,0.00045833003241568804
1761315792295366000,4.284365966796875,0.009618006646633148,-0.007046990562230349,0.0023339942563325167
1761315792305413000,4.2944130859375,0.009999903850257397,-0.006814230233430862,0.0007113303290680051
1761315792315459800,4.3044599609375,0.006897587329149246,-0.004260791465640068,0.00009853696246864274
1761315792325507800,4.3145078125,0.0065652248449623585,-0.007479221560060978,0.0004830974212381989
1761315792335554800,4.324554931640625,0.006304767448455095,-0.006124737672507763,0.002588059986010194
1761315792345602000,4.33460205078125,0.005667473189532757,-0.006885070353746414,0.0014410364674404263
1761315792355650000,4.344650146484375,0.006155097857117653,-0.007920507341623306,0.0024109596852213144
1761315792365697000,4.354697021484375,0.008432633243501186,-0.009906427003443241,0.0005661880713887513
1761315792375743700,4.36474365234375,0.004448277875781059,-0.007384412921965122,0.00202267081476748
1761315792385792000,4.3747919921875,0.004996356554329395,-0.006295712664723396,0.004761465825140476
1761315792395839000,4.3848388671875,0.0070882695727050304,-0.007516239304095507,0.002020007697865367
1761315792405886000,4.394885986328125,0.007875500246882439,-0.007021424360573292,0.0007709851488471031
1761315792415934000,4.404933837890625,0.007919708266854286,-0.00615136930719018,-0.0002942793071269989
1761315792425981000,4.41498095703125,0.008186024613678455,-0.008168980479240417,0.0033396040089428425
1761315792436028000,4.42502783203125,0.009102151729166508,-0.006256564520299435,-0.00011851066665258259
1761315792446076000,4.435075927734375,0.006872819736599922,-0.006171077024191618,0.0010338390711694956
1761315792456123000,4.445122802734375,0.009269132278859615,-0.006776946131139994,0.002597647253423929
1761315792466169900,4.455169921875,0.007243531756103039,-0.007449926808476448,0.00373108871281147
1761315792476218000,4.465218017578125,0.007388940546661615,-0.008930111303925514,0.0016117451013997197
1761315792486264800,4.475264892578125,0.007865113206207752,-0.008872320875525475,-0.00029348034877330065
1761315792496311800,4.485311767578125,0.00920202024281025,-0.00803156103938818,0.0010634001810103655
1761315792506359800,4.49535986328125,0.007784419693052769,-0.008519452065229416,0.0019864519126713276
1761315792516407000,4.505406982421875,0.007413441315293312,-0.006485063582658768,0.0036184368655085564
1761315792526454000,4.5154541015625,0.006820355542004108,-0.007453921716660261,0.0009677927591837943
1761315792536501800,4.525501708984375,0.00606508320197463,-0.0075812204740941525,0.0016580841038376093
1761315792546548700,4.535548828125,0.007861651480197906,-0.00987260416150093,0.0013171994360163808
1761315792556596000,4.545595947265625,0.008451541885733604,-0.01016688346862793,0.0007946872501634061
1761315792566644000,4.55564404296875,0.004459196701645851,-0.006446181330829859,0.0009374326909892261
1761315792576691000,4.56569091796875,0.0060056946240365505,-0.007484281435608864,0.001237571006640792
1761315792586739000,4.575739013671875,0.004421646241098642,-0.009461412206292152,0.0019142802339047194
1761315792596786000,4.585785888671875,0.0067809405736625195,-0.009915481321513653,0.0012578109744936228
1761315792606833000,4.5958330078125,0.007724232506006956,-0.008333563804626465,0.001329716295003891
1761315792616881000,4.605880859375,0.005802495405077934,-0.008520517498254776,0.0035270904190838337
1761315792626927900,4.615927978515625,0.009076851420104504,-0.00821052584797144,-0.0012149340473115444
1761315792636974800,4.625974853515625,0.006651510950177908,-0.008105862885713577,-0.0009302421822212636
1761315792647022800,4.63602294921875,0.004180097486823797,-0.005934588145464659,0.002680471632629633
1761315792657069800,4.64606982421875,0.006847253534942865,-0.007158576976507902,0.0007337008719332516
1761315792667116800,4.65611669921875,0.008013717830181122,-0.007929561659693718,0.000758734589908272
1761315792677165000,4.6661650390625,0.007992945611476898,-0.007045126520097256,0.0000673779723001644
1761315792687212000,4.6762119140625,0.007647267077118158,-0.008806008845567703,-0.00021544973424170166
1761315792697259000,4.686259033203125,0.0054424358531832695,-0.005876265000551939,0.0014900385867804289
1761315792707306800,4.696306640625,0.009065932594239712,-0.007963384501636028,-0.0012873720843344927
1761315792717353700,4.706353759765625,0.007075219880789518,-0.006299174856394529,0.001597363967448473
1761315792727401000,4.71640087890625,0.00612260727211833,-0.00968511775135994,0.0001901497016660869
1761315792737449000,4.726448974609375,0.006587062496691942,-0.007050452753901482,0.003225088119506836
1761315792747496000,4.736495849609375,0.009623332880437374,-0.00583818182349205,0.002344380598515272
1761315792757543000,4.74654296875,0.005285841878503561,-0.008374043740332127,0.002089516259729862
1761315792767591000,4.7565908203125,0.008891762234270573,-0.006932741031050682,-0.00033156355493701994
1761315792777638000,4.766637939453125,0.007428621407598257,-0.007092264015227556,0.0017843178939074278
1761315792787684900,4.776684814453125,0.0076422072015702724,-0.008392686024308205,0.0018959043081849813
1761315792797732900,4.78673291015625,0.0060088904574513435,-0.00899828877300024,-0.0012271846644580364
1761315792807780000,4.796780029296875,0.007726362906396389,-0.007276555057615042,0.004048004746437073
1761315792817827000,4.8068271484375,0.006257096771150827,-0.010004431009292603,0.0038543930277228355
1761315792827874800,4.816874755859375,0.008022773079574108,-0.008961803279817104,0.001862348522990942
1761315792837921800,4.826921875,0.006570284720510244,-0.008224373683333397,0.00170788518153131
1761315792847968800,4.83696875,0.005373992491513491,-0.007453389000147581,0.002305498579517007
1761315792858016800,4.847016845703125,0.003859453136101365,-0.0057188719511032104,0.002584864152595401
1761315792868063700,4.857063720703125,0.005086903925985098,-0.006654440425336361,0.0011536814272403717
1761315792878111000,4.867111083984375,0.007642739452421665,-0.008101602084934711,0.0005560680292546749
1761315792888158700,4.87715869140625,0.007425425574183464,-0.009669938124716282,0.0022245384752750397
1761315792898205700,4.887205810546875,0.0068182251416146755,-0.007107976824045181,0.002320412313565612
1761315792908252700,4.897252685546875,0.008529571816325188,-0.007245395798236132,0.0018261295044794679
1761315792918301000,4.907301025390625,0.007778028026223183,-0.007789745926856995,0.002685797866433859
1761315792928348000,4.917347900390625,0.007801463827490807,-0.008099472150206566,-0.000005858954409632133
1761315792938395000,4.927394775390625,0.007505853194743395,-0.007790811359882355,0.0030503845773637295
1761315792948439800,4.937439697265625,0.007759119849652052,-0.008141815662384033,0.0019651465117931366
1761315792958486800,4.94748681640625,0.0073476615361869335,-0.006956176832318306,0.005823001731187105
1761315792968534800,4.95753466796875,0.004954811185598373,-0.005392102058976889,0.004965463653206825
1761315792978582000,4.96758203125,0.008056594990193844,-0.007674165070056915,0.0017994979862123728
1761315792988629000,4.97762890625,0.003933488857001066,-0.008230498991906643,0.002061286708340049
1761315792998676700,4.9876767578125,0.006307696923613548,-0.006416886579245329,0.0003203782835043967
1761315793008723700,4.9977236328125,0.0070888022892177105,-0.007148190401494503,0.0011968245962634683
1761315793018770700,5.007770751953125,0.00740252248942852,-0.007209443487226963,0.0046578687615692616
1761315793028819000,5.01781884765625,0.008191883563995361,-0.0072901370003819466,0.003938016481697559
1761315793038866000,5.027865966796875,0.010116017423570156,-0.00827710423618555,0.002983805723488331
1761315793048912600,5.03791259765625,0.006988933775573969,-0.006185724399983883,0.0022679478861391544
1761315793058961000,5.0479609375,0.005662412848323584,-0.007397196255624294,0.0023318638559430838
1761315793069008000,5.0580078125,0.004838963504880667,-0.006905843038111925,0.0023409186396747828
1761315793079054800,5.068054931640625,0.006317018065601587,-0.005957491230219603,0.0009632653673179448
1761315793089102800,5.078102783203125,0.006148972548544407,-0.006973753683269024,0.0013512879377231002
1761315793099149800,5.08814990234375,0.004388889297842979,-0.009002283215522766,0.0023550332989543676
1761315793109196800,5.09819677734375,0.008845156989991665,-0.009827597066760063,0.0014948323369026184
1761315793119244800,5.108244873046875,0.007014766335487366,-0.0063095614314079285,0.0031156321056187153
1761315793129291800,5.118291748046875,0.005891711451113224,-0.008158594369888306,0.0008293083519674838
1761315793139338800,5.1283388671875,0.006195045076310635,-0.007209177128970623,0.0008958873804658651
1761315793149387000,5.138386962890625,0.007644603960216045,-0.008866994641721249,0.0025457157753407955
1761315793159433700,5.148433837890625,0.006202502176165581,-0.007954329252243042,-0.00011877698125317693
1761315793169480700,5.158480712890625,0.007845140062272549,-0.008884837850928307,-0.0006759102689102292
1761315793179528700,5.16852880859375,0.006637129932641983,-0.008445949293673038,0.0003254382754676044
1761315793189576000,5.178575927734375,0.007095459848642349,-0.006364422384649515,-0.0003195793251506984
1761315793199623000,5.188622802734375,0.010291253216564655,-0.006461361423134804,0.0020785972010344267
1761315793209670700,5.198670654296875,0.009120527654886246,-0.008291219361126423,0.0011507519520819187
1761315793219717600,5.208717529296875,0.009048355743288994,-0.007829161360859871,-0.00014221279707271606
1761315793229764600,5.2187646484375,0.007122624199837446,-0.0051955608651041985,-0.00005273058923194185
1761315793239812900,5.228812744140625,0.007159109693020582,-0.008522914722561836,0.001061802264302969
1761315793249859800,5.23885986328125,0.006838465109467506,-0.006081061903387308,0.0015539544401690364
1761315793259906800,5.24890673828125,0.00902625173330307,-0.007095992565155029,0.003451723139733076
1761315793269954600,5.25895458984375,0.008925051428377628,-0.008266185410320759,0.004341484978795052
1761315793280001800,5.269001708984375,0.010281932540237904,-0.008609467186033726,0.001540638622827828
1761315793290048800,5.279048828125,0.007862983271479607,-0.006943393498659134,0.002404035534709692
1761315793300096800,5.2890966796875,0.006148972548544407,-0.008490423671901226,0.0011646003695204854
1761315793310143700,5.299143798828125,0.008441687561571598,-0.008886702358722687,0.0017800568602979183
1761315793320191000,5.30919091796875,0.0072928001172840595,-0.007797735743224621,0.001660480978898704
1761315793330238700,5.31923876953125,0.004710332956165075,-0.005852562841027975,0.00034887410583905876
1761315793340285700,5.32928564453125,0.00806192122399807,-0.0064834654331207275,0.0008234494016505778
1761315793350332700,5.339332763671875,0.006673881784081459,-0.00771757448092103,-0.0013680658303201199
1761315793360381000,5.349380859375,0.0038661109283566475,-0.007016364019364119,0.0013526194961741567
1761315793370428000,5.359427978515625,0.005771602503955364,-0.009069395251572132,0.0007105313707143068
1761315793380475000,5.369474853515625,0.005138835404068232,-0.007410245481878519,0.001853560097515583
1761315793390522600,5.379522705078125,0.0062941149808466434,-0.007651527877897024,0.0032770195975899696
1761315793400569900,5.38956982421875,0.007443268783390522,-0.00631861574947834,0.0025334651581943035
1761315793410616800,5.399616943359375,0.008725580759346485,-0.007398261222988367,0.0012804478174075484
1761315793420664800,5.409664794921875,0.008054996840655804,-0.006013683974742889,0.002299905987456441
1761315793430711800,5.4197119140625,0.006274673622101545,-0.00703900121152401,0.0022833943367004395
1761315793440758800,5.4297587890625,0.006608367897570133,-0.008814264088869095,0.000041811628761934116
1761315793450806000,5.439805908203125,0.007450193166732788,-0.00698014535009861,0.0007677893154323101
1761315793460853800,5.449853759765625,0.008534366264939308,-0.007508249953389168,0.001755023142322898
1761315793470900700,5.459900634765625,0.005782255437225103,-0.008719189092516899,-0.00008149272616719827
1761315793480947700,5.46994775390625,0.006548712961375713,-0.00765871861949563,0.0011174624087288976
1761315793490996000,5.479995849609375,0.00917405728250742,-0.0067689563147723675,0.0024104269687086344
1761315793501043000,5.49004296875,0.009267001412808895,-0.007967378944158554,0.004019509069621563
1761315793511090000,5.50008984375,0.008267517201602459,-0.005591573193669319,0.0033920682035386562
1761315793521137700,5.5101376953125,0.00583631731569767,-0.006897853687405586,0.0028855351265519857
1761315793531185000,5.520184814453125,0.009573531337082386,-0.007665909361094236,0.0034972631838172674
1761315793541231900,5.53023193359375,0.0065284729935228825,-0.008982043713331223,0.0025390577502548695
1761315793551283000,5.540282958984375,0.0048890309408307076,-0.0070674968883395195,0.00003302319601061754
1761315793561330000,5.550329833984375,0.006579605862498283,-0.008008391596376896,-0.0001411475386703387
1761315793571377000,5.560376953125,0.005461610853672028,-0.008621451444923878,0.0004396878939587623
1761315793581423900,5.570423828125,0.006845921743661165,-0.00894103106111288,0.0017219999572262168
1761315793591471900,5.580471923828125,0.007104514632374048,-0.007133809383958578,0.0020237360149621964
