time,seconds_elapsed,z,y,x
1761315268860431600,0.066431640625,-0.9376678466796875,-0.2738800048828125,0.019134521484375
1761315268870479600,0.076479736328125,-0.931488037109375,-0.286163330078125,0.0220184326171875
1761315268880526600,0.086526611328125,-0.9359893798828125,-0.2946014404296875,0.026885986328125
1761315268890573600,0.096573486328125,-0.9412841796875,-0.30657958984375,0.029388427734375
1761315268900620800,0.106620849609375,-0.9387664794921875,-0.3181915283203125,0.0279998779296875
1761315268910668500,0.11666845703125,-0.9428863525390625,-0.32391357421875,0.0234222412109375
1761315268920715500,0.126715576171875,-0.96136474609375,-0.32647705078125,0.0175323486328125
1761315268930762500,0.136762451171875,-0.983673095703125,-0.3301544189453125,0.017578125
1761315268940810800,0.146810791015625,-1.0106201171875,-0.33160400390625,0.018035888671875
1761315268950857700,0.156857666015625,-1.0313873291015625,-0.3288726806640625,0.0124359130859375
1761315268960904700,0.16690478515625,-1.0343475341796875,-0.317901611328125,0.0107574462890625
1761315268970952400,0.176952392578125,-1.048675537109375,-0.3065338134765625,0.0108795166015625
1761315268980999700,0.186999755859375,-1.056671142578125,-0.29986572265625,0.0172576904296875
1761315268991046700,0.197046630859375,-1.0557098388671875,-0.29656982421875,0.0238800048828125
1761315269001094700,0.2070947265625,-1.0286712646484375,-0.2845458984375,0.02752685546875
1761315269011141600,0.2171416015625,-0.98681640625,-0.2684783935546875,0.033843994140625
1761315269021188600,0.227188720703125,-0.9490966796875,-0.259552001953125,0.030059814453125
1761315269031235600,0.237235595703125,-0.93341064453125,-0.2790069580078125,0.02423095703125
1761315269041283600,0.24728369140625,-0.9317474365234375,-0.3009185791015625,0.0317840576171875
1761315269051330600,0.25733056640625,-0.9304656982421875,-0.330230712890625,0.04278564453125
1761315269061377500,0.26737744140625,-0.9096832275390625,-0.3694610595703125,0.0484161376953125
1761315269071425800,0.27742578125,-0.8837890625,-0.4081878662109375,0.053863525390625
1761315269081472500,0.287472412109375,-0.86773681640625,-0.43719482421875,0.05584716796875
1761315269091519500,0.29751953125,-0.8634033203125,-0.45709228515625,0.051300048828125
1761315269101567500,0.3075673828125,-0.8572540283203125,-0.472412109375,0.0458526611328125
1761315269111614700,0.31761474609375,-0.8527374267578125,-0.486541748046875,0.0358123779296875
1761315269121661700,0.32766162109375,-0.852508544921875,-0.498931884765625,0.0254364013671875
1761315269131708700,0.337708740234375,-0.8483428955078125,-0.50128173828125,0.0176239013671875
1761315269141756400,0.34775634765625,-0.8407135009765625,-0.495147705078125,0.019012451171875
1761315269151803600,0.3578037109375,-0.8382110595703125,-0.484405517578125,0.028045654296875
1761315269161850600,0.3678505859375,-0.8424835205078125,-0.471923828125,0.03863525390625
1761315269171898600,0.377898681640625,-0.8403167724609375,-0.4630584716796875,0.0491943359375
1761315269181945600,0.387945556640625,-0.8424072265625,-0.452056884765625,0.058380126953125
1761315269191992600,0.39799267578125,-0.8641357421875,-0.4363555908203125,0.0653228759765625
1761315269202040600,0.40804052734375,-0.8869781494140625,-0.4242706298828125,0.0726776123046875
1761315269212087600,0.418087646484375,-0.901641845703125,-0.4074859619140625,0.0775299072265625
1761315269222134500,0.428134521484375,-0.910797119140625,-0.390594482421875,0.0766448974609375
1761315269232182500,0.4381826171875,-0.91400146484375,-0.3777618408203125,0.07354736328125
1761315269242229800,0.448229736328125,-0.914093017578125,-0.3717193603515625,0.0757904052734375
1761315269252276700,0.45827685546875,-0.931915283203125,-0.377685546875,0.08233642578125
1761315269262323700,0.46832373046875,-0.943084716796875,-0.3924407958984375,0.084136962890625
1761315269272371500,0.478371337890625,-0.93695068359375,-0.3977813720703125,0.0782470703125
1761315269282418700,0.488418701171875,-0.9154052734375,-0.3961029052734375,0.067138671875
1761315269292465700,0.498465576171875,-0.893951416015625,-0.4014892578125,0.0619659423828125
1761315269302513700,0.508513671875,-0.8787841796875,-0.4127960205078125,0.0594329833984375
1761315269312560600,0.518560546875,-0.8725128173828125,-0.421630859375,0.060791015625
1761315269322607600,0.528607666015625,-0.868316650390625,-0.430267333984375,0.060516357421875
1761315269332655600,0.538655517578125,-0.862945556640625,-0.4363861083984375,0.0565032958984375
1761315269342702600,0.54870263671875,-0.8604736328125,-0.44219970703125,0.0476837158203125
1761315269352746800,0.558746826171875,-0.8551788330078125,-0.4471893310546875,0.036956787109375
1761315269362793700,0.568793701171875,-0.8465576171875,-0.4439544677734375,0.0166015625
1761315269372841700,0.578841796875,-0.8433990478515625,-0.4328155517578125,-0.0023651123046875
1761315269382888700,0.588888671875,-0.8641510009765625,-0.428497314453125,-0.0074462890625
1761315269392935700,0.598935791015625,-0.891815185546875,-0.424652099609375,-0.009490966796875
1761315269402983700,0.608983642578125,-0.899505615234375,-0.4251708984375,-0.0029144287109375
1761315269413030700,0.61903076171875,-0.8852996826171875,-0.428253173828125,0.007293701171875
1761315269423078000,0.629077880859375,-0.8900909423828125,-0.43267822265625,0.0169219970703125
1761315269433125600,0.639125732421875,-0.94891357421875,-0.445068359375,0.04052734375
1761315269443172600,0.649172607421875,-0.98260498046875,-0.4583587646484375,0.05078125
1761315269453219600,0.659219482421875,-0.97711181640625,-0.446990966796875,0.0355682373046875
1761315269463267800,0.669267822265625,-0.9601287841796875,-0.412872314453125,0.0101470947265625
1761315269473314800,0.679314697265625,-0.9463958740234375,-0.3819580078125,-0.003509521484375
1761315269483361800,0.68936181640625,-0.9429168701171875,-0.37646484375,-0.018890380859375
1761315269493408800,0.69940869140625,-0.931488037109375,-0.376251220703125,-0.038055419921875
1761315269503456800,0.709456787109375,-0.908172607421875,-0.36883544921875,-0.048675537109375
1761315269513503700,0.719503662109375,-0.8961181640625,-0.363739013671875,-0.060516357421875
1761315269523550700,0.72955078125,-0.914947509765625,-0.3807373046875,-0.063720703125
1761315269533598700,0.7395986328125,-0.974578857421875,-0.414794921875,-0.0390472412109375
1761315269543645700,0.749645751953125,-1.04205322265625,-0.443115234375,-0.0088043212890625
1761315269553693000,0.75969287109375,-1.0684356689453125,-0.4453277587890625,0.00238037109375
1761315269563740700,0.76974072265625,-1.0640106201171875,-0.4223480224609375,-0.00146484375
1761315269573787600,0.77978759765625,-1.048675537109375,-0.3919525146484375,-0.01824951171875
1761315269583834600,0.789834716796875,-1.0143280029296875,-0.37213134765625,-0.0290374755859375
1761315269593883000,0.7998828125,-0.9830474853515625,-0.3709716796875,-0.0334320068359375
1761315269603929900,0.809929931640625,-0.958221435546875,-0.37799072265625,-0.0376739501953125
1761315269613976800,0.819976806640625,-0.9378204345703125,-0.3858184814453125,-0.039215087890625
1761315269624023600,0.8300234375,-0.904266357421875,-0.3952178955078125,-0.0400543212890625
1761315269634071800,0.84007177734375,-0.8614501953125,-0.4075164794921875,-0.04302978515625
1761315269644118800,0.850118896484375,-0.8210296630859375,-0.4290008544921875,-0.0360107421875
1761315269654165800,0.860165771484375,-0.804412841796875,-0.465850830078125,-0.0160980224609375
1761315269664213800,0.8702138671875,-0.8039398193359375,-0.5005645751953125,-0.00115966796875
1761315269674260700,0.8802607421875,-0.800048828125,-0.50762939453125,-0.0045928955078125
1761315269684307700,0.8903076171875,-0.8023529052734375,-0.492279052734375,-0.0160980224609375
1761315269694355700,0.900355712890625,-0.8039398193359375,-0.4746551513671875,-0.033966064453125
1761315269704402700,0.910402587890625,-0.7914581298828125,-0.4630889892578125,-0.0511627197265625
1761315269714449700,0.92044970703125,-0.7933807373046875,-0.4559783935546875,-0.062652587890625
1761315269724497000,0.930496826171875,-0.7816925048828125,-0.441009521484375,-0.074005126953125
1761315269734544600,0.940544677734375,-0.75006103515625,-0.430908203125,-0.069427490234375
1761315269744591600,0.950591552734375,-0.7434234619140625,-0.4616546630859375,-0.0287933349609375
1761315269754638600,0.960638671875,-0.8021392822265625,-0.5096588134765625,-0.0072784423828125
1761315269764686800,0.970686767578125,-0.759613037109375,-0.5111846923828125,-0.035247802734375
1761315269774733800,0.98073388671875,-0.7349090576171875,-0.5190582275390625,-0.05731201171875
1761315269784780800,0.99078076171875,-0.7575531005859375,-0.529449462890625,-0.067352294921875
1761315269794828500,1.00082861328125,-0.790679931640625,-0.534393310546875,-0.064117431640625
1761315269804875800,1.010875732421875,-0.7985382080078125,-0.510467529296875,-0.0672149658203125
1761315269814922800,1.0209228515625,-0.7878875732421875,-0.4697113037109375,-0.0706939697265625
1761315269824970800,1.030970703125,-0.82879638671875,-0.4798583984375,-0.06591796875
1761315269835017700,1.041017822265625,-0.841705322265625,-0.4797210693359375,-0.06146240234375
1761315269845064700,1.051064697265625,-0.8378448486328125,-0.4762115478515625,-0.0539398193359375
1761315269855112000,1.06111181640625,-0.852630615234375,-0.480682373046875,-0.04791259765625
1761315269865159700,1.07115966796875,-0.8782501220703125,-0.490570068359375,-0.041778564453125
1761315269875206700,1.08120654296875,-0.8770599365234375,-0.4892730712890625,-0.038970947265625
1761315269885253600,1.091253662109375,-0.866943359375,-0.47357177734375,-0.0397491455078125
1761315269895302000,1.101302001953125,-0.8559417724609375,-0.463531494140625,-0.040924072265625
1761315269905348900,1.111348876953125,-0.8405303955078125,-0.46978759765625,-0.0448760986328125
1761315269915395800,1.121395751953125,-0.820404052734375,-0.4852142333984375,-0.050262451171875
1761315269925443600,1.131443603515625,-0.8077239990234375,-0.499908447265625,-0.0539093017578125
1761315269935490800,1.14149072265625,-0.8073577880859375,-0.5119171142578125,-0.0563812255859375
1761315269945537800,1.151537841796875,-0.8174896240234375,-0.520111083984375,-0.0582427978515625
1761315269955585800,1.161585693359375,-0.83355712890625,-0.518310546875,-0.07049560546875
1761315269965632800,1.1716328125,-0.83001708984375,-0.5112457275390625,-0.080322265625
1761315269975679700,1.1816796875,-0.8310394287109375,-0.50714111328125,-0.0819549560546875
1761315269985726700,1.191726806640625,-0.8357391357421875,-0.5060577392578125,-0.0794830322265625
1761315269995774700,1.201774658203125,-0.8504638671875,-0.5073089599609375,-0.07708740234375
1761315270005821700,1.21182177734375,-0.877105712890625,-0.50238037109375,-0.0825958251953125
1761315270015868700,1.22186865234375,-0.869903564453125,-0.4979095458984375,-0.085601806640625
1761315270025917000,1.2319169921875,-0.8657684326171875,-0.4898223876953125,-0.08251953125
1761315270035963600,1.241963623046875,-0.8787078857421875,-0.4794158935546875,-0.08050537109375
1761315270046010600,1.2520107421875,-0.885650634765625,-0.475128173828125,-0.071929931640625
1761315270056058600,1.26205859375,-0.88702392578125,-0.4757537841796875,-0.0621795654296875
1761315270066105900,1.27210595703125,-0.89239501953125,-0.4776611328125,-0.055145263671875
1761315270076152800,1.28215283203125,-0.8993988037109375,-0.479156494140625,-0.0532684326171875
1761315270086200800,1.292200927734375,-0.8885040283203125,-0.4820098876953125,-0.0547637939453125
1761315270096247600,1.30224755859375,-0.8788604736328125,-0.4794464111328125,-0.0579681396484375
1761315270106294500,1.31229443359375,-0.8699493408203125,-0.4747772216796875,-0.0624237060546875
1761315270116341800,1.322341796875,-0.8496246337890625,-0.47186279296875,-0.0590057373046875
1761315270126389800,1.3323896484375,-0.843475341796875,-0.47491455078125,-0.050811767578125
1761315270136436700,1.342436767578125,-0.8470001220703125,-0.4806365966796875,-0.0382232666015625
1761315270146483700,1.352483642578125,-0.8520050048828125,-0.48529052734375,-0.0229339599609375
1761315270156531700,1.36253173828125,-0.86248779296875,-0.4946441650390625,-0.0075836181640625
1761315270166578700,1.37257861328125,-0.86492919921875,-0.5086669921875,0.0066375732421875
1761315270176625700,1.382625732421875,-0.8603668212890625,-0.5161285400390625,0.0169830322265625
1761315270186673700,1.392673583984375,-0.863983154296875,-0.516387939453125,0.0249786376953125
1761315270196721000,1.402720947265625,-0.8754425048828125,-0.51806640625,0.026031494140625
1761315270206767900,1.412767822265625,-0.8812103271484375,-0.5264892578125,0.0204010009765625
1761315270216814800,1.42281494140625,-0.880767822265625,-0.5275115966796875,0.008880615234375
1761315270226862600,1.432862548828125,-0.884490966796875,-0.51470947265625,-0.0049285888671875
1761315270236909600,1.44290966796875,-0.892578125,-0.5139007568359375,-0.0182342529296875
1761315270246956800,1.452956787109375,-0.888092041015625,-0.52911376953125,-0.019073486328125
1761315270257004800,1.4630048828125,-0.901031494140625,-0.5396575927734375,-0.015594482421875
1761315270267051800,1.4730517578125,-0.8978424072265625,-0.532196044921875,-0.01324462890625
1761315270277098800,1.4830986328125,-0.8794097900390625,-0.5219268798828125,-0.0090179443359375
1761315270287146800,1.493146728515625,-0.874847412109375,-0.523773193359375,-0.0032958984375
1761315270297193700,1.50319384765625,-0.875579833984375,-0.526580810546875,-0.00048828125
1761315270307240700,1.51324072265625,-0.8675689697265625,-0.5250701904296875,0.00592041015625
1761315270317288700,1.523288818359375,-0.861114501953125,-0.5133209228515625,0.0094757080078125
1761315270327336000,1.5333359375,-0.8599700927734375,-0.5030975341796875,0.0123748779296875
1761315270337383000,1.5433828125,-0.85809326171875,-0.4998626708984375,0.0124664306640625
1761315270347429600,1.5534296875,-0.8547821044921875,-0.4936065673828125,0.00701904296875
1761315270357480000,1.56347998046875,-0.8450469970703125,-0.4855499267578125,0.0052337646484375
1761315270367526700,1.573526611328125,-0.83526611328125,-0.48126220703125,0.01092529296875
1761315270377573600,1.58357373046875,-0.831756591796875,-0.48046875,0.01898193359375
1761315270387621600,1.59362158203125,-0.825439453125,-0.48382568359375,0.024749755859375
1761315270397668900,1.6036689453125,-0.816986083984375,-0.4911651611328125,0.0277252197265625
1761315270407715800,1.6137158203125,-0.813232421875,-0.49176025390625,0.022918701171875
1761315270417763600,1.623763671875,-0.8059539794921875,-0.484344482421875,0.0047149658203125
1761315270427810600,1.633810546875,-0.7935028076171875,-0.4825897216796875,-0.009613037109375
1761315270437857500,1.643857421875,-0.789703369140625,-0.4892730712890625,-0.017242431640625
1761315270447905800,1.65390576171875,-0.791259765625,-0.5012359619140625,-0.0175933837890625
1761315270457952800,1.663952880859375,-0.7910919189453125,-0.513824462890625,-0.0168304443359375
1761315270467999700,1.673999755859375,-0.7892608642578125,-0.52410888671875,-0.0160369873046875
1761315270478046700,1.684046630859375,-0.7832489013671875,-0.5350341796875,-0.0164947509765625
1761315270488094700,1.6940947265625,-0.774383544921875,-0.5430450439453125,-0.0190277099609375
1761315270498141700,1.7041416015625,-0.7752227783203125,-0.5428619384765625,-0.02276611328125
1761315270508188700,1.714188720703125,-0.7840728759765625,-0.5413818359375,-0.022613525390625
1761315270518236700,1.724236572265625,-0.78790283203125,-0.547454833984375,-0.0133209228515625
1761315270528284000,1.734283935546875,-0.8017730712890625,-0.5481109619140625,-0.003173828125
1761315270538331000,1.744330810546875,-0.8182373046875,-0.5453338623046875,0.0106964111328125
1761315270548378600,1.754378662109375,-0.8266143798828125,-0.552032470703125,0.027862548828125
1761315270558425600,1.764425537109375,-0.8434295654296875,-0.5577850341796875,0.040740966796875
1761315270568472600,1.77447265625,-0.853485107421875,-0.5500640869140625,0.0464019775390625
1761315270578520800,1.784520751953125,-0.851409912109375,-0.538116455078125,0.0482940673828125
1761315270588567800,1.79456787109375,-0.856689453125,-0.5344390869140625,0.052001953125
1761315270598614800,1.80461474609375,-0.87432861328125,-0.5360565185546875,0.0532989501953125
1761315270608661800,1.814661865234375,-0.87249755859375,-0.5311737060546875,0.0479888916015625
1761315270618709800,1.824709716796875,-0.8614959716796875,-0.52264404296875,0.046966552734375
1761315270628756700,1.8347568359375,-0.858001708984375,-0.5214385986328125,0.053253173828125
1761315270638803700,1.8448037109375,-0.863067626953125,-0.532470703125,0.06787109375
1761315270648851700,1.854851806640625,-0.864044189453125,-0.53900146484375,0.08172607421875
1761315270658899000,1.86489892578125,-0.8647308349609375,-0.514923095703125,0.0836639404296875
1761315270668945700,1.874945556640625,-0.868011474609375,-0.47882080078125,0.077484130859375
1761315270678993700,1.88499365234375,-0.8798065185546875,-0.4632568359375,0.07177734375
1761315270689040600,1.89504052734375,-0.9068603515625,-0.4591217041015625,0.0618438720703125
1761315270699087600,1.905087646484375,-0.926666259765625,-0.4532012939453125,0.050628662109375
1761315270709136000,1.915135986328125,-0.930206298828125,-0.4504547119140625,0.0306243896484375
1761315270719182800,1.925182861328125,-0.928985595703125,-0.4433441162109375,0.0113525390625
1761315270729229600,1.9352294921875,-0.93255615234375,-0.4304962158203125,-0.0145263671875
1761315270739276500,1.945276611328125,-0.9405364990234375,-0.418365478515625,-0.0308685302734375
1761315270749324800,1.95532470703125,-0.942230224609375,-0.41229248046875,-0.042816162109375
1761315270759371800,1.965371826171875,-0.9542083740234375,-0.40850830078125,-0.0573577880859375
1761315270769418800,1.975418701171875,-0.9651947021484375,-0.4035491943359375,-0.0738372802734375
1761315270779466800,1.985466796875,-0.9719390869140625,-0.40057373046875,-0.0812835693359375
1761315270789513700,1.995513671875,-0.9874267578125,-0.4006195068359375,-0.082000732421875
1761315270799560700,2.005560791015625,-1.00439453125,-0.39874267578125,-0.083160400390625
1761315270809608700,2.015608642578125,-1.012939453125,-0.39111328125,-0.0840606689453125
1761315270819655700,2.02565576171875,-1.01861572265625,-0.381103515625,-0.0873260498046875
1761315270829703000,2.035702880859375,-1.0220489501953125,-0.367034912109375,-0.091033935546875
1761315270839750700,2.045750732421875,-1.026214599609375,-0.35284423828125,-0.09649658203125
1761315270849797600,2.055797607421875,-1.009613037109375,-0.3419952392578125,-0.0998382568359375
1761315270859844600,2.0658447265625,-0.987335205078125,-0.334991455078125,-0.10052490234375
1761315270869892900,2.075892822265625,-0.9633026123046875,-0.3258514404296875,-0.104583740234375
1761315270879939800,2.08593994140625,-0.931793212890625,-0.3223114013671875,-0.1037139892578125
1761315270889986800,2.09598681640625,-0.9107666015625,-0.3279571533203125,-0.0975799560546875
1761315270900033800,2.10603369140625,-0.899871826171875,-0.3388519287109375,-0.08624267578125
1761315270910081500,2.11608154296875,-0.8807220458984375,-0.347747802734375,-0.0735321044921875
1761315270920128800,2.126128662109375,-0.8593902587890625,-0.3576202392578125,-0.0646514892578125
1761315270930175700,2.13617578125,-0.8506622314453125,-0.370208740234375,-0.0565185546875
1761315270940223700,2.1462236328125,-0.8574066162109375,-0.3841705322265625,-0.0438995361328125
1761315270950270700,2.156270751953125,-0.86322021484375,-0.391693115234375,-0.037322998046875
1761315270960318000,2.16631787109375,-0.866119384765625,-0.3876953125,-0.0397186279296875
1761315270970365700,2.17636572265625,-0.86932373046875,-0.3755035400390625,-0.04339599609375
1761315270980412700,2.18641259765625,-0.8756103515625,-0.3633575439453125,-0.05133056640625
1761315270990459600,2.196459716796875,-0.883758544921875,-0.3529052734375,-0.057403564453125
1761315271000508000,2.2065078125,-0.8930206298828125,-0.34417724609375,-0.0579681396484375
1761315271010555000,2.216554931640625,-0.9061279296875,-0.3389739990234375,-0.062591552734375
1761315271020601900,2.226601806640625,-0.910980224609375,-0.3408050537109375,-0.0680694580078125
1761315271030648800,2.23664892578125,-0.900115966796875,-0.346466064453125,-0.0686798095703125
1761315271040696600,2.246696533203125,-0.89581298828125,-0.3487548828125,-0.066680908203125
1761315271050743800,2.256743896484375,-0.884429931640625,-0.3559112548828125,-0.0584716796875
1761315271060790800,2.266790771484375,-0.8720245361328125,-0.3700408935546875,-0.0464630126953125
1761315271070838800,2.2768388671875,-0.8656158447265625,-0.3825225830078125,-0.0353546142578125
1761315271080885800,2.2868857421875,-0.8663482666015625,-0.393218994140625,-0.02532958984375
1761315271090932700,2.2969326171875,-0.870635986328125,-0.4036102294921875,-0.0231475830078125
1761315271100980700,2.306980712890625,-0.8638763427734375,-0.4071197509765625,-0.029998779296875
1761315271111027700,2.31702783203125,-0.8608856201171875,-0.4038848876953125,-0.043304443359375
1761315271121074700,2.32707470703125,-0.860931396484375,-0.40924072265625,-0.0518035888671875
1761315271131123000,2.337123046875,-0.8585052490234375,-0.4239501953125,-0.0565948486328125
1761315271141169700,2.347169677734375,-0.8661651611328125,-0.432403564453125,-0.0635223388671875
1761315271151216600,2.357216552734375,-0.8713226318359375,-0.4359893798828125,-0.0721893310546875
1761315271161263600,2.367263671875,-0.864898681640625,-0.43524169921875,-0.08447265625
1761315271171311900,2.377311767578125,-0.853485107421875,-0.428070068359375,-0.09417724609375
1761315271181358800,2.38735888671875,-0.8466033935546875,-0.4246826171875,-0.0927886962890625
1761315271191405800,2.39740576171875,-0.8500823974609375,-0.4273681640625,-0.0865020751953125
1761315271201453600,2.40745361328125,-0.8506622314453125,-0.431365966796875,-0.07940673828125
1761315271211500500,2.41750048828125,-0.8525543212890625,-0.4337921142578125,-0.072418212890625
1761315271221547800,2.4275478515625,-0.857025146484375,-0.433258056640625,-0.0693817138671875
1761315271231595800,2.437595703125,-0.865386962890625,-0.429534912109375,-0.07000732421875
1761315271241642800,2.447642822265625,-0.87725830078125,-0.4276123046875,-0.07470703125
1761315271251689700,2.457689697265625,-0.87823486328125,-0.423309326171875,-0.081268310546875
1761315271261737700,2.46773779296875,-0.880828857421875,-0.416961669921875,-0.0811004638671875
1761315271271784700,2.47778466796875,-0.89422607421875,-0.41552734375,-0.07501220703125
1761315271281831700,2.487831787109375,-0.91424560546875,-0.416656494140625,-0.0716094970703125
1761315271291878700,2.497878662109375,-0.9217681884765625,-0.414642333984375,-0.0763702392578125
1761315271301927000,2.507927001953125,-0.922027587890625,-0.41082763671875,-0.078338623046875
1761315271311974000,2.517973876953125,-0.933502197265625,-0.4116668701171875,-0.078216552734375
1761315271322020900,2.528020751953125,-0.93511962890625,-0.4156036376953125,-0.0745849609375
1761315271332068600,2.538068603515625,-0.934417724609375,-0.41864013671875,-0.0722808837890625
1761315271342115600,2.548115478515625,-0.9335784912109375,-0.4186553955078125,-0.0700836181640625
1761315271352162800,2.558162841796875,-0.938140869140625,-0.4201202392578125,-0.068603515625
1761315271362209000,2.568208984375,-0.9478302001953125,-0.4177703857421875,-0.073944091796875
1761315271372256000,2.578256103515625,-0.9588470458984375,-0.41217041015625,-0.084442138671875
1761315271382303000,2.588302978515625,-0.9608306884765625,-0.4093170166015625,-0.094329833984375
1761315271392351000,2.59835107421875,-0.9578857421875,-0.416107177734375,-0.097015380859375
1761315271402398000,2.60839794921875,-0.96142578125,-0.4355010986328125,-0.0911407470703125
1761315271412445200,2.618445068359375,-0.9771728515625,-0.4515533447265625,-0.082611083984375
1761315271422492000,2.628491943359375,-0.991058349609375,-0.462738037109375,-0.0727996826171875
1761315271432540000,2.638539794921875,-1.00030517578125,-0.478973388671875,-0.0659637451171875
1761315271442587000,2.6485869140625,-1.015869140625,-0.48480224609375,-0.06561279296875
1761315271452634000,2.658634033203125,-1.034698486328125,-0.471466064453125,-0.0717926025390625
1761315271462682000,2.66868212890625,-1.0505218505859375,-0.4501800537109375,-0.0851898193359375
1761315271472729000,2.67872900390625,-1.06011962890625,-0.4225616455078125,-0.098388671875
1761315271482775800,2.68877587890625,-1.0599822998046875,-0.3964080810546875,-0.1067962646484375
1761315271492824000,2.698823974609375,-1.0442657470703125,-0.3708953857421875,-0.110382080078125
1761315271502871000,2.70887109375,-1.01702880859375,-0.343841552734375,-0.1096343994140625
1761315271512918000,2.71891796875,-0.974639892578125,-0.3248291015625,-0.1064910888671875
1761315271522966000,2.728966064453125,-0.928985595703125,-0.3156890869140625,-0.09698486328125
1761315271533013000,2.739012939453125,-0.88592529296875,-0.3155975341796875,-0.0850830078125
1761315271543060000,2.74906005859375,-0.8509979248046875,-0.3183135986328125,-0.070892333984375
1761315271553108000,2.75910791015625,-0.8257293701171875,-0.3271484375,-0.0524749755859375
1761315271563155000,2.769155029296875,-0.8101959228515625,-0.33837890625,-0.0337066650390625
1761315271573202000,2.779201904296875,-0.80535888671875,-0.3473052978515625,-0.01788330078125
1761315271583249200,2.789249267578125,-0.7973785400390625,-0.346832275390625,-0.006256103515625
1761315271593297000,2.799296875,-0.76605224609375,-0.3359222412109375,-0.002471923828125
1761315271603344000,2.80934375,-0.752197265625,-0.3265228271484375,0.004608154296875
1761315271613390800,2.819390869140625,-0.7397918701171875,-0.332763671875,0.0149993896484375
1761315271623439000,2.829439208984375,-0.7176361083984375,-0.3551483154296875,0.0349273681640625
1761315271633486000,2.839486083984375,-0.708160400390625,-0.3852691650390625,0.0585784912109375
1761315271643533000,2.849532958984375,-0.725555419921875,-0.4236907958984375,0.0827789306640625
1761315271653580800,2.859580810546875,-0.75994873046875,-0.4541473388671875,0.1028900146484375
1761315271663628000,2.8696279296875,-0.8084869384765625,-0.4755401611328125,0.11309814453125
1761315271673675000,2.879675048828125,-0.85467529296875,-0.49102783203125,0.1130828857421875
1761315271683723000,2.889722900390625,-0.8850860595703125,-0.4957122802734375,0.1024322509765625
1761315271693770000,2.89977001953125,-0.91326904296875,-0.4925537109375,0.072601318359375
1761315271703817000,2.90981689453125,-0.9183197021484375,-0.4734954833984375,0.0363922119140625
1761315271713864200,2.9198642578125,-0.92559814453125,-0.443939208984375,-0.00091552734375
1761315271723912000,2.929911865234375,-0.9542083740234375,-0.41925048828125,-0.030975341796875
1761315271733959000,2.939958984375,-0.9656982421875,-0.3979644775390625,-0.0538482666015625
1761315271744006000,2.950005859375,-0.948211669921875,-0.3699493408203125,-0.074462890625
1761315271754054100,2.96005419921875,-0.9301300048828125,-0.3432464599609375,-0.0858612060546875
1761315271764101000,2.97010107421875,-0.91668701171875,-0.328155517578125,-0.0815887451171875
1761315271774148000,2.980148193359375,-0.9019317626953125,-0.3242950439453125,-0.06439208984375
1761315271784195800,2.99019580078125,-0.8859405517578125,-0.3243865966796875,-0.037261962890625
1761315271794243000,3.0002431640625,-0.8797607421875,-0.3314666748046875,-0.0032196044921875
1761315271804290000,3.0102900390625,-0.8935089111328125,-0.349273681640625,0.030731201171875
1761315271814338000,3.020338134765625,-0.9018402099609375,-0.3613739013671875,0.053863525390625
1761315271824385000,3.030385009765625,-0.89312744140625,-0.3632659912109375,0.0578765869140625
1761315271834432000,3.040431884765625,-0.8859405517578125,-0.35565185546875,0.0516815185546875
1761315271844479000,3.05047900390625,-0.879119873046875,-0.3546295166015625,0.042724609375
1761315271854527000,3.06052685546875,-0.866851806640625,-0.3607177734375,0.032806396484375
1761315271864574000,3.070573974609375,-0.852020263671875,-0.367919921875,0.0240325927734375
1761315271874621000,3.080620849609375,-0.8434295654296875,-0.371734619140625,0.0185546875
1761315271884669200,3.090669189453125,-0.844329833984375,-0.3790435791015625,0.019073486328125
1761315271894716000,3.1007158203125,-0.8535614013671875,-0.39324951171875,0.0172271728515625
1761315271904763000,3.110762939453125,-0.8487396240234375,-0.40301513671875,0.012786865234375
1761315271914811000,3.120810791015625,-0.8511810302734375,-0.40093994140625,0.0022125244140625
1761315271924858000,3.130858154296875,-0.8653106689453125,-0.3968505859375,-0.0130615234375
1761315271934905000,3.140905029296875,-0.86865234375,-0.39990234375,-0.027679443359375
1761315271944953000,3.150953125,-0.8736419677734375,-0.4066314697265625,-0.041107177734375
1761315271954999800,3.160999755859375,-0.886627197265625,-0.4108734130859375,-0.054931640625
1761315271965046800,3.171046875,-0.8991851806640625,-0.41107177734375,-0.06610107421875
1761315271975095000,3.181094970703125,-0.911956787109375,-0.41229248046875,-0.0770111083984375
1761315271985142000,3.19114208984375,-0.925140380859375,-0.4202880859375,-0.0860137939453125
1761315271995189000,3.20118896484375,-0.938018798828125,-0.434356689453125,-0.093170166015625
1761315272005236000,3.211236083984375,-0.9458770751953125,-0.4455413818359375,-0.0970458984375
1761315272015284000,3.221283935546875,-0.9530181884765625,-0.4476470947265625,-0.0993194580078125
1761315272025331000,3.2313310546875,-0.9533233642578125,-0.4424285888671875,-0.0969390869140625
1761315272035378000,3.2413779296875,-0.9582061767578125,-0.4384918212890625,-0.0901947021484375
1761315272045426000,3.251426025390625,-0.9630279541015625,-0.446868896484375,-0.08251953125
1761315272055473200,3.26147314453125,-0.9677886962890625,-0.4590301513671875,-0.076263427734375
1761315272065520000,3.27152001953125,-0.9698486328125,-0.4738922119140625,-0.0696563720703125
1761315272075567900,3.28156787109375,-0.9727325439453125,-0.48333740234375,-0.0672149658203125
1761315272085614800,3.29161474609375,-0.9937286376953125,-0.4793701171875,-0.079925537109375
1761315272095661800,3.301661865234375,-0.9881439208984375,-0.481719970703125,-0.095306396484375
1761315272105709000,3.311708984375,-0.9895172119140625,-0.4950714111328125,-0.105316162109375
1761315272115757000,3.321757080078125,-1.008270263671875,-0.501007080078125,-0.11407470703125
1761315272125804000,3.331803955078125,-1.0120086669921875,-0.488311767578125,-0.1223602294921875
1761315272135851000,3.34185107421875,-1.0044403076171875,-0.46917724609375,-0.1276702880859375
1761315272145899000,3.35189892578125,-0.99725341796875,-0.4546661376953125,-0.13250732421875
1761315272155946000,3.361946044921875,-0.9798431396484375,-0.4501800537109375,-0.122802734375
1761315272165993000,3.371992919921875,-0.98590087890625,-0.4502105712890625,-0.105224609375
1761315272176041000,3.382041015625,-1.0029754638671875,-0.445770263671875,-0.0880126953125
1761315272186088200,3.392088134765625,-1.011566162109375,-0.43634033203125,-0.075927734375
1761315272196135200,3.40213525390625,-1.0216827392578125,-0.417724609375,-0.0732574462890625
1761315272206183000,3.412182861328125,-1.021453857421875,-0.3911895751953125,-0.075836181640625
1761315272216230000,3.42222998046875,-1.0098876953125,-0.3659515380859375,-0.075286865234375
1761315272226276900,3.43227685546875,-0.9929656982421875,-0.3433074951171875,-0.07000732421875
1761315272236324000,3.442323974609375,-0.9798583984375,-0.3231048583984375,-0.0679779052734375
1761315272246372000,3.4523720703125,-0.95159912109375,-0.3053741455078125,-0.064483642578125
1761315272256418800,3.462418701171875,-0.9262847900390625,-0.2904510498046875,-0.0579681396484375
1761315272266465800,3.4724658203125,-0.916290283203125,-0.2847442626953125,-0.050537109375
1761315272276514000,3.48251416015625,-0.9023284912109375,-0.288543701171875,-0.03021240234375
1761315272286561000,3.49256103515625,-0.8990478515625,-0.296478271484375,-0.012054443359375
1761315272296608000,3.50260791015625,-0.910491943359375,-0.30670166015625,0.0060272216796875
1761315272306656000,3.512656005859375,-0.9015960693359375,-0.315948486328125,0.0184173583984375
1761315272316703000,3.522702880859375,-0.8787689208984375,-0.321685791015625,0.028472900390625
1761315272326750000,3.53275,-0.8582305908203125,-0.3264312744140625,0.037689208984375
1761315272336798000,3.5427978515625,-0.8483123779296875,-0.34185791015625,0.0501708984375
1761315272346845000,3.552844970703125,-0.8441162109375,-0.3638763427734375,0.0599517822265625
1761315272356891000,3.562890869140625,-0.8363494873046875,-0.380859375,0.0619964599609375
1761315272366937900,3.572937744140625,-0.832550048828125,-0.38861083984375,0.05804443359375
1761315272376986000,3.582986083984375,-0.8370208740234375,-0.390533447265625,0.0500640869140625
1761315272387033000,3.593033203125,-0.836578369140625,-0.389312744140625,0.038238525390625
1761315272397080000,3.603080078125,-0.8417205810546875,-0.3804473876953125,0.0282745361328125
1761315272407128000,3.613128173828125,-0.855926513671875,-0.365631103515625,0.022216796875
1761315272417175000,3.623175048828125,-0.87353515625,-0.3503570556640625,0.0175933837890625
1761315272427222000,3.633221923828125,-0.8798980712890625,-0.3360137939453125,0.0109710693359375
1761315272437270000,3.64327001953125,-0.8779296875,-0.32281494140625,0.0117645263671875
1761315272447317000,3.65331689453125,-0.8763580322265625,-0.3177642822265625,0.01641845703125
1761315272457364000,3.663364013671875,-0.88330078125,-0.3195037841796875,0.0213623046875
1761315272467412000,3.673411865234375,-0.8748779296875,-0.320526123046875,0.0252227783203125
1761315272477459000,3.683458984375,-0.8483428955078125,-0.3263397216796875,0.0415496826171875
1761315272487506000,3.693505859375,-0.846435546875,-0.3405609130859375,0.0605316162109375
1761315272497553000,3.703552978515625,-0.8554534912109375,-0.3580169677734375,0.0734100341796875
1761315272507601000,3.713600830078125,-0.8441619873046875,-0.377349853515625,0.080963134765625
1761315272517648000,3.72364794921875,-0.8282470703125,-0.3934326171875,0.0830535888671875
1761315272527694800,3.73369482421875,-0.8166961669921875,-0.4076080322265625,0.0778350830078125
1761315272537743000,3.7437431640625,-0.801116943359375,-0.4276123046875,0.0753631591796875
1761315272547790000,3.7537900390625,-0.7934417724609375,-0.4522552490234375,0.0739288330078125
1761315272557837000,3.763837158203125,-0.79144287109375,-0.46832275390625,0.0680999755859375
1761315272567884800,3.773884765625,-0.783538818359375,-0.4740753173828125,0.06243896484375
1761315272577931800,3.783931884765625,-0.7784271240234375,-0.476531982421875,0.050445556640625
1761315272587979000,3.79397900390625,-0.7710418701171875,-0.4824676513671875,0.038177490234375
1761315272598027000,3.804027099609375,-0.7702178955078125,-0.4873046875,0.0299835205078125
1761315272608074000,3.814073974609375,-0.7745513916015625,-0.4893646240234375,0.0254058837890625
1761315272618121000,3.824120849609375,-0.7794189453125,-0.488861083984375,0.0248870849609375
1761315272628168200,3.834168212890625,-0.7896270751953125,-0.489410400390625,0.0286102294921875
1761315272638216000,3.8442158203125,-0.8023681640625,-0.48809814453125,0.03326416015625
1761315272648263000,3.854262939453125,-0.8143463134765625,-0.4871368408203125,0.037322998046875
1761315272658310000,3.864309814453125,-0.8266143798828125,-0.4840545654296875,0.0365142822265625
1761315272668358100,3.874358154296875,-0.8452301025390625,-0.47613525390625,0.03448486328125
1761315272678405000,3.884405029296875,-0.86163330078125,-0.4716339111328125,0.03057861328125
1761315272688452000,3.8944521484375,-0.8676910400390625,-0.46875,0.024505615234375
1761315272698499800,3.904499755859375,-0.8743133544921875,-0.471466064453125,0.0256195068359375
1761315272708546800,3.914546875,-0.8918304443359375,-0.4844970703125,0.031494140625
1761315272718594000,3.924593994140625,-0.9245758056640625,-0.4955596923828125,0.038330078125
1761315272728642000,3.93464208984375,-0.9660491943359375,-0.503143310546875,0.046173095703125
1761315272738689000,3.94468896484375,-1.001495361328125,-0.5056304931640625,0.0395355224609375
1761315272748736000,3.954736083984375,-1.02239990234375,-0.492706298828125,0.0235748291015625
1761315272758783000,3.964782958984375,-1.0292816162109375,-0.4723663330078125,0.0112457275390625
1761315272768831000,3.9748310546875,-1.0313568115234375,-0.45880126953125,-0.0004425048828125
1761315272778878000,3.9848779296875,-1.027618408203125,-0.4548797607421875,-0.0099945068359375
1761315272788925000,3.994925048828125,-1.01776123046875,-0.4572601318359375,-0.0110931396484375
1761315272798973200,4.00497314453125,-1.008056640625,-0.464935302734375,-0.0040740966796875
1761315272809020200,4.015020263671875,-0.99627685546875,-0.4869537353515625,0.01629638671875
1761315272819067000,4.02506689453125,-0.99749755859375,-0.5043792724609375,0.0408477783203125
1761315272829115000,4.035114990234375,-1.0030364990234375,-0.510833740234375,0.0587310791015625
1761315272839161900,4.045161865234375,-0.9996185302734375,-0.5113372802734375,0.06353759765625
1761315272849209000,4.055208984375,-0.994476318359375,-0.5064849853515625,0.0577850341796875
1761315272859256000,4.065256103515625,-0.9961395263671875,-0.49359130859375,0.0448150634765625
1761315272869304000,4.075303955078125,-1.0029296875,-0.4705963134765625,0.02691650390625
1761315272879350800,4.085350830078125,-1.00775146484375,-0.4479827880859375,0.011077880859375
1761315272889398000,4.09539794921875,-1.00799560546875,-0.4298553466796875,-0.0057220458984375
1761315272899446000,4.105446044921875,-1.01171875,-0.412506103515625,-0.0256805419921875
1761315272909493000,4.115492919921875,-1.001983642578125,-0.3909149169921875,-0.0465240478515625
1761315272919540000,4.1255400390625,-0.9849700927734375,-0.366729736328125,-0.0664520263671875
1761315272929588000,4.135587890625,-0.974761962890625,-0.3437347412109375,-0.0810394287109375
1761315272939635000,4.145635009765625,-0.964111328125,-0.33111572265625,-0.08917236328125
1761315272949682000,4.155681884765625,-0.9655609130859375,-0.328704833984375,-0.0865631103515625
1761315272959730000,4.16572998046875,-0.9671630859375,-0.32537841796875,-0.0807647705078125
1761315272969777200,4.175777099609375,-0.9471893310546875,-0.3111572265625,-0.07330322265625
1761315272979824000,4.18582421875,-0.908721923828125,-0.2947540283203125,-0.059661865234375
1761315272989871000,4.19587109375,-0.8701934814453125,-0.2871856689453125,-0.0429229736328125
1761315272999918800,4.2059189453125,-0.8394012451171875,-0.2881927490234375,-0.026885986328125
1761315273009965800,4.2159658203125,-0.8314666748046875,-0.2888641357421875,-0.0179901123046875
1761315273020013000,4.226012939453125,-0.8231353759765625,-0.283111572265625,-0.0131683349609375
1761315273030061000,4.23606103515625,-0.8125762939453125,-0.272308349609375,-0.0016021728515625
1761315273040108000,4.24610791015625,-0.79864501953125,-0.2712554931640625,0.01031494140625
1761315273050155000,4.256155029296875,-0.78802490234375,-0.2906341552734375,0.035064697265625
1761315273060203000,4.266203125,-0.7850494384765625,-0.3212127685546875,0.063507080078125
1761315273070250000,4.27625,-0.7783966064453125,-0.3502044677734375,0.092315673828125
1761315273080297000,4.286296875,-0.774505615234375,-0.3751220703125,0.1133880615234375
1761315273090344000,4.296343994140625,-0.7684326171875,-0.390411376953125,0.12713623046875
1761315273100392200,4.30639208984375,-0.76727294921875,-0.405364990234375,0.1428070068359375
1761315273110439200,4.316439208984375,-0.7794342041015625,-0.4295654296875,0.1533355712890625
1761315273120486100,4.326486083984375,-0.7864532470703125,-0.4475860595703125,0.1493682861328125
1761315273130534000,4.336533935546875,-0.8040618896484375,-0.45684814453125,0.135498046875
1761315273140580900,4.346580810546875,-0.841400146484375,-0.4526519775390625,0.1085968017578125
1761315273150628000,4.356628173828125,-0.87591552734375,-0.43829345703125,0.075408935546875
1761315273160676000,4.366676025390625,-0.9106903076171875,-0.415496826171875,0.0408477783203125
1761315273170723000,4.37672314453125,-0.9405364990234375,-0.384063720703125,0.0091094970703125
1761315273180770000,4.38677001953125,-0.97265625,-0.3631591796875,-0.0167999267578125
1761315273190818000,4.396818115234375,-0.994873046875,-0.356903076171875,-0.037261962890625
1761315273200865000,4.406864990234375,-1.0064849853515625,-0.35296630859375,-0.0523529052734375
1761315273210912000,4.416912109375,-1.0114898681640625,-0.347015380859375,-0.066162109375
1761315273220959000,4.426958984375,-0.9965362548828125,-0.3432159423828125,-0.0746612548828125
1761315273231007000,4.437007080078125,-0.975555419921875,-0.34014892578125,-0.07757568359375
1761315273241054000,4.447053955078125,-0.9476776123046875,-0.3377227783203125,-0.0699615478515625
1761315273251101000,4.457100830078125,-0.918060302734375,-0.34210205078125,-0.05389404296875
1761315273261149000,4.46714892578125,-0.896697998046875,-0.3552093505859375,-0.0359649658203125
1761315273271196000,4.47719580078125,-0.8664703369140625,-0.3698272705078125,-0.02325439453125
1761315273281243100,4.4872431640625,-0.8328094482421875,-0.384124755859375,-0.0126800537109375
1761315273291291000,4.497290771484375,-0.81719970703125,-0.3973388671875,-0.001983642578125
1761315273301337900,4.507337890625,-0.8072357177734375,-0.4092864990234375,0.0073089599609375
1761315273311384800,4.517384765625,-0.798583984375,-0.41766357421875,0.014495849609375
1761315273321433000,4.52743310546875,-0.793975830078125,-0.4259796142578125,0.0230865478515625
1761315273331480000,4.53747998046875,-0.7858123779296875,-0.43963623046875,0.0280609130859375
1761315273341527000,4.547527099609375,-0.772247314453125,-0.452392578125,0.032684326171875
1761315273351574000,4.557573974609375,-0.7599334716796875,-0.4705352783203125,0.0380859375
1761315273361622300,4.567622314453125,-0.765899658203125,-0.4896240234375,0.0461273193359375
1761315273371669200,4.577669189453125,-0.782989501953125,-0.4989166259765625,0.0524139404296875
1761315273381716200,4.58771630859375,-0.800262451171875,-0.5046234130859375,0.0516357421875
1761315273391764500,4.597764404296875,-0.8195648193359375,-0.50860595703125,0.04876708984375
1761315273401811500,4.6078115234375,-0.845855712890625,-0.5031585693359375,0.0441741943359375
1761315273411858400,4.6178583984375,-0.8696746826171875,-0.4912872314453125,0.042327880859375
1761315273421906400,4.627906494140625,-0.8855438232421875,-0.48455810546875,0.0407257080078125
1761315273431953400,4.637953369140625,-0.8948211669921875,-0.484771728515625,0.03643798828125
1761315273442000400,4.64800048828125,-0.9077301025390625,-0.490203857421875,0.0290374755859375
1761315273452047400,4.65804736328125,-0.9127197265625,-0.4924774169921875,0.0144805908203125
1761315273462095400,4.668095458984375,-0.9095916748046875,-0.4861907958984375,-0.0023040771484375
1761315273472142300,4.678142333984375,-0.9126434326171875,-0.4784088134765625,-0.0164337158203125
1761315273482189300,4.688189208984375,-0.9220733642578125,-0.4766693115234375,-0.0176239013671875
1761315273492237300,4.6982373046875,-0.9384613037109375,-0.4833526611328125,-0.009552001953125
1761315273502284300,4.7082841796875,-0.943603515625,-0.4867401123046875,-0.0003814697265625
1761315273512331300,4.718331298828125,-0.940460205078125,-0.485626220703125,0.0100860595703125
1761315273522379500,4.728379638671875,-0.9359130859375,-0.4876251220703125,0.020050048828125
1761315273532426200,4.73842626953125,-0.92877197265625,-0.4872283935546875,0.0282135009765625
1761315273542473200,4.74847314453125,-0.92218017578125,-0.484283447265625,0.03369140625
1761315273552520200,4.758520263671875,-0.924774169921875,-0.483551025390625,0.0369720458984375
1761315273562568400,4.768568359375,-0.9358367919921875,-0.4856719970703125,0.0368804931640625
1761315273572615400,4.778615478515625,-0.945709228515625,-0.4840240478515625,0.0334014892578125
1761315273582662400,4.788662353515625,-0.947235107421875,-0.4864501953125,0.0301513671875
1761315273592710100,4.798710205078125,-0.9426116943359375,-0.511260986328125,0.0423736572265625
1761315273602757400,4.80875732421875,-0.962554931640625,-0.5326995849609375,0.0491180419921875
1761315273612804400,4.818804443359375,-0.98895263671875,-0.5176849365234375,0.0377349853515625
1761315273622852400,4.828852294921875,-0.9730224609375,-0.4984130859375,0.0135498046875
1761315273632899300,4.8388994140625,-0.9556884765625,-0.497802734375,-0.0048980712890625
1761315273642946600,4.848946533203125,-0.96490478515625,-0.4976959228515625,-0.0136260986328125
1761315273652993500,4.85899365234375,-0.9776153564453125,-0.4844207763671875,-0.02008056640625
1761315273663041300,4.869041259765625,-0.9759521484375,-0.4610443115234375,-0.0255889892578125
1761315273673088300,4.879088134765625,-0.96551513671875,-0.4394073486328125,-0.0313262939453125
1761315273683135200,4.88913525390625,-0.9582366943359375,-0.41925048828125,-0.0347442626953125
1761315273693183500,4.89918359375,-0.9551544189453125,-0.401519775390625,-0.035186767578125
1761315273703230500,4.90923046875,-0.946533203125,-0.3829345703125,-0.0369720458984375
1761315273713277400,4.91927734375,-0.934967041015625,-0.3591461181640625,-0.041595458984375
1761315273723325200,4.9293251953125,-0.91949462890625,-0.3381805419921875,-0.0472412109375
1761315273733372400,4.939372314453125,-0.8963470458984375,-0.3251495361328125,-0.047515869140625
1761315273743419400,4.94941943359375,-0.87493896484375,-0.3154449462890625,-0.040740966796875
1761315273753467400,4.95946728515625,-0.8550567626953125,-0.3063507080078125,-0.030548095703125
1761315273763514400,4.969514404296875,-0.835296630859375,-0.30194091796875,-0.0222015380859375
1761315273773561600,4.9795615234375,-0.8184661865234375,-0.2999114990234375,-0.0168914794921875
1761315273783608300,4.9896083984375,-0.8079071044921875,-0.2982635498046875,-0.015899658203125
1761315273793656300,4.99965625,-0.8064727783203125,-0.3040618896484375,-0.012908935546875
1761315273803703300,5.009703369140625,-0.81341552734375,-0.3159027099609375,-0.0126190185546875
1761315273813750300,5.019750244140625,-0.8098907470703125,-0.320404052734375,-0.0216217041015625
1761315273823798500,5.029798583984375,-0.803070068359375,-0.31793212890625,-0.036224365234375
1761315273833842200,5.03984228515625,-0.80877685546875,-0.317474365234375,-0.048370361328125
1761315273843890400,5.049890380859375,-0.8059234619140625,-0.331817626953125,-0.0531768798828125
1761315273853937400,5.0599375,-0.8056793212890625,-0.347686767578125,-0.049774169921875
1761315273863984400,5.069984375,-0.8147430419921875,-0.3640594482421875,-0.0383453369140625
1761315273874031400,5.08003125,-0.8265533447265625,-0.3792572021484375,-0.0326080322265625
1761315273884079400,5.090079345703125,-0.8377838134765625,-0.3897247314453125,-0.0305023193359375
1761315273894126300,5.100126220703125,-0.8423004150390625,-0.39569091796875,-0.038055419921875
1761315273904173300,5.11017333984375,-0.849761962890625,-0.3964080810546875,-0.0468902587890625
1761315273914221300,5.12022119140625,-0.87213134765625,-0.3950653076171875,-0.0545654296875
1761315273924268300,5.130268310546875,-0.8978271484375,-0.39361572265625,-0.0631103515625
1761315273934315500,5.1403154296875,-0.90966796875,-0.385711669921875,-0.068939208984375
1761315273944363300,5.15036328125,-0.9265899658203125,-0.37384033203125,-0.072601318359375
1761315273954410200,5.16041015625,-0.9556121826171875,-0.363250732421875,-0.0733642578125
1761315273964457200,5.170457275390625,-0.9698638916015625,-0.3550262451171875,-0.069366455078125
1761315273974504400,5.18050439453125,-0.972381591796875,-0.350433349609375,-0.0628814697265625
1761315273984552400,5.190552490234375,-0.9679412841796875,-0.3492889404296875,-0.049774169921875
1761315273994599400,5.200599365234375,-0.954376220703125,-0.352813720703125,-0.0334625244140625
1761315274004646400,5.210646484375,-0.9410247802734375,-0.35504150390625,-0.0187530517578125
1761315274014694400,5.2206943359375,-0.9365234375,-0.3552703857421875,-0.0048980712890625
1761315274024741400,5.230741455078125,-0.9283447265625,-0.363983154296875,0.0102691650390625
1761315274034788400,5.240788330078125,-0.9163055419921875,-0.3724822998046875,0.0211181640625
1761315274044836400,5.25083642578125,-0.911529541015625,-0.375885009765625,0.0266265869140625
1761315274054883600,5.260883544921875,-0.9139404296875,-0.3836517333984375,0.0266876220703125
1761315274064930600,5.2709306640625,-0.9042816162109375,-0.394927978515625,0.0177001953125
1761315274074977300,5.280977294921875,-0.89190673828125,-0.4009857177734375,0.0085296630859375
1761315274085025300,5.291025390625,-0.8843536376953125,-0.4063873291015625,0.002777099609375
1761315274095072300,5.301072265625,-0.882110595703125,-0.414886474609375,0.0011749267578125
1761315274105119500,5.311119384765625,-0.8789215087890625,-0.4251861572265625,-0.0005645751953125
1761315274115167500,5.32116748046875,-0.869476318359375,-0.4311370849609375,-0.00604248046875
1761315274125214500,5.33121435546875,-0.860565185546875,-0.430908203125,-0.009674072265625
1761315274135261200,5.34126123046875,-0.8652801513671875,-0.426605224609375,-0.009765625
1761315274145309400,5.351309326171875,-0.8740081787109375,-0.4264984130859375,-0.001495361328125
1761315274155356400,5.3613564453125,-0.8819122314453125,-0.4258880615234375,0.0053558349609375
1761315274165403400,5.3714033203125,-0.8886566162109375,-0.41778564453125,0.008575439453125
1761315274175450400,5.381450439453125,-0.89459228515625,-0.406280517578125,0.00897216796875
1761315274185498400,5.391498291015625,-0.90399169921875,-0.4007415771484375,0.0101318359375
1761315274195545300,5.40154541015625,-0.906951904296875,-0.399383544921875,0.005950927734375
1761315274205592300,5.41159228515625,-0.90960693359375,-0.3954620361328125,0.0022735595703125
1761315274215640300,5.421640380859375,-0.9209136962890625,-0.390716552734375,-0.0044097900390625
1761315274225687300,5.431687255859375,-0.9290313720703125,-0.3923187255859375,-0.01141357421875
1761315274235734500,5.441734619140625,-0.9302215576171875,-0.3931732177734375,-0.0188140869140625
1761315274245782300,5.4517822265625,-0.9420928955078125,-0.3869476318359375,-0.0278167724609375
1761315274255829200,5.461829345703125,-0.9461212158203125,-0.3879852294921875,-0.036468505859375
1761315274265876200,5.471876220703125,-0.943450927734375,-0.39715576171875,-0.0420074462890625
1761315274275923200,5.481923095703125,-0.950042724609375,-0.406494140625,-0.039825439453125
1761315274285971500,5.491971435546875,-0.952606201171875,-0.4149169921875,-0.0388641357421875
1761315274296018400,5.502018310546875,-0.9467010498046875,-0.4189453125,-0.04254150390625
1761315274306065400,5.5120654296875,-0.939788818359375,-0.419189453125,-0.0468292236328125
1761315274316113400,5.522113525390625,-0.9360504150390625,-0.4232025146484375,-0.0483245849609375
1761315274326160400,5.532160400390625,-0.93341064453125,-0.434173583984375,-0.048187255859375
1761315274336207400,5.542207275390625,-0.9318389892578125,-0.44476318359375,-0.04791259765625
1761315274346255400,5.55225537109375,-0.9274444580078125,-0.4469757080078125,-0.0486907958984375
1761315274356302300,5.56230224609375,-0.91973876953125,-0.4448089599609375,-0.0468597412109375
1761315274366349000,5.57234912109375,-0.9117584228515625,-0.4549407958984375,-0.0322113037109375
1761315274376396000,5.58239599609375,-0.9225311279296875,-0.4737396240234375,-0.0095367431640625
1761315274386444000,5.592444091796875,-0.9524078369140625,-0.475433349609375,0.008697509765625
1761315274396491000,5.602490966796875,-0.9742584228515625,-0.456451416015625,0.0128631591796875
1761315274406538000,5.6125380859375,-0.97589111328125,-0.4378204345703125,0.0100250244140625
1761315274416586000,5.6225859375,-0.9822235107421875,-0.425872802734375,0.004119873046875
1761315274426633200,5.63263330078125,-1.0048370361328125,-0.4147491455078125,-0.0010528564453125
1761315274436680200,5.64268017578125,-1.0313873291015625,-0.3997802734375,-0.006072998046875
1761315274446729000,5.65272900390625,-1.04620361328125,-0.3883056640625,-0.0145416259765625
1761315274456777200,5.662777099609375,-1.04949951171875,-0.3817596435546875,-0.02044677734375
1761315274466824000,5.672823974609375,-1.0491485595703125,-0.370880126953125,-0.0308074951171875
1761315274476871000,5.682870849609375,-1.042694091796875,-0.3522796630859375,-0.044647216796875
1761315274486919000,5.6929189453125,-1.0316009521484375,-0.3314666748046875,-0.0545654296875
1761315274496966100,5.702966064453125,-1.0051116943359375,-0.315216064453125,-0.0545806884765625
1761315274507013000,5.71301318359375,-0.984161376953125,-0.307342529296875,-0.0430145263671875
1761315274517061000,5.72306103515625,-0.9694061279296875,-0.31304931640625,-0.0246429443359375
1761315274527107800,5.73310791015625,-0.94903564453125,-0.327545166015625,-0.006927490234375
1761315274537154800,5.74315478515625,-0.9274749755859375,-0.3353271484375,0.00714111328125
1761315274547202000,5.7532021484375,-0.9029541015625,-0.3372650146484375,0.0123138427734375
1761315274557250000,5.76325,-0.875,-0.3395233154296875,0.015167236328125
1761315274567297000,5.773297119140625,-0.851348876953125,-0.34136962890625,0.0139312744140625
1761315274577344000,5.783343994140625,-0.824310302734375,-0.3404693603515625,0.011932373046875
1761315274587392000,5.79339208984375,-0.792388916015625,-0.3408966064453125,0.0120391845703125
1761315274597439000,5.80343896484375,-0.768218994140625,-0.3473968505859375,0.01580810546875
1761315274607486000,5.81348583984375,-0.750946044921875,-0.351226806640625,0.0216217041015625
1761315274617534000,5.823533935546875,-0.7376556396484375,-0.354156494140625,0.031585693359375
1761315274627581200,5.833581298828125,-0.73516845703125,-0.370391845703125,0.04736328125
1761315274637628200,5.843628173828125,-0.750946044921875,-0.4018096923828125,0.069732666015625
1761315274647675100,5.853675048828125,-0.7740936279296875,-0.439605712890625,0.0855560302734375
1761315274657723000,5.863722900390625,-0.796905517578125,-0.464569091796875,0.0893707275390625
1761315274667770000,5.87377001953125,-0.8214111328125,-0.4625396728515625,0.079620361328125
1761315274677817000,5.883817138671875,-0.8407745361328125,-0.447540283203125,0.061676025390625
1761315274687865000,5.893864990234375,-0.869598388671875,-0.4340972900390625,0.0279083251953125
1761315274697912000,5.903912109375,-0.9063720703125,-0.41650390625,-0.0111846923828125
1761315274707959000,5.913958984375,-0.9495849609375,-0.3987274169921875,-0.0492706298828125
1761315274718007000,5.924007080078125,-0.9879608154296875,-0.3854522705078125,-0.0795135498046875
1761315274728054000,5.934053955078125,-1.022918701171875,-0.3795166015625,-0.0955657958984375
1761315274738101000,5.94410107421875,-1.052154541015625,-0.3716278076171875,-0.1080780029296875
1761315274748148000,5.95414794921875,-1.0499114990234375,-0.3516082763671875,-0.1180419921875
1761315274758196200,5.9641962890625,-1.01983642578125,-0.322906494140625,-0.1247711181640625
1761315274768243200,5.9742431640625,-0.990692138671875,-0.29962158203125,-0.1238250732421875
1761315274778290000,5.9842900390625,-0.9655609130859375,-0.29150390625,-0.1105194091796875
1761315274788338000,5.994337890625,-0.9195709228515625,-0.29718017578125,-0.0848236083984375
1761315274798385200,6.00438525390625,-0.885284423828125,-0.318328857421875,-0.048980712890625
1761315274808432000,6.01443212890625,-0.8661651611328125,-0.3386383056640625,-0.01806640625
1761315274818480000,6.024480224609375,-0.838592529296875,-0.3531341552734375,0.0019989013671875
1761315274828526800,6.03452685546875,-0.8187255859375,-0.3685150146484375,0.021331787109375
1761315274838573800,6.04457373046875,-0.8079376220703125,-0.387237548828125,0.0328521728515625
1761315274848621000,6.05462109375,-0.7928924560546875,-0.3944549560546875,0.03521728515625
1761315274858669000,6.0646689453125,-0.7773590087890625,-0.3948516845703125,0.0390625
1761315274868716000,6.074716064453125,-0.7742156982421875,-0.4048309326171875,0.0446929931640625
1761315274878763000,6.084762939453125,-0.767181396484375,-0.4167327880859375,0.04388427734375
1761315274888811000,6.09481103515625,-0.7558746337890625,-0.429351806640625,0.044891357421875
1761315274898858000,6.10485791015625,-0.754730224609375,-0.44134521484375,0.04736328125
1761315274908905000,6.114905029296875,-0.7633514404296875,-0.4536285400390625,0.051300048828125
1761315274918953000,6.124952880859375,-0.7753143310546875,-0.45977783203125,0.0522003173828125
1761315274929000200,6.135000244140625,-0.7926025390625,-0.4658050537109375,0.0492706298828125
1761315274939047200,6.145047119140625,-0.803955078125,-0.46710205078125,0.0391082763671875
1761315274949094100,6.15509423828125,-0.818359375,-0.4601898193359375,0.0301971435546875
1761315274959142000,6.165141845703125,-0.8405914306640625,-0.4539642333984375,0.021697998046875
1761315274969188900,6.17518896484375,-0.85546875,-0.454315185546875,0.01324462890625
1761315274979236000,6.185236083984375,-0.8763885498046875,-0.45330810546875,0.00421142578125
1761315274989284000,6.1952841796875,-0.90185546875,-0.4509429931640625,-0.0005645751953125
1761315274999331000,6.2053310546875,-0.934173583984375,-0.4542694091796875,-0.004119873046875
1761315275009378000,6.2153779296875,-0.9578857421875,-0.4567718505859375,-0.0118408203125
1761315275019426000,6.225426025390625,-0.966583251953125,-0.452880859375,-0.0171356201171875
1761315275029473000,6.23547314453125,-0.9822998046875,-0.446685791015625,-0.0235137939453125
1761315275039520000,6.24552001953125,-0.9885101318359375,-0.4402008056640625,-0.0281524658203125
1761315275049567000,6.25556689453125,-0.9856414794921875,-0.4356842041015625,-0.0287322998046875
1761315275059615200,6.265615234375,-0.9823455810546875,-0.433258056640625,-0.02679443359375
1761315275069662200,6.275662109375,-0.9784393310546875,-0.4333648681640625,-0.022552490234375
1761315275079709000,6.285708984375,-0.9754638671875,-0.43402099609375,-0.0164947509765625
1761315275089757000,6.2957568359375,-0.9679718017578125,-0.4377593994140625,-0.009002685546875
1761315275099804000,6.305803955078125,-0.9610137939453125,-0.4523162841796875,0.0031890869140625
1761315275109851100,6.31585107421875,-0.9679718017578125,-0.467376708984375,0.0153045654296875
1761315275119899100,6.325899169921875,-0.9806976318359375,-0.4674072265625,0.0189361572265625
1761315275129946000,6.335946044921875,-0.9696044921875,-0.46661376953125,0.0153045654296875
1761315275139992800,6.345992919921875,-0.9597625732421875,-0.4686126708984375,0.0086212158203125
1761315275150039800,6.356039794921875,-0.97393798828125,-0.4656829833984375,-0.000732421875
1761315275160088000,6.366088134765625,-0.9756317138671875,-0.45452880859375,-0.0144195556640625
1761315275170135000,6.376135009765625,-0.962005615234375,-0.431976318359375,-0.0269317626953125
1761315275180182000,6.38618212890625,-0.9645538330078125,-0.4161224365234375,-0.0399169921875
1761315275190230000,6.39622998046875,-0.967559814453125,-0.4072113037109375,-0.04736328125
1761315275200277000,6.406277099609375,-0.9703369140625,-0.3910675048828125,-0.05230712890625
1761315275210324000,6.416323974609375,-0.972076416015625,-0.3747406005859375,-0.05914306640625
1761315275220372000,6.4263720703125,-0.9686431884765625,-0.3623199462890625,-0.0741119384765625
1761315275230419000,6.4364189453125,-0.9509735107421875,-0.3464508056640625,-0.090301513671875
1761315275240466200,6.446466064453125,-0.9334716796875,-0.3258056640625,-0.10247802734375
1761315275250513200,6.45651318359375,-0.9227142333984375,-0.3153228759765625,-0.1043548583984375
1761315275260561000,6.466560791015625,-0.9183807373046875,-0.3173828125,-0.0972747802734375
1761315275270608000,6.47660791015625,-0.91229248046875,-0.3178253173828125,-0.0875701904296875
1761315275280655000,6.486655029296875,-0.90594482421875,-0.3119964599609375,-0.076904296875
1761315275290703000,6.496703125,-0.9078521728515625,-0.31048583984375,-0.068115234375
1761315275300750000,6.50675,-0.9006805419921875,-0.3052520751953125,-0.0615386962890625
1761315275310797000,6.516797119140625,-0.8789825439453125,-0.29156494140625,-0.0602264404296875
1761315275320845000,6.526844970703125,-0.8569793701171875,-0.2772216796875,-0.058837890625
1761315275330892000,6.53689208984375,-0.8488311767578125,-0.273193359375,-0.052337646484375
1761315275340939000,6.54693896484375,-0.8397979736328125,-0.2776031494140625,-0.0479583740234375
1761315275350986000,6.556986083984375,-0.8234710693359375,-0.2822418212890625,-0.04833984375
1761315275361034000,6.567033935546875,-0.8068389892578125,-0.28857421875,-0.0481109619140625
1761315275371081000,6.5770810546875,-0.797576904296875,-0.3036956787109375,-0.0447845458984375
1761315275381128000,6.5871279296875,-0.791168212890625,-0.3309783935546875,-0.0380706787109375
1761315275391176000,6.597176025390625,-0.7918243408203125,-0.3574066162109375,-0.0330352783203125
1761315275401223000,6.607222900390625,-0.80694580078125,-0.374969482421875,-0.0319366455078125
1761315275411270000,6.617269775390625,-0.8209381103515625,-0.3794097900390625,-0.034149169921875
1761315275421318000,6.62731787109375,-0.84527587890625,-0.368621826171875,-0.0417327880859375
1761315275431365000,6.637365234375,-0.880584716796875,-0.3502655029296875,-0.0502166748046875
1761315275441412000,6.647412109375,-0.916046142578125,-0.329833984375,-0.0641021728515625
1761315275451458800,6.657458740234375,-0.94488525390625,-0.3103790283203125,-0.0757904052734375
1761315275461506800,6.6675068359375,-0.976715087890625,-0.290924072265625,-0.079315185546875
1761315275471553800,6.6775537109375,-1.002655029296875,-0.2751312255859375,-0.0758514404296875
1761315275481601000,6.68760107421875,-1.011871337890625,-0.265228271484375,-0.071319580078125
1761315275491649000,6.69764892578125,-1.0059051513671875,-0.262481689453125,-0.059234619140625
1761315275501695700,6.70769580078125,-0.9831085205078125,-0.2594146728515625,-0.0432891845703125
1761315275511742700,6.71774267578125,-0.955474853515625,-0.2607269287109375,-0.018524169921875
1761315275521791000,6.727791015625,-0.93182373046875,-0.2733917236328125,0.00628662109375
1761315275531838000,6.737837890625,-0.9067840576171875,-0.2978668212890625,0.031463623046875
1761315275541885000,6.747885009765625,-0.8863067626953125,-0.32373046875,0.04876708984375
1761315275551932000,6.757931884765625,-0.885101318359375,-0.3441162109375,0.0555267333984375
1761315275561980000,6.76797998046875,-0.89447021484375,-0.3646087646484375,0.0549468994140625
1761315275572027000,6.77802685546875,-0.89056396484375,-0.3824310302734375,0.05023193359375
1761315275582073900,6.788073974609375,-0.891876220703125,-0.3957366943359375,0.0401763916015625
1761315275592121900,6.798121826171875,-0.905303955078125,-0.407257080078125,0.0272979736328125
1761315275602168800,6.8081689453125,-0.91387939453125,-0.420074462890625,0.0135040283203125
1761315275612216000,6.818216064453125,-0.91375732421875,-0.4322662353515625,-0.0013275146484375
1761315275622263800,6.828263916015625,-0.9162445068359375,-0.441680908203125,-0.0161590576171875
1761315275632310800,6.838310791015625,-0.9182281494140625,-0.448028564453125,-0.028076171875
1761315275642357800,6.848357666015625,-0.926239013671875,-0.451446533203125,-0.0346832275390625
1761315275652405000,6.858405029296875,-0.9218597412109375,-0.44989013671875,-0.035186767578125
1761315275662453000,6.868452880859375,-0.9229736328125,-0.444793701171875,-0.0308685302734375
1761315275672500000,6.8785,-0.9237518310546875,-0.43646240234375,-0.0277557373046875
1761315275682547000,6.888546875,-0.9197235107421875,-0.430999755859375,-0.0230560302734375
1761315275692595000,6.898594970703125,-0.918792724609375,-0.4307403564453125,-0.0194854736328125
1761315275702642000,6.908641845703125,-0.92120361328125,-0.427947998046875,-0.015533447265625
1761315275712689000,6.91868896484375,-0.926055908203125,-0.4186248779296875,-0.01361083984375
1761315275722737000,6.92873681640625,-0.932708740234375,-0.4137420654296875,-0.0168304443359375
1761315275732783900,6.938783935546875,-0.938140869140625,-0.40802001953125,-0.02362060546875
1761315275742831000,6.9488310546875,-0.9325714111328125,-0.4011993408203125,-0.0292205810546875
1761315275752877800,6.9588779296875,-0.9294586181640625,-0.3961029052734375,-0.0264129638671875
1761315275762925800,6.96892578125,-0.9353179931640625,-0.39276123046875,-0.0237579345703125
1761315275772972800,6.978972900390625,-0.932647705078125,-0.394805908203125,-0.0223388671875
1761315275783020000,6.98902001953125,-0.9256134033203125,-0.3989715576171875,-0.0195159912109375
1761315275793068000,6.999068115234375,-0.923828125,-0.3981781005859375,-0.0202484130859375
1761315275803115000,7.009114990234375,-0.9207305908203125,-0.398681640625,-0.020416259765625
1761315275813161700,7.01916162109375,-0.9185791015625,-0.399566650390625,-0.024169921875
1761315275823210000,7.0292099609375,-0.9184417724609375,-0.4004058837890625,-0.0283660888671875
1761315275833257000,7.039257080078125,-0.9228363037109375,-0.40545654296875,-0.025482177734375
1761315275843304000,7.049303955078125,-0.9204254150390625,-0.4141693115234375,-0.02392578125
1761315275853351000,7.059350830078125,-0.9175872802734375,-0.4154052734375,-0.0256805419921875
1761315275863399000,7.06939892578125,-0.9095916748046875,-0.41253662109375,-0.026123046875
1761315275873446000,7.07944580078125,-0.908538818359375,-0.412628173828125,-0.022369384765625
1761315275883492900,7.089492919921875,-0.9109649658203125,-0.4181671142578125,-0.017578125
1761315275893540900,7.099540771484375,-0.9100189208984375,-0.4237518310546875,-0.01275634765625
1761315275903587800,7.109587890625,-0.912017822265625,-0.4228515625,-0.0101165771484375
1761315275913635000,7.119635009765625,-0.9130859375,-0.4192047119140625,-0.0082244873046875
1761315275923682800,7.129682861328125,-0.9135894775390625,-0.424285888671875,-0.0003509521484375
1761315275933729800,7.139729736328125,-0.9144287109375,-0.441558837890625,0.0197601318359375
1761315275943776800,7.14977685546875,-0.928070068359375,-0.458770751953125,0.042877197265625
1761315275953823700,7.15982373046875,-0.9558563232421875,-0.4636688232421875,0.054840087890625
1761315275963872000,7.1698720703125,-0.9712677001953125,-0.4644317626953125,0.05487060546875
1761315275973919000,7.1799189453125,-0.981414794921875,-0.463775634765625,0.0459136962890625
1761315275983966000,7.189966064453125,-1.0003509521484375,-0.450653076171875,0.030731201171875
1761315275994013700,7.200013671875,-1.021331787109375,-0.4291534423828125,0.0090179443359375
1761315276004061000,7.21006103515625,-1.03564453125,-0.4080657958984375,-0.0146026611328125
1761315276014108000,7.22010791015625,-1.0531158447265625,-0.3913421630859375,-0.0333251953125
1761315276024155000,7.23015478515625,-1.063873291015625,-0.37628173828125,-0.0457763671875
1761315276034203000,7.240202880859375,-1.05950927734375,-0.361114501953125,-0.0585174560546875
1761315276044250000,7.25025,-1.04461669921875,-0.34686279296875,-0.067413330078125
1761315276054297000,7.260297119140625,-1.0223388671875,-0.3330535888671875,-0.069732666015625
1761315276064344800,7.2703447265625,-0.998931884765625,-0.3254241943359375,-0.0676116943359375
1761315276074391800,7.280391845703125,-0.982940673828125,-0.3205413818359375,-0.0568695068359375
1761315276084438800,7.290438720703125,-0.96173095703125,-0.31927490234375,-0.0419769287109375
1761315276094487000,7.300487060546875,-0.9325103759765625,-0.319091796875,-0.0316619873046875
1761315276104534000,7.310533935546875,-0.905120849609375,-0.3180999755859375,-0.0233154296875
1761315276114581000,7.3205810546875,-0.8835601806640625,-0.3173828125,-0.012786865234375
1761315276124627700,7.330627685546875,-0.8595123291015625,-0.321563720703125,-0.002532958984375
1761315276134676000,7.340676025390625,-0.8371429443359375,-0.32366943359375,0.0050201416015625
1761315276144723000,7.350722900390625,-0.817657470703125,-0.3236846923828125,0.012359619140625
1761315276154770000,7.36077001953125,-0.803314208984375,-0.3287506103515625,0.0246124267578125
1761315276164818000,7.37081787109375,-0.7959747314453125,-0.3412017822265625,0.0382080078125
1761315276174865000,7.380864990234375,-0.7967376708984375,-0.358642578125,0.0522308349609375
1761315276184912000,7.390911865234375,-0.799957275390625,-0.3708038330078125,0.0614776611328125
1761315276194960000,7.4009599609375,-0.7964630126953125,-0.3797454833984375,0.07269287109375
1761315276205006800,7.4110068359375,-0.801513671875,-0.39215087890625,0.08209228515625
1761315276215053800,7.4210537109375,-0.8162384033203125,-0.408660888671875,0.0886383056640625
1761315276225101000,7.43110107421875,-0.8360137939453125,-0.4184417724609375,0.0842437744140625
1761315276235148800,7.441148681640625,-0.856475830078125,-0.413421630859375,0.064910888671875
1761315276245195800,7.45119580078125,-0.880859375,-0.3979949951171875,0.0407867431640625
1761315276255242800,7.46124267578125,-0.90594482421875,-0.376708984375,0.0147705078125
1761315276265291000,7.471291015625,-0.925689697265625,-0.3512420654296875,-0.011077880859375
1761315276275338000,7.481337890625,-0.9465484619140625,-0.3279266357421875,-0.0287933349609375
1761315276285385000,7.491385009765625,-0.9658966064453125,-0.312896728515625,-0.04150390625
1761315276295432700,7.5014326171875,-0.968994140625,-0.3065338134765625,-0.0460052490234375
1761315276305480000,7.51147998046875,-0.9599456787109375,-0.3062744140625,-0.043975830078125
1761315276315527000,7.52152685546875,-0.9499053955078125,-0.3087158203125,-0.038238525390625
1761315276325574000,7.531573974609375,-0.9318389892578125,-0.3162994384765625,-0.0264434814453125
1761315276335622000,7.541621826171875,-0.9153900146484375,-0.32452392578125,-0.01483154296875
1761315276345668900,7.5516689453125,-0.9027557373046875,-0.333892822265625,-0.0028839111328125
1761315276355716000,7.561716064453125,-0.882293701171875,-0.3536376953125,0.01666259765625
1761315276365763800,7.571763916015625,-0.8691558837890625,-0.3771514892578125,0.0345306396484375
1761315276375811000,7.58181103515625,-0.8607635498046875,-0.3965911865234375,0.0428924560546875
1761315276385858000,7.591858154296875,-0.8385009765625,-0.405120849609375,0.0455780029296875
1761315276395906000,7.601906005859375,-0.8225555419921875,-0.412109375,0.0529327392578125
1761315276405953000,7.611953125,-0.82073974609375,-0.418212890625,0.06304931640625
1761315276416000000,7.622,-0.821075439453125,-0.4114532470703125,0.0687103271484375
1761315276426047000,7.632046875,-0.8300933837890625,-0.400543212890625,0.0701446533203125
1761315276436095000,7.642094970703125,-0.8227996826171875,-0.3922882080078125,0.0752105712890625
1761315276446142000,7.652141845703125,-0.8419647216796875,-0.385223388671875,0.0845184326171875
1761315276456189000,7.66218896484375,-0.877532958984375,-0.369964599609375,0.0825042724609375
1761315276466237200,7.6722373046875,-0.8862457275390625,-0.35528564453125,0.08697509765625
1761315276476284000,7.682283935546875,-0.9057769775390625,-0.34979248046875,0.092559814453125
1761315276486331000,7.692330810546875,-0.921783447265625,-0.3484649658203125,0.0962982177734375
1761315276496379000,7.70237890625,-0.924163818359375,-0.3525238037109375,0.0984344482421875
1761315276506426000,7.712426025390625,-0.9197998046875,-0.3546295166015625,0.0980224609375
1761315276516473000,7.72247314453125,-0.91729736328125,-0.371673583984375,0.108917236328125
1761315276526520000,7.73252001953125,-0.9262847900390625,-0.40350341796875,0.1151580810546875
1761315276536567800,7.74256787109375,-0.926177978515625,-0.4239044189453125,0.1141815185546875
1761315276546614800,7.75261474609375,-0.9353179931640625,-0.4380340576171875,0.1157989501953125
1761315276556662000,7.762662109375,-0.9349517822265625,-0.443145751953125,0.1075286865234375
1761315276566710000,7.7727099609375,-0.9242401123046875,-0.4344024658203125,0.0914764404296875
1761315276576757000,7.782757080078125,-0.9145965576171875,-0.4246978759765625,0.0765380859375
1761315276586804000,7.792803955078125,-0.9035186767578125,-0.41925048828125,0.07196044921875
1761315276596851000,7.802850830078125,-0.9023895263671875,-0.4218597412109375,0.070831298828125
1761315276606899000,7.81289892578125,-0.91314697265625,-0.4384307861328125,0.0797576904296875
1761315276616946000,7.82294580078125,-0.9274444580078125,-0.4550933837890625,0.0831146240234375
1761315276626993000,7.832992919921875,-0.9289703369140625,-0.4632720947265625,0.07879638671875
1761315276637041200,7.843041259765625,-0.935394287109375,-0.466705322265625,0.0780181884765625
1761315276647088000,7.853088134765625,-0.9661102294921875,-0.4706268310546875,0.0780792236328125
1761315276657135000,7.863135009765625,-1.00653076171875,-0.46905517578125,0.081878662109375
1761315276667182800,7.873182861328125,-1.046539306640625,-0.466033935546875,0.0772857666015625
1761315276677229800,7.883229736328125,-1.06658935546875,-0.457733154296875,0.0641021728515625
1761315276687277000,7.893277099609375,-1.0708770751953125,-0.4482879638671875,0.0541534423828125
1761315276697324000,7.903323974609375,-1.0906982421875,-0.457794189453125,0.05255126953125
1761315276707372000,7.9133720703125,-1.1036834716796875,-0.4756927490234375,0.0500640869140625
1761315276717419000,7.9234189453125,-1.09954833984375,-0.4841156005859375,0.0456085205078125
1761315276727466000,7.933466064453125,-1.1075897216796875,-0.4799346923828125,0.0312957763671875
1761315276737514000,7.943513916015625,-1.1124267578125,-0.4741058349609375,0.0097198486328125
1761315276747561000,7.95356103515625,-1.0921478271484375,-0.4755401611328125,-0.00152587890625
1761315276757608000,7.96360791015625,-1.078155517578125,-0.4790802001953125,-0.016387939453125
1761315276767656200,7.97365625,-1.0766143798828125,-0.4775390625,-0.027130126953125
1761315276777703200,7.983703125,-1.0747222900390625,-0.4689178466796875,-0.0374755859375
1761315276787750000,7.99375,-1.0625762939453125,-0.4490814208984375,-0.0576324462890625
1761315276797796900,8.003796875,-1.05340576171875,-0.42218017578125,-0.0785369873046875
1761315276807844900,8.013844970703126,-1.0461273193359375,-0.3883056640625,-0.101165771484375
1761315276817892000,8.02389208984375,-1.0282745361328125,-0.347991943359375,-0.125396728515625
1761315276827939000,8.03393896484375,-1.0112457275390625,-0.3188629150390625,-0.14208984375
1761315276837987000,8.043987060546876,-0.99493408203125,-0.3009185791015625,-0.149932861328125
1761315276848033800,8.05403369140625,-0.9889678955078125,-0.2885284423828125,-0.1474761962890625
1761315276858081000,8.0640810546875,-0.9869384765625,-0.28216552734375,-0.135894775390625
1761315276868129000,8.07412890625,-0.9751739501953125,-0.2790069580078125,-0.122894287109375
1761315276878176000,8.084176025390626,-0.953369140625,-0.2753143310546875,-0.11236572265625
1761315276888223000,8.094222900390625,-0.9378662109375,-0.2724761962890625,-0.1026153564453125
1761315276898270000,8.10427001953125,-0.92626953125,-0.271331787109375,-0.0916900634765625
1761315276908318000,8.11431787109375,-0.9039154052734375,-0.2669830322265625,-0.08502197265625
1761315276918365000,8.124364990234374,-0.8727874755859375,-0.259246826171875,-0.0855865478515625
1761315276928412000,8.134411865234375,-0.836639404296875,-0.242034912109375,-0.0897674560546875
1761315276938460000,8.1444599609375,-0.7985382080078125,-0.2182769775390625,-0.0923004150390625
1761315276948507100,8.154507080078124,-0.7736663818359375,-0.2054290771484375,-0.0899658203125
1761315276958554000,8.16455419921875,-0.7525634765625,-0.211761474609375,-0.0821990966796875
1761315276968601000,8.17460107421875,-0.7330169677734375,-0.2272796630859375,-0.0678558349609375
1761315276978648800,8.18464892578125,-0.738861083984375,-0.2468109130859375,-0.045654296875
1761315276988696000,8.194696044921875,-0.7576141357421875,-0.2713165283203125,-0.0266571044921875
1761315276998743000,8.204742919921875,-0.770782470703125,-0.293243408203125,-0.005401611328125
1761315277008791000,8.214791015625,-0.78472900390625,-0.30169677734375,0.0067291259765625
1761315277018838000,8.224838134765625,-0.787872314453125,-0.3123016357421875,0.0233001708984375
1761315277028885000,8.234885009765625,-0.7821044921875,-0.3366241455078125,0.0370025634765625
1761315277038933000,8.24493310546875,-0.776519775390625,-0.362213134765625,0.0387420654296875
1761315277048980000,8.25497998046875,-0.765594482421875,-0.3742218017578125,0.0376129150390625
1761315277059027000,8.26502685546875,-0.7506561279296875,-0.3721923828125,0.034027099609375
1761315277069074000,8.275073974609375,-0.749481201171875,-0.367950439453125,0.0281219482421875
1761315277079122200,8.2851220703125,-0.762542724609375,-0.3743743896484375,0.0283355712890625
1761315277089169200,8.295169189453125,-0.776947021484375,-0.3838043212890625,0.0250091552734375
1761315277099216000,8.3052158203125,-0.7943572998046875,-0.3917083740234375,0.0206756591796875
1761315277109264000,8.315263916015626,-0.812713623046875,-0.3939208984375,0.0222625732421875
1761315277119311000,8.32531103515625,-0.822845458984375,-0.3928985595703125,0.0213623046875
1761315277129358000,8.335358154296875,-0.82745361328125,-0.395294189453125,0.024993896484375
1761315277139406000,8.345406005859376,-0.82623291015625,-0.400604248046875,0.0298004150390625
1761315277149452800,8.355452880859374,-0.821746826171875,-0.4094085693359375,0.032257080078125
1761315277159499800,8.365499755859375,-0.812225341796875,-0.41558837890625,0.0328369140625
1761315277169547000,8.375547119140625,-0.812347412109375,-0.4192352294921875,0.0477752685546875
1761315277179595000,8.385594970703124,-0.831695556640625,-0.425079345703125,0.064422607421875
1761315277189642000,8.39564208984375,-0.8573150634765625,-0.4378204345703125,0.07989501953125
1761315277199689000,8.40568896484375,-0.86773681640625,-0.4511871337890625,0.0905609130859375
1761315277209737000,8.415737060546874,-0.8603973388671875,-0.45947265625,0.08685302734375
1761315277219784000,8.425783935546875,-0.8483123779296875,-0.4652252197265625,0.0777130126953125
1761315277229831000,8.435830810546875,-0.8484649658203125,-0.4748992919921875,0.074462890625
1761315277239878000,8.4458779296875,-0.8599395751953125,-0.483917236328125,0.074371337890625
1761315277249926100,8.455926025390625,-0.8727264404296875,-0.4891204833984375,0.0702667236328125
1761315277259973000,8.46597314453125,-0.8811798095703125,-0.4892425537109375,0.0596923828125
1761315277270020000,8.47602001953125,-0.88482666015625,-0.4834747314453125,0.0493011474609375
1761315277280067800,8.48606787109375,-0.8917236328125,-0.4820709228515625,0.041107177734375
1761315277290114800,8.49611474609375,-0.8962554931640625,-0.480438232421875,0.0317535400390625
1761315277300162000,8.506162109375,-0.887847900390625,-0.4721221923828125,0.0164794921875
1761315277310210000,8.5162099609375,-0.8769989013671875,-0.46856689453125,0.0114288330078125
1761315277320257000,8.526257080078125,-0.877349853515625,-0.46990966796875,0.0128173828125
1761315277330304000,8.536303955078125,-0.8834686279296875,-0.46136474609375,0.0101776123046875
1761315277340351200,8.546351318359376,-0.883636474609375,-0.4510040283203125,0.007293701171875
1761315277350399000,8.55639892578125,-0.877349853515625,-0.4445343017578125,0.007049560546875
1761315277360446000,8.566446044921875,-0.87640380859375,-0.4447174072265625,0.0145416259765625
1761315277370496800,8.576496826171875,-0.88623046875,-0.450958251953125,0.0196533203125
1761315277380544800,8.586544677734375,-0.8978118896484375,-0.459747314453125,0.0249176025390625
1761315277390591700,8.596591796875,-0.9178314208984375,-0.4630126953125,0.0296630859375
1761315277400638700,8.606638671875,-0.9353179931640625,-0.466461181640625,0.031982421875
1761315277410685700,8.616685791015625,-0.9254302978515625,-0.4549560546875,0.0231475830078125
1761315277420733700,8.626733642578126,-0.90386962890625,-0.44085693359375,0.016326904296875
1761315277430780700,8.63678076171875,-0.8912353515625,-0.4379730224609375,0.014923095703125
1761315277440828000,8.646827880859375,-0.885650634765625,-0.4450225830078125,0.0178680419921875
1761315277450875600,8.656875732421875,-0.884613037109375,-0.44708251953125,0.01629638671875
1761315277460922600,8.666922607421874,-0.868621826171875,-0.4424285888671875,0.002899169921875
1761315277470969600,8.676969482421875,-0.8545379638671875,-0.4429168701171875,-0.0054473876953125
1761315277481017900,8.687017822265625,-0.807281494140625,-0.43670654296875,0.00225830078125
1761315277491064800,8.69706494140625,-0.8805694580078125,-0.43829345703125,0.0590362548828125
1761315277501111800,8.70711181640625,-1.008880615234375,-0.490264892578125,0.0931854248046875
1761315277511158800,8.71715869140625,-0.9884185791015625,-0.5260009765625,0.083251953125
1761315277521206800,8.727206787109376,-0.973541259765625,-0.528900146484375,0.0557708740234375
1761315277531253800,8.737253662109374,-0.973846435546875,-0.4844207763671875,0.00213623046875
1761315277541300700,8.74730078125,-0.96063232421875,-0.4400787353515625,-0.029693603515625
1761315277551348700,8.7573486328125,-0.967071533203125,-0.4232177734375,-0.04205322265625
1761315277561395700,8.767395751953124,-0.9803466796875,-0.4212799072265625,-0.060028076171875
1761315277571443000,8.77744287109375,-0.943695068359375,-0.419219970703125,-0.0888519287109375
