time,seconds_elapsed,z,y,x
1761315268860431600,0.066431640625,1.9040981531143188,0.6686744689941406,0.15191122889518738
1761315268870479600,0.076479736328125,1.8355941772460938,0.6457276344299316,0.18496985733509064
1761315268880526600,0.086526611328125,1.7740751504898071,0.6011388301849365,0.2004968822002411
1761315268890573600,0.096573486328125,1.716479778289795,0.5566877722740173,0.17709141969680786
1761315268900620800,0.106620849609375,1.6596894264221191,0.5212700963020325,0.13098092377185822
1761315268910668500,0.11666845703125,1.5938243865966797,0.46352770924568176,0.051664527505636215
1761315268920715500,0.126715576171875,1.5165215730667114,0.38026610016822815,-0.05168503150343895
1761315268930762500,0.136762451171875,1.424647569656372,0.2717457711696625,-0.14913515746593475
1761315268940810800,0.146810791015625,1.3211052417755127,0.14828480780124664,-0.20686103403568268
1761315268950857700,0.156857666015625,1.2157692909240723,0.08479691296815872,-0.21583828330039978
1761315268960904700,0.16690478515625,1.1213593482971191,0.0561242550611496,-0.18045233190059662
1761315268970952400,0.176952392578125,1.0566221475601196,0.04484416916966438,-0.1234833225607872
1761315268980999700,0.186999755859375,1.0188751220703125,0.06354408711194992,-0.03289776295423508
1761315268991046700,0.197046630859375,1.018149971961975,0.14262185990810394,0.09046438336372375
1761315269001094700,0.2070947265625,1.0363885164260864,0.29592886567115784,0.22605469822883606
1761315269011141600,0.2171416015625,1.0525193214416504,0.4887326657772064,0.38541799783706665
1761315269021188600,0.227188720703125,1.1121443510055542,0.6688499450683594,0.5412752628326416
1761315269031235600,0.237235595703125,1.1846646070480347,0.8027023077011108,0.6736801266670227
1761315269041283600,0.24728369140625,1.2590008974075317,0.8306964039802551,0.7391997575759888
1761315269051330600,0.25733056640625,1.3346346616744995,0.7922161221504211,0.7493999600410461
1761315269061377500,0.26737744140625,1.3948489427566528,0.736113965511322,0.7296933531761169
1761315269071425800,0.27742578125,1.4189801216125488,0.7029520273208618,0.6952999830245972
1761315269081472500,0.287472412109375,1.4078569412231445,0.6616833806037903,0.6472964882850647
1761315269091519500,0.29751953125,1.3555697202682495,0.6177822351455688,0.580102801322937
1761315269101567500,0.3075673828125,1.2671914100646973,0.591244637966156,0.4955596923828125
1761315269111614700,0.31761474609375,1.1645931005477905,0.5788750648498535,0.3899000883102417
1761315269121661700,0.32766162109375,1.0670700073242188,0.5972626209259033,0.26488491892814636
1761315269131708700,0.337708740234375,0.9865115880966187,0.6419400572776794,0.1286812722682953
1761315269141756400,0.34775634765625,0.9298411011695862,0.710861325263977,-0.019782492890954018
1761315269151803600,0.3578037109375,0.8981825113296509,0.7686910629272461,-0.19413724541664124
1761315269161850600,0.3678505859375,0.8856595158576965,0.8288002014160156,-0.37209951877593994
1761315269171898600,0.377898681640625,0.902057945728302,0.9070492386817932,-0.5216197967529297
1761315269181945600,0.387945556640625,0.9368297457695007,0.9779447317123413,-0.6390814185142517
1761315269191992600,0.39799267578125,0.9847248196601868,0.9978771209716797,-0.6971234083175659
1761315269202040600,0.40804052734375,1.0359911918640137,0.9869450926780701,-0.6895597577095032
1761315269212087600,0.418087646484375,1.0842548608779907,0.9443193674087524,-0.6116932034492493
1761315269222134500,0.428134521484375,1.1338344812393188,0.8778966665267944,-0.4924331307411194
1761315269232182500,0.4381826171875,1.1800637245178223,0.8161954879760742,-0.34748339653015137
1761315269242229800,0.448229736328125,1.2291688919067383,0.7203035950660706,-0.18795259296894073
1761315269252276700,0.45827685546875,1.2763715982437134,0.60491544008255,-0.02965642884373665
1761315269262323700,0.46832373046875,1.3066458702087402,0.516221821308136,0.1361602395772934
1761315269272371500,0.478371337890625,1.329600214958191,0.4911244511604309,0.28211984038352966
1761315269282418700,0.488418701171875,1.3538296222686768,0.5331683158874512,0.40646734833717346
1761315269292465700,0.498465576171875,1.3848837614059448,0.6159880757331848,0.478821724653244
1761315269302513700,0.508513671875,1.4216779470443726,0.6957066059112549,0.4845118224620819
1761315269312560600,0.518560546875,1.4553842544555664,0.7489581108093262,0.42564183473587036
1761315269322607600,0.528607666015625,1.477832555770874,0.7784057855606079,0.31723546981811523
1761315269332655600,0.538655517578125,1.4948523044586182,0.789537787437439,0.17655186355113983
1761315269342702600,0.54870263671875,1.4989439249038696,0.8013563752174377,0.021682126447558403
1761315269352746800,0.558746826171875,1.5012997388839722,0.8506165742874146,-0.10627157986164093
1761315269362793700,0.568793701171875,1.505993127822876,0.9596876502037048,-0.1912274807691574
1761315269372841700,0.578841796875,1.505022406578064,1.0808844566345215,-0.24382810294628143
1761315269382888700,0.588888671875,1.484179139137268,1.1603370904922485,-0.26846981048583984
1761315269392935700,0.598935791015625,1.4494049549102783,1.171723484992981,-0.2684357166290283
1761315269402983700,0.608983642578125,1.4058473110198975,1.1714105606079102,-0.2553982138633728
1761315269413030700,0.61903076171875,1.34812331199646,1.1733144521713257,-0.2451367825269699
1761315269423078000,0.629077880859375,1.2857505083084106,1.0563976764678955,-0.25841769576072693
1761315269433125600,0.639125732421875,1.2251867055892944,0.829664945602417,-0.2703920602798462
1761315269443172600,0.649172607421875,1.1763696670532227,0.5961470007896423,-0.23661600053310394
1761315269453219600,0.659219482421875,1.1490027904510498,0.4384188950061798,-0.1517743468284607
1761315269463267800,0.669267822265625,1.1636903285980225,0.36989468336105347,-0.02124430239200592
1761315269473314800,0.679314697265625,1.1760090589523315,0.4016188085079193,0.12019245326519012
1761315269483361800,0.68936181640625,1.1636834144592285,0.5003296732902527,0.2737548351287842
1761315269493408800,0.69940869140625,1.110605239868164,0.6911137104034424,0.41726595163345337
1761315269503456800,0.709456787109375,1.0335928201675415,0.9427241086959839,0.4934198260307312
1761315269513503700,0.719503662109375,0.972000002861023,1.165804386138916,0.44168633222579956
1761315269523550700,0.72955078125,0.9461071491241455,1.2665088176727295,0.29508838057518005
1761315269533598700,0.7395986328125,0.9491721987724304,1.1778231859207153,0.12406308948993683
1761315269543645700,0.749645751953125,0.9618242979049683,0.9910871386528015,0.005453088786453009
1761315269553693000,0.75969287109375,0.9652736783027649,0.8015020489692688,-0.02195669710636139
1761315269563740700,0.76974072265625,0.9475537538528442,0.647576093673706,0.04610437899827957
1761315269573787600,0.77978759765625,0.9120458364486694,0.5622617602348328,0.1963982731103897
1761315269583834600,0.789834716796875,0.8770708441734314,0.5284560918807983,0.4009503424167633
1761315269593883000,0.7998828125,0.8506932854652405,0.48858433961868286,0.603787362575531
1761315269603929900,0.809929931640625,0.8356118202209473,0.39120370149612427,0.7753964066505432
1761315269613976800,0.819976806640625,0.8182671666145325,0.2624305486679077,0.8927342295646667
1761315269624023600,0.8300234375,0.7991642951965332,0.1326187700033188,0.960260808467865
1761315269634071800,0.84007177734375,0.7763407230377197,0.02725798636674881,0.9613321423530579
1761315269644118800,0.850118896484375,0.746953010559082,-0.0643150731921196,0.8985593318939209
1761315269654165800,0.860165771484375,0.7188172936439514,-0.15672703087329865,0.7674540281295776
1761315269664213800,0.8702138671875,0.6863226890563965,-0.26186782121658325,0.6158677339553833
1761315269674260700,0.8802607421875,0.6248958110809326,-0.36132651567459106,0.45584341883659363
1761315269684307700,0.8903076171875,0.5442984700202942,-0.45845624804496765,0.33106154203414917
1761315269694355700,0.900355712890625,0.46681883931159973,-0.4823024570941925,0.26499465107917786
1761315269704402700,0.910402587890625,0.41096463799476624,-0.4572354555130005,0.24573546648025513
1761315269714449700,0.92044970703125,0.38496100902557373,-0.39793458580970764,0.2689398527145386
1761315269724497000,0.930496826171875,0.3827875852584839,-0.3203181028366089,0.3148335814476013
1761315269734544600,0.940544677734375,0.39591190218925476,-0.2362615317106247,0.3701159954071045
1761315269744591600,0.950591552734375,0.44642436504364014,-0.3819146156311035,0.3276822566986084
1761315269754638600,0.960638671875,0.49771419167518616,-0.5150593519210815,0.21649262309074402
1761315269764686800,0.970686767578125,0.5117934942245483,-0.4451122283935547,0.07243052124977112
1761315269774733800,0.98073388671875,0.4729827344417572,-0.2493368536233902,-0.08769629895687103
1761315269784780800,0.99078076171875,0.3800421357154846,-0.04809242859482765,-0.22971920669078827
1761315269794828500,1.00082861328125,0.2555217742919922,0.09462743997573853,-0.33503258228302
1761315269804875800,1.010875732421875,0.12826555967330933,0.20116586983203888,-0.3862086832523346
1761315269814922800,1.0209228515625,0.05507124215364456,0.17892128229141235,-0.44256916642189026
1761315269824970800,1.030970703125,0.038964975625276566,0.04993187263607979,-0.503224790096283
1761315269835017700,1.041017822265625,0.04625964164733887,-0.0664203017950058,-0.524969756603241
1761315269845064700,1.051064697265625,0.0680520236492157,-0.15283401310443878,-0.5057883262634277
1761315269855112000,1.06111181640625,0.10057081282138824,-0.2660849392414093,-0.4547185003757477
1761315269865159700,1.07115966796875,0.14114274084568024,-0.3666515052318573,-0.3603789508342743
1761315269875206700,1.08120654296875,0.17241278290748596,-0.4120815694332123,-0.23519226908683777
1761315269885253600,1.091253662109375,0.1764754354953766,-0.42084628343582153,-0.12136131525039673
1761315269895302000,1.101302001953125,0.17653243243694305,-0.40592139959335327,-0.04657655581831932
1761315269905348900,1.111348876953125,0.18617813289165497,-0.371006578207016,-0.022967100143432617
1761315269915395800,1.121395751953125,0.1992419958114624,-0.3103509545326233,-0.049548644572496414
1761315269925443600,1.131443603515625,0.20954683423042297,-0.26784104108810425,-0.1111651360988617
1761315269935490800,1.14149072265625,0.21828599274158478,-0.2524937689304352,-0.19945505261421204
1761315269945537800,1.151537841796875,0.21047334372997284,-0.2862469255924225,-0.2876504361629486
1761315269955585800,1.161585693359375,0.18269577622413635,-0.30981725454330444,-0.3556952476501465
1761315269965632800,1.1716328125,0.1348147988319397,-0.31005293130874634,-0.3978578746318817
1761315269975679700,1.1816796875,0.06477873027324677,-0.2983400821685791,-0.42714574933052063
1761315269985726700,1.191726806640625,-0.011498996987938881,-0.28577688336372375,-0.453570693731308
1761315269995774700,1.201774658203125,-0.09555981308221817,-0.3190333843231201,-0.4712833762168884
1761315270005821700,1.21182177734375,-0.1763175129890442,-0.3253522515296936,-0.4606195390224457
1761315270015868700,1.22186865234375,-0.23297466337680817,-0.2569332718849182,-0.41444751620292664
1761315270025917000,1.2319169921875,-0.2679041624069214,-0.18371577560901642,-0.35516101121902466
1761315270035963600,1.241963623046875,-0.2696669101715088,-0.12504500150680542,-0.29260924458503723
1761315270046010600,1.2520107421875,-0.2360045462846756,-0.09354273229837418,-0.23163482546806335
1761315270056058600,1.26205859375,-0.17190571129322052,-0.0851718857884407,-0.1868194192647934
1761315270066105900,1.27210595703125,-0.0971292108297348,-0.11017604172229767,-0.15704260766506195
1761315270076152800,1.28215283203125,-0.025241173803806305,-0.11379234492778778,-0.12766821682453156
1761315270086200800,1.292200927734375,0.026013758033514023,-0.061477210372686386,-0.09553611278533936
1761315270096247600,1.30224755859375,0.044985849410295486,0.012479306198656559,-0.07156606018543243
1761315270106294500,1.31229443359375,0.03494386747479439,0.12732812762260437,-0.05435138940811157
1761315270116341800,1.322341796875,0.024032631888985634,0.2562696039676666,-0.056470464915037155
1761315270126389800,1.3323896484375,0.02473703771829605,0.3437137007713318,-0.07275675982236862
1761315270136436700,1.342436767578125,0.04361778497695923,0.3785683512687683,-0.10144007205963135
1761315270146483700,1.352483642578125,0.07066191732883453,0.34998971223831177,-0.14253264665603638
1761315270156531700,1.36253173828125,0.1141689196228981,0.27435699105262756,-0.17800329625606537
1761315270166578700,1.37257861328125,0.16189488768577576,0.19068659842014313,-0.184775710105896
1761315270176625700,1.382625732421875,0.19954852759838104,0.09953378140926361,-0.18329578638076782
1761315270186673700,1.392673583984375,0.21633203327655792,-0.01955186389386654,-0.17067773640155792
1761315270196721000,1.402720947265625,0.2290201336145401,-0.13616396486759186,-0.13543611764907837
1761315270206767900,1.412767822265625,0.20515874028205872,-0.1980813890695572,-0.09127584844827652
1761315270216814800,1.42281494140625,0.14555346965789795,-0.2154633104801178,-0.0559074729681015
1761315270226862600,1.432862548828125,0.06317497789859772,-0.19975173473358154,-0.023672040551900864
1761315270236909600,1.44290966796875,-0.0005787048721686006,-0.1277766078710556,0.017768610268831253
1761315270246956800,1.452956787109375,-0.04752517491579056,-0.0374741367995739,0.0479065403342247
1761315270257004800,1.4630048828125,-0.09411611407995224,0.03205913305282593,0.06030594930052757
1761315270267051800,1.4730517578125,-0.1333005279302597,0.09514409303665161,0.0423077754676342
1761315270277098800,1.4830986328125,-0.15178845822811127,0.15244652330875397,0.0016074840677902102
1761315270287146800,1.493146728515625,-0.1370377391576767,0.18436957895755768,-0.04939071834087372
1761315270297193700,1.50319384765625,-0.10638183355331421,0.2076924741268158,-0.08609094470739365
1761315270307240700,1.51324072265625,-0.0904524028301239,0.24166987836360931,-0.11109722405672073
1761315270317288700,1.523288818359375,-0.08122161775827408,0.25621259212493896,-0.12513820827007294
1761315270327336000,1.5333359375,-0.06352757662534714,0.26056236028671265,-0.12263723462820053
1761315270337383000,1.5433828125,-0.038841936737298965,0.2590124011039734,-0.10408778488636017
1761315270347429600,1.5534296875,-0.014828480780124664,0.284413605928421,-0.05620574951171875
1761315270357480000,1.56347998046875,0.013216469436883926,0.3247019052505493,0.009095760062336922
1761315270367526700,1.573526611328125,0.05246187746524811,0.34192273020744324,0.0713849663734436
1761315270377573600,1.58357373046875,0.11906354129314423,0.32074418663978577,0.10796721279621124
1761315270387621600,1.59362158203125,0.20777103304862976,0.281242311000824,0.12173096090555191
1761315270397668900,1.6036689453125,0.3075927197933197,0.22474895417690277,0.10962769389152527
1761315270407715800,1.6137158203125,0.38801589608192444,0.16411224007606506,0.09471186250448227
1761315270417763600,1.623763671875,0.44034674763679504,0.13189172744750977,0.0800841823220253
1761315270427810600,1.633810546875,0.46339455246925354,0.10892169177532196,0.06480935961008072
1761315270437857500,1.643857421875,0.46007758378982544,0.07186673581600189,0.03972397744655609
1761315270447905800,1.65390576171875,0.4486246705055237,0.022948192432522774,-0.005455485545098782
1761315270457952800,1.663952880859375,0.43451976776123047,-0.0411628820002079,-0.06003643944859505
1761315270467999700,1.673999755859375,0.4161442220211029,-0.09879288822412491,-0.11823742836713791
1761315270478046700,1.684046630859375,0.38855546712875366,-0.13019181787967682,-0.17626744508743286
1761315270488094700,1.6940947265625,0.3539455533027649,-0.1261797696352005,-0.22402191162109375
1761315270498141700,1.7041416015625,0.30850642919540405,-0.11852904409170151,-0.24969372153282166
1761315270508188700,1.714188720703125,0.25402534008026123,-0.08708003908395767,-0.24775680899620056
1761315270518236700,1.724236572265625,0.19193720817565918,-0.05445125699043274,-0.22912479937076569
1761315270528284000,1.734283935546875,0.1251632422208786,-0.07373201102018356,-0.21341320872306824
1761315270538331000,1.744330810546875,0.07337647676467896,-0.11361684650182724,-0.20355339348316193
1761315270548378600,1.754378662109375,0.04252961650490761,-0.1754583716392517,-0.19806301593780518
1761315270558425600,1.764425537109375,0.01690015383064747,-0.26524046063423157,-0.1877046525478363
1761315270568472600,1.77447265625,-0.005765743553638458,-0.3288002610206604,-0.17826507985591888
1761315270578520800,1.784520751953125,-0.027999144047498703,-0.3706590235233307,-0.17431187629699707
1761315270588567800,1.79456787109375,-0.03749091550707817,-0.3924977481365204,-0.1670619547367096
1761315270598614800,1.80461474609375,-0.04007471352815628,-0.37211763858795166,-0.12940992414951324
1761315270608661800,1.814661865234375,-0.03786695376038551,-0.2607215940952301,-0.06379309296607971
1761315270618709800,1.824709716796875,-0.030590400099754333,-0.10121104121208191,0.0179411843419075
1761315270628756700,1.8347568359375,-0.0016141419764608145,0.06471534818410873,0.10819331556558609
1761315270638803700,1.8448037109375,0.034509241580963135,0.22374653816223145,0.19496841728687286
1761315270648851700,1.854851806640625,0.055083226412534714,0.3515170216560364,0.26644501090049744
1761315270658899000,1.86489892578125,0.062489476054906845,0.4120781123638153,0.28809598088264465
1761315270668945700,1.874945556640625,0.06742218136787415,0.3936823308467865,0.26155516505241394
1761315270678993700,1.88499365234375,0.09070167690515518,0.28543201088905334,0.1828792691230774
1761315270689040600,1.89504052734375,0.11755406111478806,0.12943682074546814,0.05860019475221634
1761315270699087600,1.905087646484375,0.1462690681219101,-0.0010135991033166647,-0.0934860110282898
1761315270709136000,1.915135986328125,0.17319947481155396,-0.03352919965982437,-0.27312448620796204
1761315270719182800,1.925182861328125,0.2013072818517685,-0.02502386085689068,-0.3845197260379791
1761315270729229600,1.9352294921875,0.23490998148918152,0.01968368887901306,-0.4498278796672821
1761315270739276500,1.945276611328125,0.26393070816993713,0.09426258504390717,-0.46812114119529724
1761315270749324800,1.95532470703125,0.2853563725948334,0.17363570630550385,-0.45843440294265747
1761315270759371800,1.965371826171875,0.2882075607776642,0.22982041537761688,-0.44406214356422424
1761315270769418800,1.975418701171875,0.274435818195343,0.2655981183052063,-0.42473104596138
1761315270779466800,1.985466796875,0.24823404848575592,0.2539747655391693,-0.41196250915527344
1761315270789513700,1.995513671875,0.20928718149662018,0.17968614399433136,-0.39994075894355774
1761315270799560700,2.005560791015625,0.1673136204481125,0.08192682266235352,-0.3832768201828003
1761315270809608700,2.015608642578125,0.11917699128389359,-0.004853877238929272,-0.3470644950866699
1761315270819655700,2.02565576171875,0.0738462582230568,-0.09257441014051437,-0.2995923161506653
1761315270829703000,2.035702880859375,0.03233477100729942,-0.1772184520959854,-0.23435311019420624
1761315270839750700,2.045750732421875,0.004715925548225641,-0.2127050757408142,-0.13942314684391022
1761315270849797600,2.055797607421875,-0.01841655746102333,-0.16784732043743134,-0.01883786916732788
1761315270859844600,2.0658447265625,-0.026880349963903427,-0.07144808769226074,0.10776854306459427
1761315270869892900,2.075892822265625,-0.023362047970294952,0.05813680589199066,0.2074538618326187
1761315270879939800,2.08593994140625,0.0022501046769320965,0.19069644808769226,0.276718407869339
1761315270889986800,2.09598681640625,0.0359787717461586,0.27750909328460693,0.30218011140823364
1761315270900033800,2.10603369140625,0.056892309337854385,0.3179667890071869,0.30291858315467834
1761315270910081500,2.11608154296875,0.062381353229284286,0.34392115473747253,0.2766941785812378
1761315270920128800,2.126128662109375,0.06582774966955185,0.3490581214427948,0.23037967085838318
1761315270930175700,2.13617578125,0.06645438820123672,0.31615370512008667,0.15542714297771454
1761315270940223700,2.1462236328125,0.0735732838511467,0.24245817959308624,0.07358473539352417
1761315270950270700,2.156270751953125,0.08136862516403198,0.1461007446050644,-0.004089017398655415
1761315270960318000,2.16631787109375,0.07577945291996002,0.051710598170757294,-0.07622446119785309
1761315270970365700,2.17636572265625,0.07381589710712433,-0.027775971218943596,-0.13852299749851227
1761315270980412700,2.18641259765625,0.08093373477458954,-0.09969303756952286,-0.18813475966453552
1761315270990459600,2.196459716796875,0.10471948981285095,-0.16699378192424774,-0.22831812500953674
1761315271000508000,2.2065078125,0.13637354969978333,-0.23436270654201508,-0.2411162108182907
1761315271010555000,2.216554931640625,0.170151486992836,-0.28627249598503113,-0.2291434407234192
1761315271020601900,2.226601806640625,0.19363364577293396,-0.26864558458328247,-0.1745917797088623
1761315271030648800,2.23664892578125,0.21782979369163513,-0.19724489748477936,-0.10568808019161224
1761315271040696600,2.246696533203125,0.24840475618839264,-0.09772789478302002,-0.052504487335681915
1761315271050743800,2.256743896484375,0.3010985851287842,0.008380701765418053,-0.02213619463145733
1761315271060790800,2.266790771484375,0.3803390860557556,0.10171517729759216,-0.018158763647079468
1761315271070838800,2.2768388671875,0.47740358114242554,0.16709791123867035,-0.04198206961154938
1761315271080885800,2.2868857421875,0.5741357207298279,0.1812230497598648,-0.06407272815704346
1761315271090932700,2.2969326171875,0.6610844731330872,0.17377445101737976,-0.062136609107255936
1761315271100980700,2.306980712890625,0.7151634097099304,0.16040991246700287,-0.04550836235284805
1761315271111027700,2.31702783203125,0.7307870984077454,0.13958559930324554,-0.021445371210575104
1761315271121074700,2.32707470703125,0.7255675792694092,0.11601768434047699,0.0007166566210798919
1761315271131123000,2.337123046875,0.7081465125083923,0.06920304149389267,0.014769891276955605
1761315271141169700,2.347169677734375,0.6691288352012634,0.018013088032603264,0.003742540255188942
1761315271151216600,2.357216552734375,0.6222734451293945,-0.0021789984311908484,-0.01793372631072998
1761315271161263600,2.367263671875,0.5751194953918457,0.03598117083311081,-0.028853485360741615
1761315271171311900,2.377311767578125,0.5328586101531982,0.11443869769573212,-0.02996162697672844
1761315271181358800,2.38735888671875,0.5030841827392578,0.1856585443019867,-0.04752357676625252
1761315271191405800,2.39740576171875,0.4923095703125,0.22880467772483826,-0.08036541193723679
1761315271201453600,2.40745361328125,0.49463796615600586,0.2579854726791382,-0.11602167785167694
1761315271211500500,2.41750048828125,0.50188148021698,0.27293911576271057,-0.15032292902469635
1761315271221547800,2.4275478515625,0.5135341286659241,0.2739119827747345,-0.1848851591348648
1761315271231595800,2.437595703125,0.5196471810340881,0.27176785469055176,-0.20209424197673798
1761315271241642800,2.447642822265625,0.5121898055076599,0.2898946702480316,-0.18691076338291168
1761315271251689700,2.457689697265625,0.4888796806335449,0.3332509398460388,-0.14952637255191803
1761315271261737700,2.46773779296875,0.4679586887359619,0.36042076349258423,-0.10463133454322815
1761315271271784700,2.47778466796875,0.4577862024307251,0.34814706444740295,-0.07053355127573013
1761315271281831700,2.487831787109375,0.4657764732837677,0.3163694143295288,-0.02605397067964077
1761315271291878700,2.497878662109375,0.46745720505714417,0.32577571272850037,0.03117363154888153
1761315271301927000,2.507927001953125,0.4625684320926666,0.3377529978752136,0.09299864619970322
1761315271311974000,2.517973876953125,0.4691704213619232,0.3369298279285431,0.15892253816127777
1761315271322020900,2.528020751953125,0.490255206823349,0.332788348197937,0.2247159332036972
1761315271332068600,2.538068603515625,0.5106102824211121,0.3146554231643677,0.2734813392162323
1761315271342115600,2.548115478515625,0.528394877910614,0.28107136487960815,0.3146040141582489
1761315271352162800,2.558162841796875,0.52974933385849,0.22873170673847198,0.34060952067375183
1761315271362209000,2.568208984375,0.5256728529930115,0.16141179203987122,0.3410167098045349
1761315271372256000,2.578256103515625,0.5094283819198608,0.10846175998449326,0.32810622453689575
1761315271382303000,2.588302978515625,0.49173590540885925,0.11026232689619064,0.31132620573043823
1761315271392351000,2.59835107421875,0.4796755313873291,0.17009955644607544,0.30053532123565674
1761315271402398000,2.60839794921875,0.47548264265060425,0.22669360041618347,0.2794865071773529
1761315271412445200,2.618445068359375,0.4777173101902008,0.2536200284957886,0.23855265974998474
1761315271422492000,2.628491943359375,0.47937965393066406,0.26319620013237,0.1738719344139099
1761315271432540000,2.638539794921875,0.4822912812232971,0.25352761149406433,0.09240902960300446
1761315271442587000,2.6485869140625,0.45858195424079895,0.2149123102426529,-0.00606348505243659
1761315271452634000,2.658634033203125,0.4198979437351227,0.1459401547908783,-0.11564590781927109
1761315271462682000,2.66868212890625,0.3646232485771179,0.06199333071708679,-0.21347951889038086
1761315271472729000,2.67872900390625,0.3034360408782959,-0.015064703300595284,-0.273614764213562
1761315271482775800,2.68877587890625,0.24640950560569763,-0.047380298376083374,-0.2843257188796997
1761315271492824000,2.698823974609375,0.19694235920906067,-0.027523769065737724,-0.24067199230194092
1761315271502871000,2.70887109375,0.17251691222190857,0.06671325117349625,-0.15285132825374603
1761315271512918000,2.71891796875,0.18757788836956024,0.2237904816865921,-0.034334003925323486
1761315271522966000,2.728966064453125,0.24379375576972961,0.4175013601779938,0.08962975442409515
1761315271533013000,2.739012939453125,0.33699747920036316,0.6018091440200806,0.19171084463596344
1761315271543060000,2.74906005859375,0.44536203145980835,0.745307207107544,0.26647377014160156
1761315271553108000,2.75910791015625,0.5353683233261108,0.8215463161468506,0.3260614573955536
1761315271563155000,2.769155029296875,0.6043764352798462,0.837348461151123,0.3968067467212677
1761315271573202000,2.779201904296875,0.6425914764404297,0.7823283076286316,0.49144670367240906
1761315271583249200,2.789249267578125,0.6434434056282043,0.7232250571250916,0.6178493499755859
1761315271593297000,2.799296875,0.6240937113761902,0.6553735733032227,0.7512982487678528
1761315271603344000,2.80934375,0.5957334041595459,0.5721218585968018,0.8650684952735901
1761315271613390800,2.819390869140625,0.5664647221565247,0.5160857439041138,0.9541813135147095
1761315271623439000,2.829439208984375,0.5338037610054016,0.49817728996276855,0.9891555309295654
1761315271633486000,2.839486083984375,0.5184881687164307,0.47974875569343567,0.9503713846206665
1761315271643533000,2.849532958984375,0.5109154582023621,0.3972024917602539,0.8435893058776855
1761315271653580800,2.859580810546875,0.5028111934661865,0.22459769248962402,0.6661894917488098
1761315271663628000,2.8696279296875,0.49023017287254333,-0.051301803439855576,0.4588903486728668
1761315271673675000,2.879675048828125,0.46490243077278137,-0.37061986327171326,0.2586914896965027
1761315271683723000,2.889722900390625,0.4151732325553894,-0.6577253937721252,0.06762884557247162
1761315271693770000,2.89977001953125,0.3305765986442566,-0.8392677903175354,-0.09083615988492966
1761315271703817000,2.90981689453125,0.20955562591552734,-0.8930569887161255,-0.24242116510868073
1761315271713864200,2.9198642578125,0.07922344654798508,-0.8922907710075378,-0.38418281078338623
1761315271723912000,2.929911865234375,-0.054234474897384644,-0.8402206301689148,-0.49994003772735596
1761315271733959000,2.939958984375,-0.1713310033082962,-0.685986340045929,-0.5691918134689331
1761315271744006000,2.950005859375,-0.2529859244823456,-0.4252961575984955,-0.5951882600784302
1761315271754054100,2.96005419921875,-0.2896765470504761,-0.11845207959413528,-0.6094276309013367
1761315271764101000,2.97010107421875,-0.2674780488014221,0.18963304162025452,-0.6106641888618469
1761315271774148000,2.980148193359375,-0.19308529794216156,0.47427091002464294,-0.6116015911102295
1761315271784195800,2.99019580078125,-0.09850047528743744,0.6901797652244568,-0.6224494576454163
1761315271794243000,3.0002431640625,0.009650230407714844,0.7897039651870728,-0.6326642632484436
1761315271804290000,3.0102900390625,0.12693370878696442,0.7722498774528503,-0.6305153965950012
1761315271814338000,3.020338134765625,0.24493224918842316,0.6931361556053162,-0.5978964567184448
1761315271824385000,3.030385009765625,0.35466939210891724,0.5889090895652771,-0.5393942594528198
1761315271834432000,3.040431884765625,0.44325146079063416,0.48703595995903015,-0.4740690290927887
1761315271844479000,3.05047900390625,0.5009635090827942,0.4052862524986267,-0.3999343514442444
1761315271854527000,3.06052685546875,0.5386203527450562,0.35386353731155396,-0.3215641677379608
1761315271864574000,3.070573974609375,0.5598286986351013,0.310377836227417,-0.257704496383667
1761315271874621000,3.080620849609375,0.5771522521972656,0.2521555423736572,-0.2267061173915863
1761315271884669200,3.090669189453125,0.5959579348564148,0.16751815378665924,-0.21209654211997986
1761315271894716000,3.1007158203125,0.6273384690284729,0.08214546740055084,-0.1870332658290863
1761315271904763000,3.110762939453125,0.6429054737091064,0.02750326320528984,-0.14142237603664398
1761315271914811000,3.120810791015625,0.6374028325080872,-0.032776057720184326,-0.10856030136346817
1761315271924858000,3.130858154296875,0.6222702264785767,-0.09271076321601868,-0.08102161437273026
1761315271934905000,3.140905029296875,0.5971265435218811,-0.13442492485046387,-0.056829459965229034
1761315271944953000,3.150953125,0.5689138174057007,-0.17272676527500153,-0.040701355785131454
1761315271954999800,3.160999755859375,0.5191470384597778,-0.2072834074497223,-0.033124662935733795
1761315271965046800,3.171046875,0.44973546266555786,-0.2425556480884552,-0.03199708089232445
1761315271975095000,3.181094970703125,0.3656083345413208,-0.2581593692302704,-0.021709023043513298
1761315271985142000,3.19114208984375,0.2710874378681183,-0.2516018748283386,0.008470982313156128
1761315271995189000,3.20118896484375,0.16938023269176483,-0.20897585153579712,0.044672928750514984
1761315272005236000,3.211236083984375,0.04352457448840141,-0.156904399394989,0.07887404412031174
1761315272015284000,3.221283935546875,-0.09074614942073822,-0.10292398184537888,0.09210862219333649
1761315272025331000,3.2313310546875,-0.2144784778356552,-0.06934232264757156,0.0786719098687172
1761315272035378000,3.2413779296875,-0.3003763258457184,-0.07151812314987183,0.046850595623254776
1761315272045426000,3.251426025390625,-0.33901986479759216,-0.08832187205553055,0.028385035693645477
1761315272055473200,3.26147314453125,-0.3578289747238159,-0.10371920466423035,0.043538689613342285
1761315272065520000,3.27152001953125,-0.37355440855026245,-0.09020446240901947,0.09469109028577805
1761315272075567900,3.28156787109375,-0.4007740616798401,-0.11560648679733276,0.1459614634513855
1761315272085614800,3.29161474609375,-0.4366351068019867,-0.13742204010486603,0.17646744847297668
1761315272095661800,3.301661865234375,-0.47817376255989075,-0.13468989729881287,0.1835906058549881
1761315272105709000,3.311708984375,-0.5160108804702759,-0.14710475504398346,0.17830076813697815
1761315272115757000,3.321757080078125,-0.5617400407791138,-0.1963396817445755,0.172727569937706
1761315272125804000,3.331803955078125,-0.6140354871749878,-0.23103082180023193,0.1662696748971939
1761315272135851000,3.34185107421875,-0.6699908971786499,-0.24877573549747467,0.15788044035434723
1761315272145899000,3.35189892578125,-0.7195453643798828,-0.22800706326961517,0.14745576679706573
1761315272155946000,3.361946044921875,-0.7581002116203308,-0.2001810222864151,0.12166465073823929
1761315272165993000,3.371992919921875,-0.7768251895904541,-0.22680971026420593,0.06768982857465744
1761315272176041000,3.382041015625,-0.7866882085800171,-0.28650233149528503,-0.016982978209853172
1761315272186088200,3.392088134765625,-0.788946270942688,-0.3586295247077942,-0.11193399131298065
1761315272196135200,3.40213525390625,-0.7945647835731506,-0.4097084105014801,-0.20589324831962585
1761315272206183000,3.412182861328125,-0.7996748089790344,-0.40637174248695374,-0.2710821032524109
1761315272216230000,3.42222998046875,-0.8031531572341919,-0.3364512622356415,-0.29635947942733765
1761315272226276900,3.43227685546875,-0.7919202446937561,-0.22731997072696686,-0.2711673080921173
1761315272236324000,3.442323974609375,-0.7632630467414856,-0.07648305594921112,-0.19147248566150665
1761315272246372000,3.4523720703125,-0.7099052667617798,0.12198369950056076,-0.07122065126895905
1761315272256418800,3.462418701171875,-0.6383290886878967,0.3006463944911957,0.06846054643392563
1761315272266465800,3.4724658203125,-0.5554517507553101,0.44222214818000793,0.20648206770420074
1761315272276514000,3.48251416015625,-0.4797474145889282,0.5115988254547119,0.33467864990234375
1761315272286561000,3.49256103515625,-0.4225784242153168,0.47755512595176697,0.4492529034614563
1761315272296608000,3.50260791015625,-0.38221660256385803,0.3751264810562134,0.5585663318634033
1761315272306656000,3.512656005859375,-0.36797454953193665,0.27695995569229126,0.668722927570343
1761315272316703000,3.522702880859375,-0.3775382339954376,0.206333190202713,0.7533895969390869
1761315272326750000,3.53275,-0.40886127948760986,0.1487540602684021,0.7958771586418152
1761315272336798000,3.5427978515625,-0.44375693798065186,0.08667764067649841,0.7798087000846863
1761315272346845000,3.552844970703125,-0.4696692228317261,0.03503308445215225,0.7088549137115479
1761315272356891000,3.562890869140625,-0.48606231808662415,-0.00526586826890707,0.5869572162628174
1761315272366937900,3.572937744140625,-0.4943165183067322,-0.035886362195014954,0.4268471896648407
1761315272376986000,3.582986083984375,-0.503882884979248,-0.04900562763214111,0.24565157294273376
1761315272387033000,3.593033203125,-0.513904333114624,-0.03331960737705231,0.08012919127941132
1761315272397080000,3.603080078125,-0.5310335159301758,-0.013427391648292542,-0.06578327715396881
1761315272407128000,3.613128173828125,-0.5412142276763916,-0.008232097141444683,-0.18450060486793518
1761315272417175000,3.623175048828125,-0.5459104776382446,-0.004640558268874884,-0.27088022232055664
1761315272427222000,3.633221923828125,-0.5337744355201721,0.03261946141719818,-0.32977789640426636
1761315272437270000,3.64327001953125,-0.5067561268806458,0.08798258751630783,-0.3635731637477875
1761315272447317000,3.65331689453125,-0.4536615014076233,0.1452013999223709,-0.3728824853897095
1761315272457364000,3.663364013671875,-0.3694709837436676,0.20150089263916016,-0.32935231924057007
1761315272467412000,3.673411865234375,-0.2754960358142853,0.3124265968799591,-0.2242181897163391
1761315272477459000,3.683458984375,-0.17144818603992462,0.42711111903190613,-0.0881359875202179
1761315272487506000,3.693505859375,-0.05433434620499611,0.4609367251396179,0.044796764850616455
1761315272497553000,3.703552978515625,0.07086271792650223,0.428096204996109,0.16772641241550446
1761315272507601000,3.713600830078125,0.1872021108865738,0.3771025538444519,0.2764454483985901
1761315272517648000,3.72364794921875,0.2799898386001587,0.31239891052246094,0.35545530915260315
1761315272527694800,3.73369482421875,0.3510805368423462,0.24758955836296082,0.37725886702537537
1761315272537743000,3.7437431640625,0.40376079082489014,0.19745901226997375,0.35158440470695496
1761315272547790000,3.7537900390625,0.4395185112953186,0.13913525640964508,0.29254239797592163
1761315272557837000,3.763837158203125,0.44478997588157654,0.0815047100186348,0.21529953181743622
1761315272567884800,3.773884765625,0.41258251667022705,0.0448758602142334,0.11654525250196457
1761315272577931800,3.783931884765625,0.3613336980342865,0.02821991965174675,0.021588649600744247
1761315272587979000,3.79397900390625,0.3056619167327881,0.04001745581626892,-0.07742661237716675
1761315272598027000,3.804027099609375,0.24739700555801392,0.05188610032200813,-0.1797226220369339
1761315272608074000,3.814073974609375,0.19884411990642548,0.06229187175631523,-0.281054824590683
1761315272618121000,3.824120849609375,0.16138596832752228,0.05711548402905464,-0.38626301288604736
1761315272628168200,3.834168212890625,0.1556713581085205,0.03991998732089996,-0.4791881740093231
1761315272638216000,3.8442158203125,0.17589007318019867,0.02185176871716976,-0.5504037737846375
1761315272648263000,3.854262939453125,0.21530751883983612,0.018789932131767273,-0.5829534530639648
1761315272658310000,3.864309814453125,0.26290273666381836,0.01643063873052597,-0.5936212539672852
1761315272668358100,3.874358154296875,0.3097054064273834,-0.0008902947301976383,-0.5871313810348511
1761315272678405000,3.884405029296875,0.3547394573688507,-0.002867691917344928,-0.5791669487953186
1761315272688452000,3.8944521484375,0.3960040509700775,0.03272252529859543,-0.5669723153114319
1761315272698499800,3.904499755859375,0.4513642489910126,0.07576533406972885,-0.565680205821991
1761315272708546800,3.914546875,0.506955623626709,0.0929427221417427,-0.5693156719207764
1761315272718594000,3.924593994140625,0.5429085493087769,0.07147311419248581,-0.5569705963134766
1761315272728642000,3.93464208984375,0.5620707869529724,0.022186795249581337,-0.5048498511314392
1761315272738689000,3.94468896484375,0.5438627600669861,-0.012703011743724346,-0.39638516306877136
1761315272748736000,3.954736083984375,0.4997669458389282,-0.020381437614560127,-0.23583143949508667
1761315272758783000,3.964782958984375,0.4416376054286957,-0.006352970842272043,-0.06012831628322601
1761315272768831000,3.9748310546875,0.39243969321250916,0.03225434198975563,0.11167779564857483
1761315272778878000,3.9848779296875,0.350987046957016,0.09842617064714432,0.26579225063323975
1761315272788925000,3.994925048828125,0.3164394497871399,0.17925044894218445,0.3817114233970642
1761315272798973200,4.00497314453125,0.29547107219696045,0.2568914592266083,0.46736931800842285
1761315272809020200,4.015020263671875,0.277538925409317,0.30795490741729736,0.5128492116928101
1761315272819067000,4.02506689453125,0.25575587153434753,0.29963359236717224,0.5066291093826294
1761315272829115000,4.035114990234375,0.2274470031261444,0.25429433584213257,0.44932159781455994
1761315272839161900,4.045161865234375,0.20010966062545776,0.20795026421546936,0.3619358539581299
1761315272849209000,4.055208984375,0.17950958013534546,0.17516009509563446,0.25642672181129456
1761315272859256000,4.065256103515625,0.14900971949100494,0.14916524291038513,0.14434252679347992
1761315272869304000,4.075303955078125,0.11330419033765793,0.12234002351760864,0.04981868714094162
1761315272879350800,4.085350830078125,0.08507335186004639,0.10742312669754028,-0.03217631205916405
1761315272889398000,4.09539794921875,0.07947272062301636,0.10208402574062347,-0.09490680694580078
1761315272899446000,4.105446044921875,0.09221647679805756,0.12869858741760254,-0.12545858323574066
1761315272909493000,4.115492919921875,0.11020666360855103,0.19695620238780975,-0.12367693334817886
1761315272919540000,4.1255400390625,0.13625051081180573,0.28271692991256714,-0.12085983902215958
1761315272929588000,4.135587890625,0.1556607037782669,0.36344265937805176,-0.12227291613817215
1761315272939635000,4.145635009765625,0.17270226776599884,0.42436620593070984,-0.11985689401626587
1761315272949682000,4.155681884765625,0.19214095175266266,0.42980942130088806,-0.10982716828584671
1761315272959730000,4.16572998046875,0.21752353012561798,0.39345860481262207,-0.07454560697078705
1761315272969777200,4.175777099609375,0.25209084153175354,0.34676167368888855,-0.02267282083630562
1761315272979824000,4.18582421875,0.30042213201522827,0.30075183510780334,0.032649554312229156
1761315272989871000,4.19587109375,0.36850985884666443,0.2547188401222229,0.051442950963974
1761315272999918800,4.2059189453125,0.44221603870391846,0.18514083325862885,0.05820072069764137
1761315273009965800,4.2159658203125,0.4971916675567627,0.098496213555336,0.09706050157546997
1761315273020013000,4.226012939453125,0.500083863735199,0.044495031237602234,0.19838792085647583
1761315273030061000,4.23606103515625,0.46073272824287415,0.03527383506298065,0.3642013967037201
1761315273040108000,4.24610791015625,0.4124576151371002,0.05944814532995224,0.5739911198616028
1761315273050155000,4.256155029296875,0.37921950221061707,0.06710553169250488,0.7630646228790283
1761315273060203000,4.266203125,0.374074250459671,0.04541648179292679,0.8976365327835083
1761315273070250000,4.27625,0.38708141446113586,-0.008511196821928024,0.957952618598938
1761315273080297000,4.286296875,0.40210455656051636,-0.10198228806257248,0.9322227835655212
1761315273090344000,4.296343994140625,0.41166985034942627,-0.2230069786310196,0.8208901286125183
1761315273100392200,4.30639208984375,0.40365877747535706,-0.3628777861595154,0.6414803862571716
1761315273110439200,4.316439208984375,0.39675480127334595,-0.5069353580474854,0.4136466979980469
1761315273120486100,4.326486083984375,0.3714236319065094,-0.6080284118652344,0.15993081033229828
1761315273130534000,4.336533935546875,0.3348222076892853,-0.6932879090309143,-0.08840363472700119
1761315273140580900,4.346580810546875,0.27916958928108215,-0.7448903918266296,-0.28821367025375366
1761315273150628000,4.356628173828125,0.19998236000537872,-0.758760929107666,-0.4235621988773346
1761315273160676000,4.366676025390625,0.10615865886211395,-0.7447580695152283,-0.4982691705226898
1761315273170723000,4.37672314453125,0.010778345167636871,-0.7156949639320374,-0.5360461473464966
1761315273180770000,4.38677001953125,-0.07533416897058487,-0.6795383095741272,-0.5362245440483093
1761315273190818000,4.396818115234375,-0.14493587613105774,-0.6205450296401978,-0.502249002456665
1761315273200865000,4.406864990234375,-0.19184879958629608,-0.5379063487052917,-0.4381136894226074
1761315273210912000,4.416912109375,-0.22293055057525635,-0.4142075777053833,-0.3458210527896881
1761315273220959000,4.426958984375,-0.23471637070178986,-0.24284273386001587,-0.22090548276901245
1761315273231007000,4.437007080078125,-0.23468734323978424,-0.04821067303419113,-0.08925797045230865
1761315273241054000,4.447053955078125,-0.23594674468040466,0.13969478011131287,0.024221716448664665
1761315273251101000,4.457100830078125,-0.22147752344608307,0.2778843343257904,0.09996388107538223
1761315273261149000,4.46714892578125,-0.19498227536678314,0.37221696972846985,0.13045094907283783
1761315273271196000,4.47719580078125,-0.1584884375333786,0.45225855708122253,0.12288224697113037
1761315273281243100,4.4872431640625,-0.1238364577293396,0.5000766515731812,0.08668136596679688
1761315273291291000,4.497290771484375,-0.09214963763952255,0.49816691875457764,0.03513588383793831
1761315273301337900,4.507337890625,-0.06812871992588043,0.45579496026039124,-0.018509767949581146
1761315273311384800,4.517384765625,-0.054364170879125595,0.38004958629608154,-0.05952431261539459
1761315273321433000,4.52743310546875,-0.04749561473727226,0.29517173767089844,-0.08217795938253403
1761315273331480000,4.53747998046875,-0.05750536918640137,0.21434904634952545,-0.08903240412473679
1761315273341527000,4.547527099609375,-0.0835161954164505,0.16021975874900818,-0.09054560959339142
1761315273351574000,4.557573974609375,-0.12040896713733673,0.09896892309188843,-0.1106274425983429
1761315273361622300,4.567622314453125,-0.16382621228694916,-0.008340488187968731,-0.17542721331119537
1761315273371669200,4.577669189453125,-0.21020197868347168,-0.15127234160900116,-0.28230518102645874
1761315273381716200,4.58771630859375,-0.233061745762825,-0.3096047341823578,-0.39273902773857117
1761315273391764500,4.597764404296875,-0.2423098385334015,-0.47049933671951294,-0.47521713376045227
1761315273401811500,4.6078115234375,-0.2539063096046448,-0.6201447248458862,-0.5108547210693359
1761315273411858400,4.6178583984375,-0.28769809007644653,-0.7380111813545227,-0.49366456270217896
1761315273421906400,4.627906494140625,-0.3196325898170471,-0.8028205633163452,-0.44957035779953003
1761315273431953400,4.637953369140625,-0.32241666316986084,-0.8087101578712463,-0.3924570083618164
1761315273442000400,4.64800048828125,-0.3079013526439667,-0.7692093253135681,-0.3277227282524109
1761315273452047400,4.65804736328125,-0.2829403579235077,-0.6610937714576721,-0.2454497069120407
1761315273462095400,4.668095458984375,-0.2714354991912842,-0.5160772204399109,-0.16241180896759033
1761315273472142300,4.678142333984375,-0.27282753586769104,-0.363423228263855,-0.08735035359859467
1761315273482189300,4.688189208984375,-0.28149718046188354,-0.24927933514118195,-0.02829022705554962
1761315273492237300,4.6982373046875,-0.29402682185173035,-0.18941199779510498,0.01960619166493416
1761315273502284300,4.7082841796875,-0.3096417486667633,-0.1688912808895111,0.06385514885187149
1761315273512331300,4.718331298828125,-0.3093711733818054,-0.1655394285917282,0.09803761541843414
1761315273522379500,4.728379638671875,-0.3083120286464691,-0.17401866614818573,0.1330893486738205
1761315273532426200,4.73842626953125,-0.2997009754180908,-0.18751557171344757,0.16212844848632812
1761315273542473200,4.74847314453125,-0.2894994616508484,-0.2003733068704605,0.17972129583358765
1761315273552520200,4.758520263671875,-0.27609309554100037,-0.2321120649576187,0.18973957002162933
1761315273562568400,4.768568359375,-0.25434359908103943,-0.27491599321365356,0.19047114253044128
1761315273572615400,4.778615478515625,-0.22227194905281067,-0.31385326385498047,0.1933247148990631
1761315273582662400,4.788662353515625,-0.17059943079948425,-0.3094574511051178,0.20471186935901642
1761315273592710100,4.798710205078125,-0.10893713682889938,-0.2991425096988678,0.23524260520935059
1761315273602757400,4.80875732421875,-0.0602811835706234,-0.3687093257904053,0.23975826799869537
1761315273612804400,4.818804443359375,-0.05260462313890457,-0.42602214217185974,0.2217840552330017
1761315273622852400,4.828852294921875,-0.07143263518810272,-0.3934682011604309,0.1812446266412735
1761315273632899300,4.8388994140625,-0.09675823152065277,-0.3389817774295807,0.12173175811767578
1761315273642946600,4.848946533203125,-0.13155855238437653,-0.31872206926345825,0.0470077209174633
1761315273652993500,4.85899365234375,-0.17575211822986603,-0.3115951716899872,-0.0234035924077034
1761315273663041300,4.869041259765625,-0.20773588120937347,-0.2829512655735016,-0.07262679934501648
1761315273673088300,4.879088134765625,-0.22351297736167908,-0.23835131525993347,-0.09798834472894669
1761315273683135200,4.88913525390625,-0.22857458889484406,-0.20571453869342804,-0.11568772047758102
1761315273693183500,4.89918359375,-0.22036112844944,-0.18216447532176971,-0.11887285858392715
1761315273703230500,4.90923046875,-0.20700643956661224,-0.16407442092895508,-0.12520799040794373
1761315273713277400,4.91927734375,-0.19345921277999878,-0.13968759775161743,-0.11955888569355011
1761315273723325200,4.9293251953125,-0.17761020362377167,-0.09108010679483414,-0.09325431287288666
1761315273733372400,4.939372314453125,-0.1603766232728958,-0.030063891783356667,-0.041548240929841995
1761315273743419400,4.94941943359375,-0.14222478866577148,0.034277547150850296,0.03292146325111389
1761315273753467400,4.95946728515625,-0.12424365431070328,0.08472979813814163,0.12303377687931061
1761315273763514400,4.969514404296875,-0.10111650079488754,0.1178818941116333,0.20922964811325073
1761315273773561600,4.9795615234375,-0.0628679096698761,0.11597587168216705,0.26189205050468445
1761315273783608300,4.9896083984375,-0.02935762144625187,0.07825778424739838,0.29508036375045776
1761315273793656300,4.99965625,0.0004247741890139878,-0.0008908273885026574,0.302716463804245
1761315273803703300,5.009703369140625,0.01582050882279873,-0.08332551270723343,0.31454649567604065
1761315273813750300,5.019750244140625,0.010430269874632359,-0.1318778693675995,0.3237333297729492
1761315273823798500,5.029798583984375,-0.021097294986248016,-0.15050987899303436,0.3198419213294983
1761315273833842200,5.03984228515625,-0.06181196868419647,-0.13719673454761505,0.31887173652648926
1761315273843890400,5.049890380859375,-0.11091479659080505,-0.09181514382362366,0.3175446689128876
1761315273853937400,5.0599375,-0.15589772164821625,-0.05041204020380974,0.30566778779029846
1761315273863984400,5.069984375,-0.17781206965446472,-0.031742483377456665,0.26081082224845886
1761315273874031400,5.08003125,-0.190360888838768,-0.030964041128754616,0.1801399439573288
1761315273884079400,5.090079345703125,-0.19185732305049896,-0.02208106778562069,0.06806746870279312
1761315273894126300,5.100126220703125,-0.18302148580551147,0.002897785510867834,-0.07108908891677856
1761315273904173300,5.11017333984375,-0.1708708107471466,0.025429725646972656,-0.2307618409395218
1761315273914221300,5.12022119140625,-0.16865479946136475,0.02900209091603756,-0.39689889550209045
1761315273924268300,5.130268310546875,-0.18529050052165985,0.05167225003242493,-0.5297977924346924
1761315273934315500,5.1403154296875,-0.22202134132385254,0.09814228117465973,-0.6415291428565979
1761315273944363300,5.15036328125,-0.26363351941108704,0.1256689727306366,-0.7346870303153992
1761315273954410200,5.16041015625,-0.2963957190513611,0.12834811210632324,-0.8099708557128906
1761315273964457200,5.170457275390625,-0.3002687394618988,0.1431792676448822,-0.8450157046318054
1761315273974504400,5.18050439453125,-0.2835363745689392,0.1789732128381729,-0.8407996296882629
1761315273984552400,5.190552490234375,-0.24304966628551483,0.24000540375709534,-0.795210063457489
1761315273994599400,5.200599365234375,-0.17279601097106934,0.3252164423465729,-0.7115649580955505
1761315274004646400,5.210646484375,-0.0893397331237793,0.39022552967071533,-0.6054015159606934
1761315274014694400,5.2206943359375,-0.0027419906109571457,0.42032697796821594,-0.4902951419353485
1761315274024741400,5.230741455078125,0.08231218159198761,0.42275577783584595,-0.36753833293914795
1761315274034788400,5.240788330078125,0.16326561570167542,0.3766804337501526,-0.26786553859710693
1761315274044836400,5.25083642578125,0.22432337701320648,0.29274478554725647,-0.18890148401260376
1761315274054883600,5.260883544921875,0.2686583697795868,0.19721107184886932,-0.11464295536279678
1761315274064930600,5.2709306640625,0.2874208688735962,0.12448067218065262,-0.038829952478408813
1761315274074977300,5.280977294921875,0.2715233862400055,0.07604150474071503,0.023447003215551376
1761315274085025300,5.291025390625,0.2346966564655304,0.03702406585216522,0.06665626168251038
1761315274095072300,5.301072265625,0.1894543468952179,0.0025662221014499664,0.07188617438077927
1761315274105119500,5.311119384765625,0.1441422551870346,-0.013497432693839073,0.048959020525217056
1761315274115167500,5.32116748046875,0.10141796618700027,0.010045710019767284,0.0005166532355360687
1761315274125214500,5.33121435546875,0.06444130837917328,0.040474988520145416,-0.055082160979509354
1761315274135261200,5.34126123046875,0.02785799652338028,0.06664640456438065,-0.11951041966676712
1761315274145309400,5.351309326171875,0.00818096473813057,0.07783061265945435,-0.17142528295516968
1761315274155356400,5.3613564453125,0.011592473834753036,0.07692274451255798,-0.20967227220535278
1761315274165403400,5.3714033203125,0.02690431848168373,0.06615611910820007,-0.24463824927806854
1761315274175450400,5.381450439453125,0.054315969347953796,0.042460110038518906,-0.2752555310726166
1761315274185498400,5.391498291015625,0.09044494479894638,0.031322237104177475,-0.2933269441127777
1761315274195545300,5.40154541015625,0.13916002213954926,0.038302913308143616,-0.29485613107681274
1761315274205592300,5.41159228515625,0.18149496614933014,0.04386332631111145,-0.2874829173088074
1761315274215640300,5.421640380859375,0.21615493297576904,0.05207172408699989,-0.26253893971443176
1761315274225687300,5.431687255859375,0.2554168403148651,0.07420019805431366,-0.2094685435295105
1761315274235734500,5.441734619140625,0.28702858090400696,0.08861561864614487,-0.15351338684558868
1761315274245782300,5.4517822265625,0.3064613938331604,0.0883042961359024,-0.0843907818198204
1761315274255829200,5.461829345703125,0.3215716481208801,0.09821205586194992,-0.003689010627567768
1761315274265876200,5.471876220703125,0.3355093002319336,0.10736879706382751,0.0801214650273323
1761315274275923200,5.481923095703125,0.3440471291542053,0.0856829434633255,0.15978273749351501
1761315274285971500,5.491971435546875,0.346465528011322,0.05416390299797058,0.2349643111228943
1761315274296018400,5.502018310546875,0.3402864634990692,0.027632426470518112,0.30291566252708435
1761315274306065400,5.5120654296875,0.3216853439807892,0.007675762753933668,0.3491199016571045
1761315274316113400,5.522113525390625,0.2965717613697052,-0.0032626385800540447,0.37619733810424805
1761315274326160400,5.532160400390625,0.26633742451667786,0.0002615224220789969,0.37242576479911804
1761315274336207400,5.542207275390625,0.22633619606494904,0.016261527314782143,0.3602045178413391
1761315274346255400,5.55225537109375,0.16993151605129242,0.06075682491064072,0.3465811312198639
1761315274356302300,5.56230224609375,0.10814191401004791,0.1474938541650772,0.33747389912605286
1761315274366349000,5.57234912109375,0.05186719074845314,0.24087093770503998,0.32835978269577026
1761315274376396000,5.58239599609375,0.005609150044620037,0.2521483600139618,0.3068523406982422
1761315274386444000,5.592444091796875,-0.0353180430829525,0.16519002616405487,0.24926042556762695
1761315274396491000,5.602490966796875,-0.07772142440080643,0.06375128030776978,0.18439780175685883
1761315274406538000,5.6125380859375,-0.10831848531961441,0.007694937754422426,0.11846379935741425
1761315274416586000,5.6225859375,-0.13019981980323792,-0.03464160114526749,0.04999525472521782
1761315274426633200,5.63263330078125,-0.1515333354473114,-0.09548870474100113,-0.020689832046628
1761315274436680200,5.64268017578125,-0.16345711052417755,-0.14087723195552826,-0.09880886971950531
1761315274446729000,5.65272900390625,-0.17408683896064758,-0.13886041939258575,-0.15743915736675262
1761315274456777200,5.662777099609375,-0.17252543568611145,-0.08221524208784103,-0.1937532275915146
1761315274466824000,5.672823974609375,-0.15457892417907715,0.017898838967084885,-0.18882744014263153
1761315274476871000,5.682870849609375,-0.13988307118415833,0.14405517280101776,-0.15336692333221436
1761315274486919000,5.6929189453125,-0.11344347149133682,0.2962612211704254,-0.07018574327230453
1761315274496966100,5.702966064453125,-0.08099498599767685,0.4338800609111786,0.040456611663103104
1761315274507013000,5.71301318359375,-0.037934865802526474,0.515474796295166,0.15846580266952515
1761315274517061000,5.72306103515625,0.021921543404459953,0.5182162523269653,0.2767066955566406
1761315274527107800,5.73310791015625,0.08655619621276855,0.45997291803359985,0.40192002058029175
1761315274537154800,5.74315478515625,0.16374285519123077,0.3486115038394928,0.5220053791999817
1761315274547202000,5.7532021484375,0.2341267466545105,0.22171588242053986,0.6388795375823975
1761315274557250000,5.76325,0.28941717743873596,0.09554623067378998,0.7374026775360107
1761315274567297000,5.773297119140625,0.3158458471298218,-0.017587782815098763,0.8110350966453552
1761315274577344000,5.783343994140625,0.3205929398536682,-0.07555068284273148,0.8679342865943909
1761315274587392000,5.79339208984375,0.3090992569923401,-0.08815329521894455,0.9066521525382996
1761315274597439000,5.80343896484375,0.29983916878700256,-0.08578041940927505,0.9184883236885071
1761315274607486000,5.81348583984375,0.2847936451435089,-0.06687810271978378,0.8934172987937927
1761315274617534000,5.823533935546875,0.2845694124698639,-0.05007248744368553,0.8357566595077515
1761315274627581200,5.833581298828125,0.30190205574035645,-0.05414872244000435,0.7389712929725647
1761315274637628200,5.843628173828125,0.34817448258399963,-0.09291289746761322,0.6204142570495605
1761315274647675100,5.853675048828125,0.4108109772205353,-0.15297463536262512,0.49527791142463684
1761315274657723000,5.863722900390625,0.4537123739719391,-0.23136265575885773,0.37449610233306885
1761315274667770000,5.87377001953125,0.46061819791793823,-0.30582571029663086,0.2514468729496002
1761315274677817000,5.883817138671875,0.43955767154693604,-0.3816054165363312,0.11704113334417343
1761315274687865000,5.893864990234375,0.39837053418159485,-0.45443034172058105,-0.0554901584982872
1761315274697912000,5.903912109375,0.3318037688732147,-0.5308287143707275,-0.268123596906662
1761315274707959000,5.913958984375,0.249184250831604,-0.5982053875923157,-0.49111273884773254
1761315274718007000,5.924007080078125,0.15177328884601593,-0.6472315192222595,-0.6769430637359619
1761315274728054000,5.934053955078125,0.04291098192334175,-0.6703429222106934,-0.7960465550422668
1761315274738101000,5.94410107421875,-0.06787066161632538,-0.6195980310440063,-0.8145080804824829
1761315274748148000,5.95414794921875,-0.17385941743850708,-0.4508548080921173,-0.7533685564994812
1761315274758196200,5.9641962890625,-0.2558213770389557,-0.19503234326839447,-0.6377493143081665
1761315274768243200,5.9742431640625,-0.29215195775032043,0.07446997612714767,-0.502470850944519
1761315274778290000,5.9842900390625,-0.2694426476955414,0.3489183187484741,-0.3529207706451416
1761315274788338000,5.994337890625,-0.2054990977048874,0.5854304432868958,-0.21817654371261597
1761315274798385200,6.00438525390625,-0.11071959137916565,0.7203730940818787,-0.10409071296453476
1761315274808432000,6.01443212890625,-0.014405570924282074,0.7633064389228821,-0.029918484389781952
1761315274818480000,6.024480224609375,0.0674903616309166,0.740526556968689,0.023121031001210213
1761315274828526800,6.03452685546875,0.11817830801010132,0.6572369933128357,0.05872775986790657
1761315274838573800,6.04457373046875,0.13688035309314728,0.5396818518638611,0.08860576897859573
1761315274848621000,6.05462109375,0.12608923017978668,0.40452298521995544,0.10544173419475555
1761315274858669000,6.0646689453125,0.09706556051969528,0.2501022517681122,0.09768128395080566
1761315274868716000,6.074716064453125,0.0623461976647377,0.08236917853355408,0.08369196951389313
1761315274878763000,6.084762939453125,0.03446636348962784,-0.0555892251431942,0.0549178421497345
1761315274888811000,6.09481103515625,0.00279019377194345,-0.14987711608409882,0.016349146142601967
1761315274898858000,6.10485791015625,-0.027714451774954796,-0.22728562355041504,-0.025896579027175903
1761315274908905000,6.114905029296875,-0.05813680589199066,-0.29121479392051697,-0.07456637918949127
1761315274918953000,6.124952880859375,-0.08611943572759628,-0.34424498677253723,-0.13029062747955322
1761315274929000200,6.135000244140625,-0.11058349907398224,-0.37546148896217346,-0.1808059960603714
1761315274939047200,6.145047119140625,-0.14153581857681274,-0.3760625720024109,-0.2189113050699234
1761315274949094100,6.15509423828125,-0.17490869760513306,-0.3752402067184448,-0.2619554400444031
1761315274959142000,6.165141845703125,-0.20386524498462677,-0.3678605854511261,-0.29300791025161743
1761315274969188900,6.17518896484375,-0.23221538960933685,-0.3592364490032196,-0.323974609375
1761315274979236000,6.185236083984375,-0.25991731882095337,-0.3575749099254608,-0.3414073884487152
1761315274989284000,6.1952841796875,-0.29335305094718933,-0.3744729459285736,-0.34453076124191284
1761315274999331000,6.2053310546875,-0.3356427252292633,-0.4058825373649597,-0.3180168569087982
1761315275009378000,6.2153779296875,-0.3826690912246704,-0.3957744836807251,-0.2552400231361389
1761315275019426000,6.225426025390625,-0.4353877007961273,-0.37412700057029724,-0.1859126091003418
1761315275029473000,6.23547314453125,-0.4839693307876587,-0.3505215346813202,-0.11781717836856842
1761315275039520000,6.24552001953125,-0.525262176990509,-0.3142503499984741,-0.05976799130439758
1761315275049567000,6.25556689453125,-0.5495339632034302,-0.27001336216926575,-0.02430400811135769
1761315275059615200,6.265615234375,-0.5520695447921753,-0.21828998625278473,0.0023276028223335743
1761315275069662200,6.275662109375,-0.5491275787353516,-0.1791796088218689,0.018018148839473724
1761315275079709000,6.285708984375,-0.532963216304779,-0.1366579830646515,0.0314500667154789
1761315275089757000,6.2957568359375,-0.5058871507644653,-0.08578361570835114,0.050707120448350906
1761315275099804000,6.305803955078125,-0.4720410406589508,-0.056347694247961044,0.06982115656137466
1761315275109851100,6.31585107421875,-0.43641939759254456,-0.10413865000009537,0.07529155910015106
1761315275119899100,6.325899169921875,-0.42544159293174744,-0.17308443784713745,0.06893991678953171
1761315275129946000,6.335946044921875,-0.4181045591831207,-0.2102605551481247,0.05807581916451454
1761315275139992800,6.345992919921875,-0.4216462969779968,-0.26563113927841187,0.0325707271695137
1761315275150039800,6.356039794921875,-0.4472091794013977,-0.35367551445961,-0.022400114685297012
1761315275160088000,6.366088134765625,-0.4680481553077698,-0.41135185956954956,-0.08816021680831909
1761315275170135000,6.376135009765625,-0.48153015971183777,-0.46161583065986633,-0.1509879231452942
1761315275180182000,6.38618212890625,-0.4833672046661377,-0.5010111927986145,-0.1986774057149887
1761315275190230000,6.39622998046875,-0.4806838035583496,-0.5245300531387329,-0.21774990856647491
1761315275200277000,6.406277099609375,-0.48611611127853394,-0.5102158784866333,-0.22221682965755463
1761315275210324000,6.416323974609375,-0.4950273036956787,-0.46543774008750916,-0.21696853637695312
1761315275220372000,6.4263720703125,-0.4947511553764343,-0.3788793981075287,-0.2175070196390152
1761315275230419000,6.4364189453125,-0.48204201459884644,-0.2523435652256012,-0.24111860990524292
1761315275240466200,6.446466064453125,-0.47065165638923645,-0.12132536619901657,-0.29220762848854065
1761315275250513200,6.45651318359375,-0.46221691370010376,-0.012552543543279171,-0.3492858111858368
1761315275260561000,6.466560791015625,-0.45324206352233887,0.06378749758005142,-0.38700658082962036
1761315275270608000,6.47660791015625,-0.4621039927005768,0.11960282921791077,-0.39532095193862915
1761315275280655000,6.486655029296875,-0.4637008309364319,0.1511751413345337,-0.3592521846294403
1761315275290703000,6.496703125,-0.4587518572807312,0.15277808904647827,-0.2605069577693939
1761315275300750000,6.50675,-0.43873342871665955,0.1356332004070282,-0.10859518498182297
1761315275310797000,6.516797119140625,-0.4210822582244873,0.11145861446857452,0.06942807883024216
1761315275320845000,6.526844970703125,-0.3982648253440857,0.050215501338243484,0.24345393478870392
1761315275330892000,6.53689208984375,-0.3864539563655853,-0.04914970323443413,0.4006241261959076
1761315275340939000,6.54693896484375,-0.3796256184577942,-0.15095356106758118,0.519879937171936
1761315275350986000,6.556986083984375,-0.384306937456131,-0.22222800552845,0.5977832674980164
1761315275361034000,6.567033935546875,-0.40264570713043213,-0.260686993598938,0.6142450571060181
1761315275371081000,6.5770810546875,-0.43344810605049133,-0.2506311535835266,0.5649014711380005
1761315275381128000,6.5871279296875,-0.4580647647380829,-0.1977250576019287,0.4579766094684601
1761315275391176000,6.597176025390625,-0.4927319288253784,-0.1275198757648468,0.2965850532054901
1761315275401223000,6.607222900390625,-0.5334433913230896,-0.0724816545844078,0.11454202234745026
1761315275411270000,6.617269775390625,-0.5895205140113831,-0.03942650184035301,-0.09967253357172012
1761315275421318000,6.62731787109375,-0.6596662998199463,-0.050460778176784515,-0.32602444291114807
1761315275431365000,6.637365234375,-0.7346785068511963,-0.10367632657289505,-0.5558658838272095
1761315275441412000,6.647412109375,-0.8038495779037476,-0.15132294595241547,-0.7561907172203064
1761315275451458800,6.657458740234375,-0.8718499541282654,-0.18906418979167938,-0.9199666380882263
1761315275461506800,6.6675068359375,-0.9305444359779358,-0.2245177924633026,-1.0434616804122925
1761315275471553800,6.6775537109375,-0.9571917653083801,-0.2314462810754776,-1.0995960235595703
1761315275481601000,6.68760107421875,-0.9468986392021179,-0.2060769945383072,-1.062268614768982
1761315275491649000,6.69764892578125,-0.8917999863624573,-0.1300448179244995,-0.9260801672935486
1761315275501695700,6.70769580078125,-0.809490978717804,-0.014927550218999386,-0.7152696847915649
1761315275511742700,6.71774267578125,-0.6928503513336182,0.09159702807664871,-0.47833648324012756
1761315275521791000,6.727791015625,-0.5398349761962891,0.18335171043872833,-0.2572019696235657
1761315275531838000,6.737837890625,-0.34501197934150696,0.2449202686548233,-0.08343923091888428
1761315275541885000,6.747885009765625,-0.14751622080802917,0.25619742274284363,0.017657024785876274
1761315275551932000,6.757931884765625,0.032940372824668884,0.18136925995349884,0.06339308619499207
1761315275561980000,6.76797998046875,0.1686910092830658,0.07799439877271652,0.09519149363040924
1761315275572027000,6.77802685546875,0.2457037717103958,-0.01985386572778225,0.12178982049226761
1761315275582073900,6.788073974609375,0.2763815224170685,-0.12832307815551758,0.1421177238225937
1761315275592121900,6.798121826171875,0.25986647605895996,-0.22416599094867706,0.1609361618757248
1761315275602168800,6.8081689453125,0.20469295978546143,-0.2733132839202881,0.17658941447734833
1761315275612216000,6.818216064453125,0.13426007330417633,-0.2984756529331207,0.18546174466609955
1761315275622263800,6.828263916015625,0.04729986935853958,-0.29787829518318176,0.16825984418392181
1761315275632310800,6.838310791015625,-0.030189327895641327,-0.2903202474117279,0.11679612100124359
1761315275642357800,6.848357666015625,-0.09352302551269531,-0.2677361071109772,0.05480412766337395
1761315275652405000,6.858405029296875,-0.14328205585479736,-0.2220466434955597,-0.009158344939351082
1761315275662453000,6.868452880859375,-0.1705871820449829,-0.17845922708511353,-0.07988258451223373
1761315275672500000,6.8785,-0.16901777684688568,-0.12489772588014603,-0.15755394101142883
1761315275682547000,6.888546875,-0.14475877583026886,-0.05422994866967201,-0.2290124148130417
1761315275692595000,6.898594970703125,-0.09177839010953903,0.017411215230822563,-0.28901341557502747
1761315275702642000,6.908641845703125,-0.034438133239746094,0.07870173454284668,-0.3306679427623749
1761315275712689000,6.91868896484375,0.01938594877719879,0.12301407009363174,-0.3384387791156769
1761315275722737000,6.92873681640625,0.060565609484910965,0.1472616195678711,-0.3089091181755066
1761315275732783900,6.938783935546875,0.08464351296424866,0.1750037670135498,-0.237283393740654
1761315275742831000,6.9488310546875,0.09393421560525894,0.2109159678220749,-0.13490216434001923
1761315275752877800,6.9588779296875,0.09067530930042267,0.23306573927402496,-0.042807117104530334
1761315275762925800,6.96892578125,0.10077907145023346,0.21943062543869019,0.03392680734395981
1761315275772972800,6.978972900390625,0.12319330126047134,0.1954967975616455,0.08731892704963684
1761315275783020000,6.98902001953125,0.14176219701766968,0.15467026829719543,0.11620889604091644
1761315275793068000,6.999068115234375,0.15262070298194885,0.09345564991235733,0.12878115475177765
1761315275803115000,7.009114990234375,0.1487005203962326,0.030653249472379684,0.14093288779258728
1761315275813161700,7.01916162109375,0.1388404369354248,-0.025347433984279633,0.16103282570838928
1761315275823210000,7.0292099609375,0.12567856907844543,-0.07483189553022385,0.18943384289741516
1761315275833257000,7.039257080078125,0.11012836545705795,-0.09435979276895523,0.2406379133462906
1761315275843304000,7.049303955078125,0.09477311372756958,-0.0878710001707077,0.30867502093315125
1761315275853351000,7.059350830078125,0.07556559890508652,-0.05868062376976013,0.37606391310691833
1761315275863399000,7.06939892578125,0.04864050820469856,-0.01902429200708866,0.4168984293937683
1761315275873446000,7.07944580078125,0.0294958408921957,0.0008490157779306173,0.4252769947052002
1761315275883492900,7.089492919921875,0.02088690549135208,0.023138076066970825,0.4090690016746521
1761315275893540900,7.099540771484375,0.007334345486015081,0.043413788080215454,0.3802304267883301
1761315275903587800,7.109587890625,-0.008222776465117931,0.07591313868761063,0.3463347852230072
1761315275913635000,7.119635009765625,-0.021803565323352814,0.11576441675424576,0.3249181807041168
1761315275923682800,7.129682861328125,-0.021454425528645515,0.16454048454761505,0.3179420232772827
1761315275933729800,7.139729736328125,-0.012911804020404816,0.21581192314624786,0.3206951916217804
1761315275943776800,7.14977685546875,0.007719438523054123,0.20035067200660706,0.3094835579395294
1761315275953823700,7.15982373046875,0.0389292910695076,0.14529408514499664,0.27211007475852966
1761315275963872000,7.1698720703125,0.07847190648317337,0.09092910587787628,0.22317396104335785
1761315275973919000,7.1799189453125,0.11285518109798431,0.0486021563410759,0.16807343065738678
1761315275983966000,7.189966064453125,0.12132696062326431,-0.007626760751008987,0.10261612385511398
1761315275994013700,7.200013671875,0.12157516926527023,-0.062061239033937454,0.029508091509342194
1761315276004061000,7.21006103515625,0.11824275553226471,-0.11105860769748688,-0.047985367476940155
1761315276014108000,7.22010791015625,0.10638369619846344,-0.15908072888851166,-0.10734669864177704
1761315276024155000,7.23015478515625,0.0979798287153244,-0.16813015937805176,-0.14647093415260315
1761315276034203000,7.240202880859375,0.08901376277208328,-0.11521367728710175,-0.13487020134925842
1761315276044250000,7.25025,0.0845833271741867,-0.004598480183631182,-0.08367811888456345
1761315276054297000,7.260297119140625,0.08816581219434738,0.13864576816558838,-0.0012812467757612467
1761315276064344800,7.2703447265625,0.11906726658344269,0.2555449604988098,0.08893013745546341
1761315276074391800,7.280391845703125,0.15874171257019043,0.3312026858329773,0.1765337586402893
1761315276084438800,7.290438720703125,0.20109795033931732,0.36436358094215393,0.2641048729419708
1761315276094487000,7.300487060546875,0.24539858102798462,0.36438995599746704,0.3382595479488373
1761315276104534000,7.310533935546875,0.27978238463401794,0.33415135741233826,0.41022375226020813
1761315276114581000,7.3205810546875,0.306302934885025,0.2908158600330353,0.4682774543762207
1761315276124627700,7.330627685546875,0.3176610469818115,0.23500105738639832,0.5279000401496887
1761315276134676000,7.340676025390625,0.31750231981277466,0.17937295138835907,0.5827526450157166
1761315276144723000,7.350722900390625,0.30160433053970337,0.1364627629518509,0.6143132448196411
1761315276154770000,7.36077001953125,0.2869065999984741,0.09454621374607086,0.6280876398086548
1761315276164818000,7.37081787109375,0.2763516902923584,0.04741012677550316,0.6102979779243469
1761315276174865000,7.380864990234375,0.2686181366443634,-0.008325307630002499,0.5678631663322449
1761315276184912000,7.390911865234375,0.25764724612236023,-0.06251690536737442,0.5010479092597961
1761315276194960000,7.4009599609375,0.2523646056652069,-0.11555855721235275,0.41083627939224243
1761315276205006800,7.4110068359375,0.2564150094985962,-0.18887057900428772,0.2956116795539856
1761315276215053800,7.4210537109375,0.27184590697288513,-0.27230075001716614,0.1620139330625534
1761315276225101000,7.43110107421875,0.2875681221485138,-0.3544691205024719,0.022718096151947975
1761315276235148800,7.441148681640625,0.2717830538749695,-0.4279817044734955,-0.11439049243927002
1761315276245195800,7.45119580078125,0.22482645511627197,-0.4750189781188965,-0.2340915948152542
1761315276255242800,7.46124267578125,0.15278342366218567,-0.4971652925014496,-0.3337468206882477
1761315276265291000,7.471291015625,0.07080040127038956,-0.4944768249988556,-0.4094567596912384
1761315276275338000,7.481337890625,-0.008463259786367416,-0.4831852912902832,-0.4731694161891937
1761315276285385000,7.491385009765625,-0.07120387256145477,-0.43500685691833496,-0.49969983100891113
1761315276295432700,7.5014326171875,-0.11221814900636673,-0.3189105987548828,-0.47451165318489075
1761315276305480000,7.51147998046875,-0.1276426464319229,-0.15697124600410461,-0.40082091093063354
1761315276315527000,7.52152685546875,-0.11402404308319092,0.034623224288225174,-0.30505311489105225
1761315276325574000,7.531573974609375,-0.06882167607545853,0.21921011805534363,-0.19409491121768951
1761315276335622000,7.541621826171875,-0.0037705034483224154,0.3586446940898895,-0.10138467699289322
1761315276345668900,7.5516689453125,0.05353353172540665,0.4582594335079193,-0.04376692324876785
1761315276355716000,7.561716064453125,0.0790114626288414,0.5323206186294556,-0.03135499358177185
1761315276365763800,7.571763916015625,0.0744907483458519,0.5649957656860352,-0.07242466509342194
1761315276375811000,7.58181103515625,0.03555852547287941,0.5807086825370789,-0.13750353455543518
1761315276385858000,7.591858154296875,-0.030050577595829964,0.595879077911377,-0.231831893324852
1761315276395906000,7.601906005859375,-0.12237491458654404,0.6124064326286316,-0.372129887342453
1761315276405953000,7.611953125,-0.20342741906642914,0.6136013865470886,-0.5515158772468567
1761315276416000000,7.622,-0.2542213499546051,0.5700730681419373,-0.7440198063850403
1761315276426047000,7.632046875,-0.2572469711303711,0.5373827815055847,-0.8875008225440979
1761315276436095000,7.642094970703125,-0.2204335629940033,0.5160255432128906,-0.9618469476699829
1761315276446142000,7.652141845703125,-0.16882815957069397,0.43892917037010193,-0.9542505741119385
1761315276456189000,7.66218896484375,-0.11944543570280075,0.3782767355442047,-0.8627943992614746
1761315276466237200,7.6722373046875,-0.08639640361070633,0.3456452786922455,-0.6878942251205444
1761315276476284000,7.682283935546875,-0.051361456513404846,0.3182951509952545,-0.4656025767326355
1761315276486331000,7.692330810546875,-0.027281954884529114,0.29684633016586304,-0.2205323725938797
1761315276496379000,7.70237890625,-0.02864868938922882,0.24605344235897064,-0.003329217666760087
1761315276506426000,7.712426025390625,-0.055688295513391495,0.17385701835155487,0.16484300792217255
1761315276516473000,7.72247314453125,-0.10106988996267319,0.05817169323563576,0.25837695598602295
1761315276526520000,7.73252001953125,-0.13727717101573944,-0.08090843260288239,0.27439162135124207
1761315276536567800,7.74256787109375,-0.1597513109445572,-0.24355512857437134,0.2442225217819214
1761315276546614800,7.75261474609375,-0.1732383668422699,-0.3780607581138611,0.22835807502269745
1761315276556662000,7.762662109375,-0.17334888875484467,-0.4465450048446655,0.24336205422878265
1761315276566710000,7.7727099609375,-0.16147170960903168,-0.4514683783054352,0.27864575386047363
1761315276576757000,7.782757080078125,-0.12920299172401428,-0.40505269169807434,0.32930225133895874
1761315276586804000,7.792803955078125,-0.08809097856283188,-0.3163931369781494,0.3737882375717163
1761315276596851000,7.802850830078125,-0.05224136635661125,-0.24175404012203217,0.3944477140903473
1761315276606899000,7.81289892578125,-0.03320136293768883,-0.19776687026023865,0.37361034750938416
1761315276616946000,7.82294580078125,-0.03885312378406525,-0.17660991847515106,0.3308660686016083
1761315276626993000,7.832992919921875,-0.05854054167866707,-0.1591622233390808,0.267711877822876
1761315276637041200,7.843041259765625,-0.06655266135931015,-0.18899761140346527,0.19963747262954712
1761315276647088000,7.853088134765625,-0.07033621519804001,-0.28051847219467163,0.1540614664554596
1761315276657135000,7.863135009765625,-0.0628490000963211,-0.419354110956192,0.15053385496139526
1761315276667182800,7.873182861328125,-0.07019693404436111,-0.5579208135604858,0.21872861683368683
1761315276677229800,7.883229736328125,-0.08767179399728775,-0.6416463255882263,0.3262007534503937
1761315276687277000,7.893277099609375,-0.11594498157501221,-0.6751320958137512,0.4421566426753998
1761315276697324000,7.903323974609375,-0.12339223921298981,-0.7009991407394409,0.5455703735351562
1761315276707372000,7.9133720703125,-0.1077275276184082,-0.7063680291175842,0.623299777507782
1761315276717419000,7.9234189453125,-0.09915268421173096,-0.7094040513038635,0.6550228595733643
1761315276727466000,7.933466064453125,-0.10864552110433578,-0.740301251411438,0.622685432434082
1761315276737514000,7.943513916015625,-0.16527125239372253,-0.7433614730834961,0.5351081490516663
1761315276747561000,7.95356103515625,-0.24934963881969452,-0.7001200318336487,0.4077802896499634
1761315276757608000,7.96360791015625,-0.33973413705825806,-0.6483875513076782,0.2342308759689331
1761315276767656200,7.97365625,-0.407475084066391,-0.6189503073692322,0.02238466776907444
1761315276777703200,7.983703125,-0.43779999017715454,-0.5759741067886353,-0.1832481175661087
1761315276787750000,7.99375,-0.4494965672492981,-0.4967764914035797,-0.35635384917259216
1761315276797796900,8.003796875,-0.4301835894584656,-0.39078107476234436,-0.47571247816085815
1761315276807844900,8.013844970703126,-0.4129670560359955,-0.24847745895385742,-0.5159128904342651
1761315276817892000,8.02389208984375,-0.39738625288009644,-0.07794513553380966,-0.5015565752983093
1761315276827939000,8.03393896484375,-0.37406042218208313,0.09812790155410767,-0.4372740089893341
1761315276837987000,8.043987060546876,-0.36307114362716675,0.24052844941616058,-0.33841532468795776
1761315276848033800,8.05403369140625,-0.37355920672416687,0.3156386613845825,-0.23360583186149597
1761315276858081000,8.0640810546875,-0.4007048010826111,0.31435874104499817,-0.1365533173084259
1761315276868129000,8.07412890625,-0.43345344066619873,0.2713790535926819,-0.05127783492207527
1761315276878176000,8.084176025390626,-0.4519333839416504,0.2067537158727646,0.01600373350083828
1761315276888223000,8.094222900390625,-0.4820933938026428,0.12240394204854965,0.07045365869998932
1761315276898270000,8.10427001953125,-0.5066387057304382,0.06233048439025879,0.13154630362987518
1761315276908318000,8.11431787109375,-0.5171251893043518,0.05741295963525772,0.2361864298582077
1761315276918365000,8.124364990234374,-0.5154455304145813,0.10253889113664627,0.37822425365448
1761315276928412000,8.134411865234375,-0.5140817165374756,0.18586254119873047,0.5308524370193481
1761315276938460000,8.1444599609375,-0.5170660614967346,0.27471864223480225,0.6655377745628357
1761315276948507100,8.154507080078124,-0.5137988924980164,0.35003310441970825,0.7771223783493042
1761315276958554000,8.16455419921875,-0.49849367141723633,0.4125273823738098,0.8695663213729858
1761315276968601000,8.17460107421875,-0.4692383408546448,0.4251323938369751,0.937250554561615
1761315276978648800,8.18464892578125,-0.4455125033855438,0.3661971688270569,0.9522933959960938
1761315276988696000,8.194696044921875,-0.4324185252189636,0.24482998251914978,0.9455580115318298
1761315276998743000,8.204742919921875,-0.4657261371612549,0.09515607357025146,0.9165349006652832
1761315277008791000,8.214791015625,-0.5351006984710693,-0.08586963266134262,0.8478519320487976
1761315277018838000,8.224838134765625,-0.612679123878479,-0.26678988337516785,0.7382404804229736
1761315277028885000,8.234885009765625,-0.6550979614257812,-0.4199591875076294,0.6175665259361267
1761315277038933000,8.24493310546875,-0.6631654500961304,-0.5256685614585876,0.4916869103908539
1761315277048980000,8.25497998046875,-0.6461017727851868,-0.5632686614990234,0.3755118250846863
1761315277059027000,8.26502685546875,-0.6222448945045471,-0.5495515465736389,0.248304083943367
1761315277069074000,8.275073974609375,-0.6059240102767944,-0.5188540816307068,0.11160695552825928
1761315277079122200,8.2851220703125,-0.5763019323348999,-0.48669588565826416,-0.010819357819855213
1761315277089169200,8.295169189453125,-0.5504602193832397,-0.44958019256591797,-0.11683260649442673
1761315277099216000,8.3052158203125,-0.5287812948226929,-0.40047523379325867,-0.19670987129211426
1761315277109264000,8.315263916015626,-0.5246542096138,-0.3342978060245514,-0.2536136209964752
1761315277119311000,8.32531103515625,-0.5237862467765808,-0.25390177965164185,-0.2931727468967438
1761315277129358000,8.335358154296875,-0.5102840065956116,-0.14368446171283722,-0.3201518952846527
1761315277139406000,8.345406005859376,-0.4650883376598358,-0.019711652770638466,-0.34330248832702637
1761315277149452800,8.355452880859374,-0.39356061816215515,0.12214774638414383,-0.34640854597091675
1761315277159499800,8.365499755859375,-0.28358379006385803,0.25192758440971375,-0.324127733707428
1761315277169547000,8.375547119140625,-0.18479540944099426,0.3306562006473541,-0.2758994996547699
1761315277179595000,8.385594970703124,-0.10762659460306168,0.31901898980140686,-0.20543597638607025
1761315277189642000,8.39564208984375,-0.05285309627652168,0.26261937618255615,-0.1282796710729599
1761315277199689000,8.40568896484375,-0.01061882171779871,0.20033016800880432,-0.059508066624403
1761315277209737000,8.415737060546874,0.031135547906160355,0.15285000205039978,-0.010867827571928501
1761315277219784000,8.425783935546875,0.06590843945741653,0.09533770382404327,-0.01181937474757433
1761315277229831000,8.435830810546875,0.09225083142518997,0.0037497307639569044,-0.0365191288292408
1761315277239878000,8.4458779296875,0.09102125465869904,-0.1169109046459198,-0.07620661705732346
1761315277249926100,8.455926025390625,0.06883658468723297,-0.24783749878406525,-0.10067228227853775
1761315277259973000,8.46597314453125,0.014377341605722904,-0.3616258502006531,-0.1215786263346672
1761315277270020000,8.47602001953125,-0.051408860832452774,-0.4464896023273468,-0.14172624051570892
1761315277280067800,8.48606787109375,-0.0993414968252182,-0.4897286891937256,-0.15355706214904785
1761315277290114800,8.49611474609375,-0.12810629606246948,-0.4751366972923279,-0.1689048707485199
1761315277300162000,8.506162109375,-0.13364115357398987,-0.3937284052371979,-0.18766337633132935
1761315277310210000,8.5162099609375,-0.11655910313129425,-0.26305079460144043,-0.21931476891040802
1761315277320257000,8.526257080078125,-0.08358650654554367,-0.13655544817447662,-0.25417661666870117
1761315277330304000,8.536303955078125,-0.055268581956624985,-0.01366494596004486,-0.27370452880859375
1761315277340351200,8.546351318359376,-0.02592693828046322,0.10342679172754288,-0.27815118432044983
1761315277350399000,8.55639892578125,-0.007237939164042473,0.21161504089832306,-0.26841893792152405
1761315277360446000,8.566446044921875,0.015728097409009933,0.27798953652381897,-0.2546921968460083
1761315277370496800,8.576496826171875,0.03941771388053894,0.2866368293762207,-0.2436017394065857
1761315277380544800,8.586544677734375,0.05663345009088516,0.24338975548744202,-0.2299881875514984
1761315277390591700,8.596591796875,0.05209089815616608,0.16454394161701202,-0.1967380940914154
1761315277400638700,8.606638671875,0.028308870270848274,0.11531727015972137,-0.13792698085308075
1761315277410685700,8.616685791015625,0.002590989461168647,0.12019698321819305,-0.04903145879507065
1761315277420733700,8.626733642578126,-0.0018732674652710557,0.1675245463848114,0.03130412846803665
1761315277430780700,8.63678076171875,0.012003133073449135,0.21508701145648956,0.08223681896924973
1761315277440828000,8.646827880859375,0.03139813616871834,0.2620270848274231,0.10213222354650497
1761315277450875600,8.656875732421875,0.03774524852633476,0.3352302014827728,0.08872214704751968
1761315277460922600,8.666922607421874,0.04084783047437668,0.45393314957618713,0.06754868477582932
1761315277470969600,8.676969482421875,0.0657060444355011,0.6249850392341614,0.07522737234830856
1761315277481017900,8.687017822265625,0.06294833868741989,0.7319173812866211,0.18891026079654694
1761315277491064800,8.69706494140625,0.10539832711219788,0.45766183733940125,0.192939892411232
1761315277501111800,8.70711181640625,0.1939026266336441,0.11993705481290817,0.12326494604349136
1761315277511158800,8.71715869140625,0.2910004258155823,-0.09635236859321594,0.042930688709020615
1761315277521206800,8.727206787109376,0.3220938742160797,-0.21142862737178802,-0.04529611021280289
1761315277531253800,8.737253662109374,0.2664937376976013,-0.2241835743188858,-0.1231863796710968
1761315277541300700,8.74730078125,0.17513665556907654,-0.16829660534858704,-0.1867387294769287
1761315277551348700,8.7573486328125,0.06107427179813385,-0.1484142392873764,-0.1992209553718567
1761315277561395700,8.767395751953124,0.0017212009988725185,-0.12392833828926086,-0.13523158431053162
1761315277571443000,8.77744287109375,-0.01079565566033125,-0.02863643877208233,-0.027367442846298218
