time,seconds_elapsed,z,y,x
1761315820469234000,0.06123388671875,-0.9853515625,-0.002777099609375,-0.0150299072265625
1761315820479284000,0.071283935546875,-0.984649658203125,-0.001708984375,-0.014801025390625
1761315820489326800,0.081326904296875,-0.9857177734375,-0.001953125,-0.01641845703125
1761315820499375000,0.091375,-0.9846649169921875,-0.002716064453125,-0.01690673828125
1761315820509422000,0.101422119140625,-0.9841461181640625,-0.00238037109375,-0.0163726806640625
1761315820519469000,0.111468994140625,-0.98455810546875,-0.0014801025390625,-0.0151824951171875
1761315820529516000,0.12151611328125,-0.9850311279296875,-0.001983642578125,-0.0158843994140625
1761315820539563000,0.13156298828125,-0.9853973388671875,-0.0024566650390625,-0.015777587890625
1761315820549610200,0.1416103515625,-0.98638916015625,-0.0023956298828125,-0.0147857666015625
1761315820559657200,0.1516572265625,-0.985809326171875,-0.00250244140625,-0.0154571533203125
1761315820569704000,0.161703857421875,-0.9852142333984375,-0.002105712890625,-0.0156402587890625
1761315820579751000,0.1717509765625,-0.984283447265625,-0.0021514892578125,-0.015380859375
1761315820589799000,0.181798828125,-0.9852294921875,-0.002044677734375,-0.0161895751953125
1761315820599846100,0.19184619140625,-0.9859619140625,-0.002960205078125,-0.01617431640625
1761315820609893000,0.20189306640625,-0.9857940673828125,-0.003082275390625,-0.0158538818359375
1761315820619940000,0.211940185546875,-0.985137939453125,-0.0022430419921875,-0.0153961181640625
1761315820629987000,0.221987060546875,-0.9857177734375,-0.0016937255859375,-0.0154571533203125
1761315820640034000,0.232033935546875,-0.98486328125,-0.0019989013671875,-0.0158538818359375
1761315820650081300,0.242081298828125,-0.9854278564453125,-0.001861572265625,-0.015716552734375
1761315820660128000,0.2521279296875,-0.985076904296875,-0.0030517578125,-0.01513671875
1761315820670175000,0.262175048828125,-0.9843902587890625,-0.0027313232421875,-0.0153350830078125
1761315820680223000,0.272222900390625,-0.98486328125,-0.0023956298828125,-0.0162200927734375
1761315820690270000,0.28227001953125,-0.986083984375,-0.0021209716796875,-0.0160980224609375
1761315820700317200,0.292317138671875,-0.985504150390625,-0.0020294189453125,-0.015899658203125
1761315820710364200,0.3023642578125,-0.9860382080078125,-0.0020904541015625,-0.0155792236328125
1761315820720411100,0.3124111328125,-0.9850311279296875,-0.001678466796875,-0.01544189453125
1761315820730458000,0.3224580078125,-0.9860687255859375,-0.0018463134765625,-0.0155029296875
1761315820740505000,0.332505126953125,-0.9853973388671875,-0.0023345947265625,-0.015716552734375
1761315820750552000,0.342552001953125,-0.9852294921875,-0.001983642578125,-0.0156097412109375
1761315820760600000,0.35260009765625,-0.9852294921875,-0.0026702880859375,-0.0162200927734375
1761315820770647000,0.36264697265625,-0.9854888916015625,-0.001861572265625,-0.015167236328125
1761315820780694000,0.372694091796875,-0.9858245849609375,-0.00250244140625,-0.01544189453125
1761315820790741000,0.382740966796875,-0.9862060546875,-0.002471923828125,-0.016265869140625
1761315820800788000,0.3927880859375,-0.98577880859375,-0.0009307861328125,-0.0155181884765625
1761315820810835200,0.402835205078125,-0.9864654541015625,-0.0021514892578125,-0.015350341796875
1761315820820882200,0.412882080078125,-0.9851226806640625,-0.0022430419921875,-0.015777587890625
1761315820830929200,0.42292919921875,-0.986053466796875,-0.0025177001953125,-0.015777587890625
1761315820840977000,0.432976806640625,-0.985809326171875,-0.00140380859375,-0.015472412109375
1761315820851024100,0.443024169921875,-0.98504638671875,-0.0021514892578125,-0.015716552734375
1761315820861071000,0.453071044921875,-0.98577880859375,-0.002227783203125,-0.0162353515625
1761315820871118000,0.4631181640625,-0.9863739013671875,-0.0019073486328125,-0.0159759521484375
1761315820881165000,0.4731650390625,-0.98486328125,-0.0032196044921875,-0.015655517578125
1761315820891212300,0.48321240234375,-0.9860382080078125,-0.0023193359375,-0.01641845703125
1761315820901259500,0.493259521484375,-0.986083984375,-0.003204345703125,-0.0159912109375
1761315820911306500,0.503306396484375,-0.98614501953125,-0.00250244140625,-0.01593017578125
1761315820921354200,0.513354248046875,-0.984954833984375,-0.00225830078125,-0.0160369873046875
1761315820931401200,0.523401123046875,-0.9864501953125,-0.0020904541015625,-0.0152435302734375
1761315820941448400,0.533448486328125,-0.9859619140625,-0.00146484375,-0.0157470703125
1761315820951495400,0.543495361328125,-0.984832763671875,-0.001739501953125,-0.01629638671875
1761315820961542400,0.55354248046875,-0.9854583740234375,-0.0028839111328125,-0.015869140625
1761315820971589400,0.56358935546875,-0.98565673828125,-0.002288818359375,-0.0150604248046875
1761315820981636400,0.57363623046875,-0.9850921630859375,-0.0024871826171875,-0.016357421875
1761315820991683300,0.583683349609375,-0.9858245849609375,-0.00213623046875,-0.0157928466796875
1761315821001731300,0.5937314453125,-0.985931396484375,-0.002288818359375,-0.0158538818359375
1761315821011778300,0.6037783203125,-0.986175537109375,-0.0029754638671875,-0.0158233642578125
1761315821021825300,0.6138251953125,-0.9861297607421875,-0.003082275390625,-0.016815185546875
1761315821031872300,0.623872314453125,-0.9855804443359375,-0.0023345947265625,-0.016021728515625
1761315821041919200,0.633919189453125,-0.9861602783203125,-0.002288818359375,-0.0157470703125
1761315821051966500,0.643966552734375,-0.9869842529296875,-0.0027923583984375,-0.0153045654296875
1761315821062013400,0.654013427734375,-0.9863739013671875,-0.0029449462890625,-0.0158538818359375
1761315821072060400,0.664060302734375,-0.986358642578125,-0.00238037109375,-0.0163421630859375
1761315821082108200,0.674108154296875,-0.985565185546875,-0.0027313232421875,-0.016448974609375
1761315821092155100,0.684155029296875,-0.98529052734375,-0.002716064453125,-0.015960693359375
1761315821102202400,0.694202392578125,-0.9862823486328125,-0.002044677734375,-0.01593017578125
1761315821112249300,0.704249267578125,-0.9859619140625,-0.0021209716796875,-0.0159759521484375
1761315821122296300,0.71429638671875,-0.9866790771484375,-0.0023193359375,-0.01580810546875
1761315821132343300,0.72434326171875,-0.986785888671875,-0.00140380859375,-0.0161590576171875
1761315821142390300,0.734390380859375,-0.98529052734375,-0.0020904541015625,-0.016357421875
1761315821152437500,0.7444375,-0.985107421875,-0.0015869140625,-0.0156707763671875
1761315821162485200,0.7544853515625,-0.985443115234375,-0.001739501953125,-0.014495849609375
1761315821172532200,0.7645322265625,-0.9857025146484375,-0.001678466796875,-0.0146636962890625
1761315821182579200,0.7745791015625,-0.98590087890625,-0.0024566650390625,-0.015350341796875
1761315821192626200,0.784626220703125,-0.985504150390625,-0.00250244140625,-0.0156402587890625
1761315821202673400,0.79467333984375,-0.98565673828125,-0.002349853515625,-0.016326904296875
1761315821212720400,0.804720458984375,-0.9851226806640625,-0.002410888671875,-0.0153350830078125
1761315821222767400,0.814767333984375,-0.9846038818359375,-0.0027618408203125,-0.01544189453125
1761315821232815400,0.8248154296875,-0.9861907958984375,-0.00238037109375,-0.015838623046875
1761315821242862300,0.8348623046875,-0.986175537109375,-0.0022430419921875,-0.0156707763671875
1761315821252909300,0.844909423828125,-0.98565673828125,-0.00201416015625,-0.015716552734375
1761315821262956300,0.854956298828125,-0.98541259765625,-0.0030670166015625,-0.0158843994140625
1761315821273003300,0.865003173828125,-0.985931396484375,-0.0026092529296875,-0.0153961181640625
1761315821283050200,0.87505029296875,-0.9859161376953125,-0.00201416015625,-0.0164794921875
1761315821293097200,0.88509716796875,-0.986236572265625,-0.0020904541015625,-0.016387939453125
1761315821303144200,0.895144287109375,-0.985595703125,-0.0031280517578125,-0.0147705078125
1761315821313192400,0.9051923828125,-0.984832763671875,-0.003082275390625,-0.0160980224609375
1761315821323239400,0.915239501953125,-0.9834442138671875,-0.0022430419921875,-0.01544189453125
1761315821333286400,0.925286376953125,-0.987213134765625,-0.0027008056640625,-0.0145263671875
1761315821343333000,0.9353330078125,-0.9854736328125,-0.0023345947265625,-0.0164642333984375
1761315821353380400,0.94538037109375,-0.98614501953125,-0.00238037109375,-0.016693115234375
1761315821363427300,0.95542724609375,-0.9857635498046875,-0.0023956298828125,-0.01580810546875
1761315821373474300,0.965474365234375,-0.9846954345703125,-0.0018157958984375,-0.0135650634765625
1761315821383521300,0.975521240234375,-0.9851531982421875,-0.00225830078125,-0.014129638671875
1761315821393569300,0.9855693359375,-0.9854736328125,-0.003265380859375,-0.0164794921875
1761315821403616500,0.995616455078125,-0.98583984375,-0.001739501953125,-0.0155181884765625
1761315821413663500,1.00566357421875,-0.98553466796875,-0.0014801025390625,-0.0145416259765625
1761315821423710500,1.01571044921875,-0.985595703125,-0.00042724609375,-0.015472412109375
1761315821433757200,1.025757080078125,-0.986541748046875,-0.00244140625,-0.0173492431640625
1761315821443804200,1.03580419921875,-0.986236572265625,-0.0033111572265625,-0.01708984375
1761315821453851100,1.04585107421875,-0.9861602783203125,-0.00286865234375,-0.0148162841796875
1761315821463899400,1.0558994140625,-0.98699951171875,-0.0016326904296875,-0.0146484375
1761315821473946400,1.0659462890625,-0.98565673828125,-0.0010223388671875,-0.017059326171875
1761315821483993300,1.075993408203125,-0.9848480224609375,-0.0026092529296875,-0.0165252685546875
1761315821494040300,1.086040283203125,-0.984893798828125,-0.003082275390625,-0.0160064697265625
1761315821504087600,1.096087646484375,-0.98565673828125,-0.0029449462890625,-0.015380859375
1761315821514134500,1.106134521484375,-0.985595703125,-0.002960205078125,-0.015869140625
1761315821524181200,1.11618115234375,-0.98455810546875,-0.0025177001953125,-0.0153961181640625
1761315821534228200,1.126228271484375,-0.9862060546875,-0.0032958984375,-0.0150146484375
1761315821544276200,1.136276123046875,-0.98577880859375,-0.001800537109375,-0.015380859375
1761315821554323500,1.146323486328125,-0.9869232177734375,-0.0012664794921875,-0.0151519775390625
1761315821564370400,1.156370361328125,-0.986053466796875,-0.00225830078125,-0.0160675048828125
1761315821574417400,1.16641748046875,-0.9851531982421875,-0.0019683837890625,-0.015289306640625
1761315821584464400,1.17646435546875,-0.9871368408203125,-0.0027923583984375,-0.015594482421875
1761315821594511400,1.186511474609375,-0.98583984375,-0.0028839111328125,-0.0159759521484375
1761315821604558300,1.196558349609375,-0.9860382080078125,-0.0021820068359375,-0.0152740478515625
1761315821614606300,1.2066064453125,-0.9856719970703125,-0.0019073486328125,-0.0158538818359375
1761315821624653300,1.2166533203125,-0.9851837158203125,-0.0015411376953125,-0.0159759521484375
1761315821634700300,1.2267001953125,-0.9847259521484375,-0.0024566650390625,-0.015716552734375
1761315821644747300,1.236747314453125,-0.9852142333984375,-0.00299072265625,-0.0157470703125
1761315821654794200,1.246794189453125,-0.9865875244140625,-0.00262451171875,-0.0156707763671875
1761315821664841500,1.256841552734375,-0.9864959716796875,-0.002471923828125,-0.015472412109375
1761315821674888400,1.266888427734375,-0.985809326171875,-0.0027923583984375,-0.0167236328125
1761315821684935400,1.276935302734375,-0.98577880859375,-0.002349853515625,-0.0160675048828125
1761315821694983200,1.286983154296875,-0.9862518310546875,-0.0016937255859375,-0.015106201171875
1761315821705030400,1.297030517578125,-0.9857635498046875,-0.0023193359375,-0.014617919921875
1761315821715077400,1.307077392578125,-0.984954833984375,-0.0023956298828125,-0.015899658203125
1761315821725124400,1.317124267578125,-0.9859771728515625,-0.00286865234375,-0.01605224609375
1761315821735171300,1.32717138671875,-0.985198974609375,-0.0028076171875,-0.016571044921875
1761315821745218300,1.33721826171875,-0.9860076904296875,-0.0019683837890625,-0.0155792236328125
1761315821755265300,1.347265380859375,-0.9845733642578125,-0.001434326171875,-0.01617431640625
1761315821765313300,1.357313232421875,-0.985992431640625,-0.0023345947265625,-0.0161590576171875
1761315821775360300,1.3673603515625,-0.985687255859375,-0.002349853515625,-0.0160369873046875
1761315821785407200,1.3774072265625,-0.98553466796875,-0.0023956298828125,-0.0159912109375
1761315821795454200,1.3874541015625,-0.9859771728515625,-0.0022735595703125,-0.0160675048828125
1761315821805501200,1.397501220703125,-0.98553466796875,-0.002716064453125,-0.015716552734375
1761315821815548400,1.40754833984375,-0.9847412109375,-0.002410888671875,-0.015838623046875
1761315821825595400,1.417595458984375,-0.9860382080078125,-0.0025482177734375,-0.015960693359375
1761315821835643400,1.427643310546875,-0.985931396484375,-0.0027313232421875,-0.015838623046875
1761315821845690400,1.4376904296875,-0.98583984375,-0.00262451171875,-0.016021728515625
1761315821855737300,1.4477373046875,-0.9862823486328125,-0.0020751953125,-0.015716552734375
1761315821865784300,1.457784423828125,-0.9859619140625,-0.0023345947265625,-0.01556396484375
1761315821875831300,1.467831298828125,-0.9867401123046875,-0.00225830078125,-0.0155792236328125
1761315821885879300,1.47787939453125,-0.9863739013671875,-0.0019989013671875,-0.016632080078125
1761315821895926300,1.48792626953125,-0.9860992431640625,-0.0018463134765625,-0.0154876708984375
1761315821905974300,1.497974365234375,-0.9851226806640625,-0.001739501953125,-0.0162353515625
1761315821916021000,1.50802099609375,-0.9848175048828125,-0.0025634765625,-0.0159759521484375
1761315821926068200,1.518068115234375,-0.9852752685546875,-0.0027008056640625,-0.016204833984375
1761315821936115200,1.528115234375,-0.9852752685546875,-0.002044677734375,-0.0157318115234375
1761315821946162200,1.538162109375,-0.9847412109375,-0.0023345947265625,-0.0149383544921875
1761315821956209200,1.548209228515625,-0.9864654541015625,-0.002716064453125,-0.0163116455078125
1761315821966256000,1.558256103515625,-0.985809326171875,-0.0028533935546875,-0.015350341796875
1761315821976303000,1.56830322265625,-0.9865570068359375,-0.0020294189453125,-0.01605224609375
1761315821986351400,1.578351318359375,-0.985137939453125,-0.002288818359375,-0.0160675048828125
1761315821996398300,1.5883984375,-0.985198974609375,-0.0028839111328125,-0.014862060546875
1761315822006445000,1.598445068359375,-0.9851531982421875,-0.0025787353515625,-0.01568603515625
1761315822016492000,1.608491943359375,-0.9864654541015625,-0.0024261474609375,-0.0161590576171875
1761315822026539300,1.618539306640625,-0.9859619140625,-0.0025787353515625,-0.015228271484375
1761315822036586200,1.628586181640625,-0.9848785400390625,-0.0021820068359375,-0.016357421875
1761315822046633200,1.63863330078125,-0.985260009765625,-0.0023345947265625,-0.017059326171875
1761315822056681200,1.64868115234375,-0.9864349365234375,-0.0027923583984375,-0.015777587890625
1761315822066728200,1.658728271484375,-0.9859619140625,-0.0030517578125,-0.0157928466796875
1761315822076775400,1.668775390625,-0.9856719970703125,-0.001800537109375,-0.0160980224609375
1761315822086822100,1.678822265625,-0.9851531982421875,-0.0016937255859375,-0.0158843994140625
1761315822096869000,1.688869140625,-0.986175537109375,-0.0022125244140625,-0.0157470703125
1761315822106916000,1.698916015625,-0.9860687255859375,-0.0024871826171875,-0.01556396484375
1761315822116963000,1.708963134765625,-0.9846954345703125,-0.002777099609375,-0.016021728515625
1761315822127011300,1.71901123046875,-0.985748291015625,-0.0020294189453125,-0.0159454345703125
1761315822137058300,1.729058349609375,-0.9859466552734375,-0.0028076171875,-0.016815185546875
1761315822147105300,1.739105224609375,-0.9860382080078125,-0.0025482177734375,-0.0157012939453125
1761315822157152300,1.74915234375,-0.9855804443359375,-0.0020294189453125,-0.0154571533203125
1761315822167199200,1.75919921875,-0.9862518310546875,-0.002593994140625,-0.0160675048828125
1761315822177246200,1.76924609375,-0.98577880859375,-0.0026397705078125,-0.01507568359375
1761315822187293200,1.779293212890625,-0.9864044189453125,-0.002716064453125,-0.0150909423828125
1761315822197341200,1.789341064453125,-0.9853973388671875,-0.002838134765625,-0.0170135498046875
1761315822207388200,1.79938818359375,-0.98590087890625,-0.0018157958984375,-0.015777587890625
1761315822217435100,1.80943505859375,-0.9855804443359375,-0.0028839111328125,-0.01495361328125
1761315822227482400,1.819482421875,-0.985565185546875,-0.0025634765625,-0.016265869140625
1761315822237529300,1.829529296875,-0.9857025146484375,-0.0018768310546875,-0.016632080078125
1761315822247576300,1.839576416015625,-0.9853668212890625,-0.002471923828125,-0.0153961181640625
1761315822257623300,1.849623291015625,-0.9852142333984375,-0.00213623046875,-0.0155487060546875
1761315822267670300,1.859670166015625,-0.9860687255859375,-0.0015411376953125,-0.0155181884765625
1761315822277718300,1.86971826171875,-0.9863128662109375,-0.001800537109375,-0.0156707763671875
1761315822287765200,1.87976513671875,-0.9853057861328125,-0.00299072265625,-0.0149993896484375
1761315822297812200,1.889812255859375,-0.9850921630859375,-0.0030975341796875,-0.0153961181640625
1761315822307859200,1.899859130859375,-0.9850006103515625,-0.002410888671875,-0.0158843994140625
1761315822317906200,1.90990625,-0.985748291015625,-0.00244140625,-0.015380859375
1761315822327953200,1.919953125,-0.98687744140625,-0.002716064453125,-0.0161590576171875
1761315822338000400,1.93000048828125,-0.98565673828125,-0.0020599365234375,-0.0155181884765625
1761315822348048100,1.940048095703125,-0.985260009765625,-0.002197265625,-0.01605224609375
1761315822358095000,1.95009521484375,-0.9857635498046875,-0.00274658203125,-0.0164642333984375
1761315822368142000,1.96014208984375,-0.9857330322265625,-0.00323486328125,-0.016357421875
1761315822378189300,1.970189208984375,-0.9862060546875,-0.0028228759765625,-0.0161285400390625
1761315822388236300,1.980236328125,-0.986083984375,-0.00213623046875,-0.0152130126953125
1761315822398283300,1.990283203125,-0.9861602783203125,-0.002593994140625,-0.0157623291015625
1761315822408330200,2.000330322265625,-0.9850921630859375,-0.0025787353515625,-0.0155029296875
1761315822418378200,2.010378173828125,-0.9854278564453125,-0.0018310546875,-0.0146636962890625
1761315822428425200,2.02042529296875,-0.9859161376953125,-0.0026702880859375,-0.0151824951171875
1761315822438472200,2.03047216796875,-0.98492431640625,-0.0023651123046875,-0.01593017578125
1761315822448519200,2.040519287109375,-0.9851226806640625,-0.001983642578125,-0.01629638671875
1761315822458566100,2.050566162109375,-0.9859771728515625,-0.0028533935546875,-0.01580810546875
1761315822468613000,2.060613037109375,-0.9859771728515625,-0.0026092529296875,-0.0148468017578125
1761315822478660000,2.07066015625,-0.98468017578125,-0.002899169921875,-0.015106201171875
1761315822488708400,2.080708251953125,-0.985504150390625,-0.0020904541015625,-0.01507568359375
1761315822498755300,2.09075537109375,-0.9864349365234375,-0.0024871826171875,-0.0158233642578125
1761315822508802000,2.100802001953125,-0.986236572265625,-0.002532958984375,-0.0163116455078125
1761315822518849000,2.11084912109375,-0.9862213134765625,-0.002593994140625,-0.015411376953125
1761315822528896000,2.12089599609375,-0.9861907958984375,-0.00177001953125,-0.016143798828125
1761315822538943200,2.130943115234375,-0.985931396484375,-0.0022735595703125,-0.0154876708984375
1761315822548990200,2.140990234375,-0.9863739013671875,-0.0020751953125,-0.015716552734375
1761315822559038200,2.1510380859375,-0.985870361328125,-0.0022430419921875,-0.01654052734375
1761315822569085200,2.161085205078125,-0.9848480224609375,-0.0021820068359375,-0.01702880859375
1761315822579132400,2.17113232421875,-0.9857940673828125,-0.0025787353515625,-0.0158233642578125
1761315822589179400,2.181179443359375,-0.98614501953125,-0.001983642578125,-0.015045166015625
1761315822599226000,2.19122607421875,-0.9848480224609375,-0.0018310546875,-0.016204833984375
1761315822609273000,2.201273193359375,-0.9853973388671875,-0.0024566650390625,-0.0156097412109375
1761315822619320000,2.211320068359375,-0.9858856201171875,-0.00250244140625,-0.015625
1761315822629367000,2.221366943359375,-0.986358642578125,-0.00225830078125,-0.0161590576171875
1761315822639415300,2.231415283203125,-0.9860076904296875,-0.0029449462890625,-0.0158538818359375
1761315822649462300,2.241462158203125,-0.9859161376953125,-0.003143310546875,-0.0161590576171875
1761315822659509200,2.25150927734375,-0.9858856201171875,-0.002410888671875,-0.0157012939453125
1761315822669556200,2.26155615234375,-0.986083984375,-0.0022125244140625,-0.01611328125
1761315822679603200,2.271603271484375,-0.9852142333984375,-0.0020294189453125,-0.016204833984375
1761315822689650200,2.281650146484375,-0.98663330078125,-0.002593994140625,-0.0155487060546875
1761315822699697200,2.291697265625,-0.987091064453125,-0.0023956298828125,-0.015777587890625
1761315822709745200,2.3017451171875,-0.9861907958984375,-0.0023040771484375,-0.0165557861328125
1761315822719792000,2.311792236328125,-0.9863433837890625,-0.002593994140625,-0.016021728515625
1761315822729839400,2.32183935546875,-0.9868927001953125,-0.0025177001953125,-0.0155029296875
1761315822739886300,2.33188623046875,-0.986572265625,-0.00225830078125,-0.0159454345703125
1761315822749933300,2.341933349609375,-0.9865875244140625,-0.0018157958984375,-0.015716552734375
1761315822759980300,2.351980224609375,-0.98553466796875,-0.0021820068359375,-0.0160064697265625
1761315822770027300,2.36202734375,-0.9854888916015625,-0.00225830078125,-0.0160980224609375
1761315822780075300,2.3720751953125,-0.9847564697265625,-0.002593994140625,-0.01531982421875
1761315822790122200,2.382122314453125,-0.986328125,-0.0020904541015625,-0.0154266357421875
1761315822800169200,2.392169189453125,-0.985321044921875,-0.00274658203125,-0.016204833984375
1761315822810216200,2.40221630859375,-0.986328125,-0.00262451171875,-0.0156402587890625
1761315822820263200,2.41226318359375,-0.9856719970703125,-0.0021514892578125,-0.01611328125
1761315822830310100,2.42231005859375,-0.985748291015625,-0.0016632080078125,-0.0151519775390625
1761315822840357400,2.432357421875,-0.98614501953125,-0.0022430419921875,-0.015777587890625
1761315822850405000,2.442405029296875,-0.9864959716796875,-0.002410888671875,-0.015655517578125
1761315822860452000,2.4524521484375,-0.98553466796875,-0.00225830078125,-0.015350341796875
1761315822870499000,2.4624990234375,-0.986419677734375,-0.0019683837890625,-0.01519775390625
1761315822880546000,2.472546142578125,-0.9864959716796875,-0.0026092529296875,-0.015594482421875
1761315822890596000,2.48259619140625,-0.985870361328125,-0.00250244140625,-0.016143798828125
1761315822900643000,2.49264306640625,-0.98614501953125,-0.0028228759765625,-0.016021728515625
1761315822910690000,2.50268994140625,-0.9864654541015625,-0.0024261474609375,-0.0161895751953125
1761315822920738300,2.51273828125,-0.9857635498046875,-0.00250244140625,-0.0156097412109375
1761315822930785300,2.522785400390625,-0.9847412109375,-0.0020599365234375,-0.01611328125
1761315822940832300,2.532832275390625,-0.985321044921875,-0.00146484375,-0.016876220703125
1761315822950879000,2.54287890625,-0.986053466796875,-0.0023651123046875,-0.0151519775390625
1761315822960926000,2.552926025390625,-0.9856109619140625,-0.002349853515625,-0.0156402587890625
1761315822970973200,2.56297314453125,-0.9859619140625,-0.0020599365234375,-0.015655517578125
1761315822981020200,2.573020263671875,-0.985992431640625,-0.0022125244140625,-0.015625
1761315822991068200,2.583068115234375,-0.985565185546875,-0.001922607421875,-0.016265869140625
1761315823001115100,2.593115234375,-0.9866180419921875,-0.0020599365234375,-0.016204833984375
1761315823011162400,2.603162353515625,-0.986328125,-0.0023956298828125,-0.016082763671875
1761315823021209300,2.613209228515625,-0.985870361328125,-0.00286865234375,-0.01654052734375
1761315823031256300,2.62325634765625,-0.985992431640625,-0.0027618408203125,-0.0153961181640625
1761315823041303000,2.633302978515625,-0.986602783203125,-0.0022430419921875,-0.0155029296875
1761315823051350000,2.64335009765625,-0.9859619140625,-0.001922607421875,-0.015716552734375
1761315823061397000,2.65339697265625,-0.98602294921875,-0.0023193359375,-0.014923095703125
1761315823071445200,2.6634453125,-0.9862823486328125,-0.0025177001953125,-0.0155181884765625
1761315823081492200,2.6734921875,-0.985137939453125,-0.002227783203125,-0.015838623046875
1761315823091539200,2.683539306640625,-0.9854888916015625,-0.0020904541015625,-0.016143798828125
1761315823101586200,2.693586181640625,-0.9871826171875,-0.0028076171875,-0.014984130859375
1761315823111633200,2.703633056640625,-0.9859161376953125,-0.0023345947265625,-0.0156097412109375
1761315823121680400,2.713680419921875,-0.9848175048828125,-0.0028228759765625,-0.015472412109375
1761315823131727000,2.72372705078125,-0.9861602783203125,-0.0023651123046875,-0.0156097412109375
1761315823141775000,2.733775146484375,-0.9860382080078125,-0.00225830078125,-0.0160675048828125
1761315823151822000,2.743822021484375,-0.9855499267578125,-0.0016326904296875,-0.01568603515625
1761315823161869000,2.753869140625,-0.9866790771484375,-0.0020599365234375,-0.0164642333984375
1761315823171916300,2.763916259765625,-0.9861602783203125,-0.001953125,-0.0163421630859375
1761315823181963300,2.77396337890625,-0.9860992431640625,-0.0020599365234375,-0.015838623046875
1761315823192010200,2.78401025390625,-0.9859771728515625,-0.001922607421875,-0.0158843994140625
1761315823202057200,2.79405712890625,-0.9856414794921875,-0.0019989013671875,-0.0158233642578125
1761315823212105200,2.804105224609375,-0.985931396484375,-0.00262451171875,-0.016143798828125
1761315823222152200,2.814152099609375,-0.986541748046875,-0.0026397705078125,-0.0159454345703125
1761315823232199200,2.82419921875,-0.9862518310546875,-0.002349853515625,-0.0155181884765625
1761315823242246100,2.83424609375,-0.9862060546875,-0.0023193359375,-0.015869140625
1761315823252293000,2.844293212890625,-0.9860382080078125,-0.0019073486328125,-0.016082763671875
1761315823262340000,2.854340087890625,-0.9859771728515625,-0.0023651123046875,-0.0157928466796875
1761315823272387300,2.86438720703125,-0.9857940673828125,-0.0029144287109375,-0.0157623291015625
1761315823282435000,2.87443505859375,-0.98626708984375,-0.001922607421875,-0.015838623046875
1761315823292482000,2.88448193359375,-0.986907958984375,-0.001953125,-0.0161590576171875
1761315823302529000,2.894529052734375,-0.984710693359375,-0.002960205078125,-0.0162811279296875
1761315823312576000,2.904575927734375,-0.9856719970703125,-0.00323486328125,-0.015777587890625
1761315823322623200,2.914623291015625,-0.9868011474609375,-0.002410888671875,-0.015106201171875
1761315823332670200,2.924670166015625,-0.984619140625,-0.00177001953125,-0.0165252685546875
1761315823342717200,2.93471728515625,-0.9857635498046875,-0.0027313232421875,-0.0160980224609375
1761315823352765200,2.94476513671875,-0.9861602783203125,-0.0026092529296875,-0.015655517578125
1761315823362812200,2.954812255859375,-0.98529052734375,-0.0027618408203125,-0.0151519775390625
1761315823372859100,2.964859130859375,-0.9857025146484375,-0.0023040771484375,-0.0171356201171875
1761315823382906000,2.974906005859375,-0.98614501953125,-0.0020751953125,-0.015655517578125
1761315823392953000,2.984953125,-0.986053466796875,-0.0018463134765625,-0.0153656005859375
1761315823403000000,2.995,-0.986053466796875,-0.0021820068359375,-0.01568603515625
1761315823413047000,3.005047119140625,-0.986328125,-0.001922607421875,-0.01544189453125
1761315823423094300,3.01509423828125,-0.9868011474609375,-0.001922607421875,-0.01580810546875
1761315823433142300,3.025142333984375,-0.986419677734375,-0.00250244140625,-0.015716552734375
1761315823443189200,3.035189208984375,-0.986480712890625,-0.002471923828125,-0.0155029296875
1761315823453236200,3.045236328125,-0.986236572265625,-0.00213623046875,-0.0157928466796875
1761315823463283000,3.055282958984375,-0.9863128662109375,-0.0021820068359375,-0.0154571533203125
1761315823473330200,3.065330078125,-0.9858551025390625,-0.0020904541015625,-0.0160064697265625
1761315823483377200,3.075377197265625,-0.9852142333984375,-0.0019378662109375,-0.016510009765625
1761315823493424000,3.085424072265625,-0.986419677734375,-0.0024261474609375,-0.015838623046875
1761315823503472000,3.09547216796875,-0.985504150390625,-0.002197265625,-0.0164947509765625
1761315823513519000,3.10551904296875,-0.9859161376953125,-0.0023651123046875,-0.0160064697265625
1761315823523566300,3.11556640625,-0.9851226806640625,-0.00274658203125,-0.0152587890625
1761315823533613300,3.12561328125,-0.9872283935546875,-0.0030975341796875,-0.01611328125
1761315823543660300,3.135660400390625,-0.986083984375,-0.001983642578125,-0.0163726806640625
1761315823553707000,3.14570703125,-0.986083984375,-0.0020904541015625,-0.0159454345703125
1761315823563754000,3.15575390625,-0.985870361328125,-0.0025482177734375,-0.0155487060546875
1761315823573802200,3.16580224609375,-0.9859466552734375,-0.002777099609375,-0.0156097412109375
1761315823583849200,3.17584912109375,-0.986175537109375,-0.0020599365234375,-0.015899658203125
1761315823593896200,3.185896240234375,-0.985748291015625,-0.0017242431640625,-0.0158233642578125
1761315823603943200,3.195943115234375,-0.9865570068359375,-0.0021514892578125,-0.0162811279296875
1761315823613990100,3.205990234375,-0.9864349365234375,-0.00213623046875,-0.0158843994140625
1761315823624037400,3.216037353515625,-0.9862060546875,-0.0023651123046875,-0.016204833984375
1761315823634084400,3.22608447265625,-0.9859466552734375,-0.0024871826171875,-0.015716552734375
1761315823644131000,3.236131103515625,-0.9860992431640625,-0.0021209716796875,-0.0156402587890625
1761315823654179000,3.246178955078125,-0.9874267578125,-0.0016937255859375,-0.015533447265625
1761315823664226000,3.25622607421875,-0.98675537109375,-0.0018310546875,-0.0157928466796875
1761315823674273300,3.266273193359375,-0.9862823486328125,-0.002593994140625,-0.01556396484375
1761315823684320300,3.2763203125,-0.9858551025390625,-0.002471923828125,-0.01531982421875
1761315823694367200,3.2863671875,-0.98651123046875,-0.0027008056640625,-0.015655517578125
1761315823704414200,3.296414306640625,-0.9859619140625,-0.003021240234375,-0.0153961181640625
1761315823714461200,3.306461181640625,-0.9861602783203125,-0.001678466796875,-0.0162200927734375
1761315823724509200,3.31650927734375,-0.9862060546875,-0.0013275146484375,-0.0163421630859375
1761315823734556200,3.32655615234375,-0.9863739013671875,-0.00238037109375,-0.016021728515625
1761315823744603100,3.33660302734375,-0.9871673583984375,-0.00323486328125,-0.0159149169921875
1761315823754650000,3.346650146484375,-0.986602783203125,-0.0019989013671875,-0.0148773193359375
1761315823764697000,3.356697021484375,-0.98541259765625,-0.0016632080078125,-0.0154266357421875
1761315823774744300,3.366744384765625,-0.9866485595703125,-0.0025482177734375,-0.0157470703125
1761315823784791300,3.376791259765625,-0.98699951171875,-0.002349853515625,-0.016357421875
1761315823794839000,3.386839111328125,-0.9854278564453125,-0.0024261474609375,-0.0157318115234375
1761315823804886000,3.396885986328125,-0.9850921630859375,-0.002777099609375,-0.015716552734375
1761315823814933000,3.40693310546875,-0.9866485595703125,-0.002166748046875,-0.015625
1761315823824980200,3.416980224609375,-0.98577880859375,-0.00250244140625,-0.0158843994140625
1761315823835027200,3.427027099609375,-0.98663330078125,-0.00225830078125,-0.0159454345703125
1761315823845074200,3.43707421875,-0.9863128662109375,-0.0018463134765625,-0.01568603515625
1761315823855121200,3.44712109375,-0.9861907958984375,-0.0019073486328125,-0.0157012939453125
1761315823865168100,3.457168212890625,-0.98626708984375,-0.0018310546875,-0.0150604248046875
1761315823875216100,3.467216064453125,-0.9855499267578125,-0.0022430419921875,-0.015380859375
1761315823885263000,3.47726318359375,-0.9854583740234375,-0.0026702880859375,-0.0152587890625
1761315823895306800,3.487306640625,-0.98602294921875,-0.001983642578125,-0.01593017578125
1761315823905353700,3.497353759765625,-0.985015869140625,-0.002655029296875,-0.015472412109375
1761315823915400700,3.507400634765625,-0.9857635498046875,-0.00262451171875,-0.0148162841796875
1761315823925447700,3.51744775390625,-0.9859466552734375,-0.0025787353515625,-0.016632080078125
1761315823935495000,3.527494873046875,-0.9864654541015625,-0.0021514892578125,-0.015594482421875
1761315823945543000,3.53754296875,-0.9858245849609375,-0.0025634765625,-0.0153961181640625
1761315823955590000,3.54758984375,-0.9861602783203125,-0.0024871826171875,-0.01617431640625
1761315823965636600,3.55763671875,-0.985260009765625,-0.00201416015625,-0.015533447265625
1761315823975683600,3.56768359375,-0.9857635498046875,-0.0027313232421875,-0.015594482421875
1761315823985730800,3.577730712890625,-0.985107421875,-0.0025787353515625,-0.0157470703125
1761315823995777800,3.58777783203125,-0.9858245849609375,-0.0024871826171875,-0.016815185546875
1761315824005824800,3.59782470703125,-0.98602294921875,-0.0030975341796875,-0.01531982421875
1761315824015871700,3.607871826171875,-0.9859161376953125,-0.002532958984375,-0.016204833984375
1761315824025919700,3.617919677734375,-0.986907958984375,-0.0027313232421875,-0.015838623046875
1761315824035967000,3.627967041015625,-0.986328125,-0.002166748046875,-0.0159454345703125
1761315824046014000,3.638013916015625,-0.9860076904296875,-0.0020751953125,-0.0156707763671875
1761315824056060700,3.648060791015625,-0.9863433837890625,-0.002227783203125,-0.0153656005859375
1761315824066107600,3.658107666015625,-0.986175537109375,-0.002197265625,-0.015350341796875
1761315824076154600,3.668154541015625,-0.98651123046875,-0.0018310546875,-0.0159912109375
1761315824086201900,3.678201904296875,-0.98663330078125,-0.0024261474609375,-0.0160369873046875
1761315824096249900,3.688249755859375,-0.9866180419921875,-0.002349853515625,-0.0159454345703125
1761315824106296800,3.698296875,-0.9859771728515625,-0.0019378662109375,-0.01629638671875
1761315824116343800,3.70834375,-0.9858551025390625,-0.002532958984375,-0.0159149169921875
1761315824126390800,3.718390869140625,-0.9859771728515625,-0.0025177001953125,-0.0156402587890625
1761315824136438000,3.72843798828125,-0.9854736328125,-0.0026397705078125,-0.01617431640625
1761315824146484700,3.738484619140625,-0.98590087890625,-0.0019378662109375,-0.0158233642578125
1761315824156531700,3.74853173828125,-0.985443115234375,-0.0023193359375,-0.0152435302734375
1761315824166578700,3.75857861328125,-0.985076904296875,-0.002685546875,-0.0159759521484375
1761315824176626700,3.768626708984375,-0.985809326171875,-0.0029296875,-0.0150299072265625
1761315824186674000,3.778673828125,-0.9850921630859375,-0.0022430419921875,-0.0153045654296875
1761315824196721000,3.788720947265625,-0.9864349365234375,-0.002349853515625,-0.01556396484375
1761315824206767900,3.798767822265625,-0.9877777099609375,-0.00274658203125,-0.01531982421875
1761315824216814800,3.80881494140625,-0.9866943359375,-0.0023040771484375,-0.0159759521484375
1761315824226861800,3.81886181640625,-0.986602783203125,-0.0018768310546875,-0.01715087890625
1761315824236908800,3.82890869140625,-0.98529052734375,-0.002227783203125,-0.015380859375
1761315824246955800,3.838955810546875,-0.986358642578125,-0.00201416015625,-0.0164794921875
1761315824257003800,3.849003662109375,-0.986114501953125,-0.0020751953125,-0.0167388916015625
1761315824267050800,3.85905078125,-0.9855804443359375,-0.00189208984375,-0.015838623046875
1761315824277097700,3.86909765625,-0.9865875244140625,-0.00152587890625,-0.0156097412109375
1761315824287145000,3.87914501953125,-0.985687255859375,-0.0025177001953125,-0.015594482421875
1761315824297192000,3.88919189453125,-0.9859771728515625,-0.001861572265625,-0.0161590576171875
1761315824307239000,3.899239013671875,-0.9873046875,-0.002166748046875,-0.015655517578125
1761315824317286000,3.909285888671875,-0.9859161376953125,-0.0020599365234375,-0.0162353515625
1761315824327332600,3.91933251953125,-0.9863433837890625,-0.002410888671875,-0.0161590576171875
1761315824337380900,3.929380859375,-0.987030029296875,-0.0021209716796875,-0.01611328125
1761315824347427800,3.939427734375,-0.9854736328125,-0.0028228759765625,-0.015625
1761315824357474800,3.949474853515625,-0.985992431640625,-0.0027618408203125,-0.0164794921875
1761315824367521800,3.959521728515625,-0.986114501953125,-0.0026397705078125,-0.01611328125
1761315824377568800,3.96956884765625,-0.9860382080078125,-0.002899169921875,-0.015899658203125
1761315824387615700,3.97961572265625,-0.9857635498046875,-0.00335693359375,-0.015380859375
1761315824397663000,3.9896630859375,-0.986053466796875,-0.001983642578125,-0.0154571533203125
1761315824407710700,3.999710693359375,-0.98614501953125,-0.0024261474609375,-0.0163421630859375
1761315824417757700,4.0097578125,-0.9856414794921875,-0.0025787353515625,-0.01617431640625
1761315824427804700,4.0198046875,-0.98565673828125,-0.0021514892578125,-0.0156402587890625
1761315824437852000,4.029851806640625,-0.9860687255859375,-0.0025787353515625,-0.0159149169921875
1761315824447899000,4.03989892578125,-0.9855804443359375,-0.00213623046875,-0.015869140625
1761315824457945900,4.04994580078125,-0.9861907958984375,-0.00262451171875,-0.01593017578125
1761315824467992800,4.059992919921875,-0.98638916015625,-0.0024871826171875,-0.0147857666015625
1761315824478039800,4.070039794921875,-0.9864959716796875,-0.00250244140625,-0.01568603515625
1761315824488087800,4.080087890625,-0.987640380859375,-0.0024871826171875,-0.015350341796875
1761315824498134800,4.090134765625,-0.985626220703125,-0.0014495849609375,-0.016326904296875
1761315824508181800,4.100181640625,-0.986053466796875,-0.0018157958984375,-0.0155029296875
1761315824518228700,4.110228759765625,-0.98651123046875,-0.0031585693359375,-0.0155487060546875
1761315824528275700,4.120275634765625,-0.986114501953125,-0.001983642578125,-0.015960693359375
1761315824538322700,4.13032275390625,-0.9854278564453125,-0.00323486328125,-0.0158233642578125
1761315824548370000,4.140369873046875,-0.9863739013671875,-0.00238037109375,-0.0152435302734375
1761315824558417000,4.1504169921875,-0.985687255859375,-0.0019989013671875,-0.015838623046875
1761315824568464600,4.160464599609375,-0.9865875244140625,-0.0020904541015625,-0.0156097412109375
1761315824578511600,4.17051171875,-0.9865264892578125,-0.0025177001953125,-0.0155029296875
1761315824588558600,4.18055859375,-0.98675537109375,-0.0025787353515625,-0.0161895751953125
1761315824598605800,4.190605712890625,-0.986358642578125,-0.001922607421875,-0.0160064697265625
1761315824608652800,4.20065283203125,-0.9852447509765625,-0.0024566650390625,-0.01495361328125
1761315824618699800,4.21069970703125,-0.98663330078125,-0.00225830078125,-0.01568603515625
1761315824628746800,4.220746826171875,-0.986053466796875,-0.0017242431640625,-0.0152587890625
1761315824638793700,4.230793701171875,-0.9863128662109375,-0.00164794921875,-0.01531982421875
1761315824648842000,4.240842041015625,-0.985595703125,-0.002349853515625,-0.0145721435546875
1761315824658888700,4.250888671875,-0.9864654541015625,-0.0024566650390625,-0.0153350830078125
1761315824668935700,4.260935791015625,-0.987518310546875,-0.00238037109375,-0.0156402587890625
1761315824678982700,4.270982666015625,-0.9866790771484375,-0.0026397705078125,-0.015411376953125
1761315824689029600,4.281029541015625,-0.9859466552734375,-0.0022430419921875,-0.0166473388671875
1761315824699076900,4.291076904296875,-0.9853363037109375,-0.0023651123046875,-0.015899658203125
1761315824709123800,4.301123779296875,-0.9865264892578125,-0.0028839111328125,-0.0158843994140625
1761315824719170800,4.3111708984375,-0.986602783203125,-0.0029296875,-0.0162200927734375
1761315824729218800,4.32121875,-0.986907958984375,-0.003326416015625,-0.0154876708984375
1761315824739265800,4.331265869140625,-0.986419677734375,-0.0026702880859375,-0.01544189453125
1761315824749312800,4.341312744140625,-0.9862213134765625,-0.0026702880859375,-0.015655517578125
1761315824759359700,4.35135986328125,-0.9860076904296875,-0.001983642578125,-0.0153045654296875
1761315824769406700,4.36140673828125,-0.98553466796875,-0.001251220703125,-0.0152130126953125
1761315824779453700,4.37145361328125,-0.9866180419921875,-0.0021820068359375,-0.01580810546875
1761315824789500700,4.381500732421875,-0.98583984375,-0.0020904541015625,-0.01513671875
1761315824799549000,4.391548828125,-0.98614501953125,-0.0029296875,-0.0159912109375
1761315824809596000,4.401595947265625,-0.9863433837890625,-0.00201416015625,-0.015228271484375
1761315824819643000,4.411642822265625,-0.9859161376953125,-0.0017852783203125,-0.0160369873046875
1761315824829689900,4.42168994140625,-0.9854888916015625,-0.0023040771484375,-0.0164031982421875
1761315824839736600,4.431736572265625,-0.9860076904296875,-0.002349853515625,-0.01556396484375
1761315824849783800,4.44178369140625,-0.9866943359375,-0.002105712890625,-0.016357421875
1761315824859830800,4.451830810546875,-0.9858551025390625,-0.0021820068359375,-0.016632080078125
1761315824869877800,4.461877685546875,-0.98602294921875,-0.002166748046875,-0.0159912109375
1761315824879924700,4.4719248046875,-0.9864501953125,-0.002227783203125,-0.0153656005859375
1761315824889972200,4.48197216796875,-0.9866790771484375,-0.0019683837890625,-0.015960693359375
1761315824900019200,4.492019287109375,-0.9863433837890625,-0.0031280517578125,-0.016265869140625
1761315824910066200,4.502066162109375,-0.9858551025390625,-0.002349853515625,-0.0153656005859375
1761315824920113200,4.512113037109375,-0.9857177734375,-0.0032806396484375,-0.0155029296875
1761315824930160400,4.522160400390625,-0.985626220703125,-0.002899169921875,-0.016571044921875
1761315824940207400,4.532207275390625,-0.9861602783203125,-0.00164794921875,-0.015106201171875
1761315824950254000,4.542254150390625,-0.9857025146484375,-0.0027923583984375,-0.0158538818359375
1761315824960301000,4.552301025390625,-0.9862060546875,-0.0021209716796875,-0.016632080078125
1761315824970349000,4.56234912109375,-0.985687255859375,-0.00164794921875,-0.015716552734375
1761315824980396300,4.572396240234375,-0.9865875244140625,-0.002288818359375,-0.0152740478515625
1761315824990443300,4.582443359375,-0.9864044189453125,-0.00201416015625,-0.0164031982421875
1761315825000490200,4.592490234375,-0.9859466552734375,-0.0030975341796875,-0.0169830322265625
1761315825010537200,4.602537109375,-0.98583984375,-0.0024871826171875,-0.015777587890625
1761315825020584200,4.612584228515625,-0.98553466796875,-0.00213623046875,-0.0166015625
1761315825030631200,4.622631103515625,-0.9866180419921875,-0.00262451171875,-0.015777587890625
1761315825040678100,4.63267822265625,-0.9866790771484375,-0.002197265625,-0.0156402587890625
1761315825050726100,4.64272607421875,-0.98712158203125,-0.00244140625,-0.015228271484375
1761315825060773000,4.652773193359375,-0.985809326171875,-0.00189208984375,-0.0158538818359375
1761315825070820000,4.662820068359375,-0.9870758056640625,-0.001739501953125,-0.0150299072265625
1761315825080867000,4.6728671875,-0.9872894287109375,-0.00213623046875,-0.0164337158203125
1761315825090914300,4.682914306640625,-0.9868927001953125,-0.0026702880859375,-0.0166473388671875
1761315825100961300,4.692961181640625,-0.9853668212890625,-0.0028228759765625,-0.01568603515625
1761315825111008300,4.70300830078125,-0.986724853515625,-0.0019073486328125,-0.016021728515625
1761315825121055200,4.71305517578125,-0.986541748046875,-0.0023040771484375,-0.0157318115234375
1761315825131103200,4.723103271484375,-0.9853057861328125,-0.0026092529296875,-0.015228271484375
1761315825141150200,4.733150146484375,-0.985809326171875,-0.00225830078125,-0.01654052734375
1761315825151197200,4.743197265625,-0.9856109619140625,-0.002655029296875,-0.016937255859375
1761315825161244200,4.753244140625,-0.9866943359375,-0.002532958984375,-0.015716552734375
1761315825171291100,4.763291015625,-0.985443115234375,-0.0026092529296875,-0.016326904296875
1761315825181338000,4.773338134765625,-0.9865264892578125,-0.0021514892578125,-0.0163421630859375
1761315825191385300,4.78338525390625,-0.98614501953125,-0.0021514892578125,-0.016143798828125
1761315825201432300,4.793432373046875,-0.9862060546875,-0.0031280517578125,-0.0151824951171875
1761315825211480000,4.80347998046875,-0.9856109619140625,-0.0027923583984375,-0.01580810546875
1761315825221527000,4.813527099609375,-0.9864501953125,-0.002685546875,-0.0153350830078125
1761315825231574000,4.823573974609375,-0.9864654541015625,-0.002105712890625,-0.0159912109375
1761315825241621200,4.833621337890625,-0.9854278564453125,-0.001953125,-0.0154876708984375
1761315825251668200,4.843668212890625,-0.9853515625,-0.002288818359375,-0.0153656005859375
1761315825261715200,4.853715087890625,-0.986480712890625,-0.0019073486328125,-0.015899658203125
1761315825271762200,4.86376220703125,-0.986083984375,-0.002227783203125,-0.01556396484375
1761315825281809200,4.87380908203125,-0.98577880859375,-0.0019378662109375,-0.0159454345703125
1761315825291856100,4.883856201171875,-0.9854736328125,-0.0031890869140625,-0.01605224609375
1761315825301904100,4.893904052734375,-0.9849853515625,-0.0024871826171875,-0.01580810546875
1761315825311951000,4.903951171875,-0.985626220703125,-0.0024566650390625,-0.01568603515625
1761315825321998000,4.913998046875,-0.987579345703125,-0.002410888671875,-0.0160064697265625
1761315825332045000,4.924045166015625,-0.98663330078125,-0.0024261474609375,-0.0170135498046875
1761315825342092300,4.93409228515625,-0.98626708984375,-0.00262451171875,-0.016845703125
1761315825352139300,4.94413916015625,-0.9850921630859375,-0.0023345947265625,-0.0165863037109375
1761315825362186200,4.954186279296875,-0.9862060546875,-0.00244140625,-0.01580810546875
1761315825372233200,4.964233154296875,-0.9866790771484375,-0.00225830078125,-0.01544189453125
1761315825382281000,4.974281005859375,-0.985565185546875,-0.0025634765625,-0.0160980224609375
1761315825392328200,4.984328125,-0.985809326171875,-0.0023193359375,-0.01556396484375
1761315825402372000,4.9943720703125,-0.9858245849609375,-0.001922607421875,-0.01629638671875
1761315825412419000,5.004419189453125,-0.986083984375,-0.0030517578125,-0.0154571533203125
1761315825422466300,5.01446630859375,-0.9858856201171875,-0.0024261474609375,-0.015228271484375
1761315825432513300,5.02451318359375,-0.9860992431640625,-0.0023193359375,-0.016265869140625
1761315825442561000,5.03456103515625,-0.985931396484375,-0.001953125,-0.0153656005859375
1761315825452608000,5.04460791015625,-0.9857330322265625,-0.0029144287109375,-0.0166778564453125
1761315825462655000,5.054655029296875,-0.9856719970703125,-0.00238037109375,-0.0159454345703125
1761315825472702200,5.0647021484375,-0.9865264892578125,-0.002410888671875,-0.0157623291015625
1761315825482749200,5.074749267578125,-0.98577880859375,-0.0024261474609375,-0.016693115234375
1761315825492796200,5.084796142578125,-0.9857025146484375,-0.002288818359375,-0.0157470703125
1761315825502843100,5.094843017578125,-0.9852752685546875,-0.001922607421875,-0.01531982421875
1761315825512890000,5.10489013671875,-0.986602783203125,-0.0020904541015625,-0.0156402587890625
1761315825522938400,5.1149384765625,-0.9868316650390625,-0.0023651123046875,-0.015716552734375
1761315825532985000,5.124985107421875,-0.9860992431640625,-0.002349853515625,-0.0160064697265625
1761315825543032000,5.135031982421875,-0.98626708984375,-0.0018157958984375,-0.015655517578125
1761315825553079000,5.1450791015625,-0.9863128662109375,-0.002838134765625,-0.01544189453125
1761315825563126000,5.1551259765625,-0.9857330322265625,-0.002349853515625,-0.0161895751953125
1761315825573173000,5.165173095703125,-0.9858551025390625,-0.00311279296875,-0.016448974609375
1761315825583220200,5.17522021484375,-0.9868927001953125,-0.002410888671875,-0.0156402587890625
1761315825593267200,5.18526708984375,-0.9865570068359375,-0.002777099609375,-0.0158538818359375
1761315825603315200,5.195315185546875,-0.986480712890625,-0.0016937255859375,-0.0155487060546875
1761315825613362200,5.205362060546875,-0.9861602783203125,-0.0019378662109375,-0.015838623046875
1761315825623409200,5.2154091796875,-0.9872283935546875,-0.00262451171875,-0.01593017578125
1761315825633456000,5.2254560546875,-0.9867706298828125,-0.001983642578125,-0.0162353515625
1761315825643503000,5.235503173828125,-0.9868316650390625,-0.0030517578125,-0.015533447265625
1761315825653550000,5.245550048828125,-0.9863128662109375,-0.0028839111328125,-0.0154571533203125
1761315825663597000,5.25559716796875,-0.9857940673828125,-0.0019073486328125,-0.0160675048828125
1761315825673644000,5.26564404296875,-0.9852752685546875,-0.0024261474609375,-0.0159149169921875
1761315825683691300,5.275691162109375,-0.985931396484375,-0.0026702880859375,-0.0164947509765625
1761315825693739300,5.2857392578125,-0.984619140625,-0.0021514892578125,-0.0158538818359375
1761315825703786200,5.2957861328125,-0.986236572265625,-0.002532958984375,-0.0159149169921875
1761315825713833200,5.305833251953125,-0.9860382080078125,-0.002716064453125,-0.016876220703125
1761315825723880000,5.3158798828125,-0.9855194091796875,-0.002471923828125,-0.0168914794921875
1761315825733927200,5.32592724609375,-0.9855499267578125,-0.002471923828125,-0.01507568359375
1761315825743974100,5.33597412109375,-0.9862823486328125,-0.002197265625,-0.015960693359375
1761315825754021000,5.346021240234375,-0.986236572265625,-0.0018157958984375,-0.0166015625
1761315825764068000,5.356068115234375,-0.98626708984375,-0.0022430419921875,-0.0159912109375
1761315825774116400,5.366116455078125,-0.98583984375,-0.0023345947265625,-0.0156402587890625
1761315825784163300,5.376163330078125,-0.986175537109375,-0.0029296875,-0.0144805908203125
1761315825794210300,5.386210205078125,-0.9871673583984375,-0.002471923828125,-0.01513671875
1761315825804257300,5.39625732421875,-0.98663330078125,-0.0020294189453125,-0.0155181884765625
1761315825814304000,5.406303955078125,-0.9865264892578125,-0.00262451171875,-0.0152130126953125
1761315825824351000,5.41635107421875,-0.985809326171875,-0.0021209716796875,-0.015655517578125
1761315825834398200,5.426398193359375,-0.9863739013671875,-0.002166748046875,-0.015869140625
1761315825844445200,5.436445068359375,-0.986572265625,-0.00225830078125,-0.0169830322265625
1761315825854492200,5.4464921875,-0.9858551025390625,-0.002044677734375,-0.0156402587890625
1761315825864540200,5.4565400390625,-0.9865264892578125,-0.0026702880859375,-0.01568603515625
1761315825874587100,5.466587158203125,-0.9866180419921875,-0.0023345947265625,-0.01617431640625
1761315825884634400,5.47663427734375,-0.9853668212890625,-0.0018310546875,-0.01605224609375
1761315825894681600,5.486681640625,-0.9853515625,-0.0025482177734375,-0.0156097412109375
1761315825904728800,5.496728759765625,-0.9862823486328125,-0.0027923583984375,-0.016571044921875
1761315825914775800,5.50677587890625,-0.985260009765625,-0.001983642578125,-0.0166473388671875
1761315825924822800,5.51682275390625,-0.98583984375,-0.0020751953125,-0.01678466796875
1761315825934869800,5.526869873046875,-0.986114501953125,-0.002349853515625,-0.0156707763671875
1761315825944916700,5.536916748046875,-0.9860687255859375,-0.0027313232421875,-0.0155487060546875
1761315825954965000,5.546965087890625,-0.9862518310546875,-0.002410888671875,-0.01605224609375
1761315825965011700,5.55701171875,-0.98614501953125,-0.002197265625,-0.0160980224609375
1761315825975058700,5.56705859375,-0.9854278564453125,-0.0025482177734375,-0.0165252685546875
1761315825985105700,5.577105712890625,-0.9858856201171875,-0.002593994140625,-0.016204833984375
1761315825995152600,5.587152587890625,-0.9856109619140625,-0.00201416015625,-0.0161590576171875
1761315826005202700,5.59720263671875,-0.9858856201171875,-0.002593994140625,-0.01654052734375
1761315826015249700,5.607249755859375,-0.9853973388671875,-0.0025634765625,-0.0163421630859375
1761315826025296600,5.617296630859375,-0.985870361328125,-0.0022430419921875,-0.01641845703125
1761315826035344000,5.62734375,-0.98681640625,-0.0032501220703125,-0.0152587890625
1761315826045390800,5.637390869140625,-0.986053466796875,-0.002685546875,-0.01678466796875
1761315826055437800,5.647437744140625,-0.98541259765625,-0.002593994140625,-0.0149078369140625
1761315826065484800,5.65748486328125,-0.986480712890625,-0.00201416015625,-0.0152587890625
1761315826075532800,5.66753271484375,-0.985931396484375,-0.002044677734375,-0.01617431640625
1761315826085579800,5.677579833984375,-0.984893798828125,-0.0028076171875,-0.0157470703125
1761315826095626800,5.687626708984375,-0.9855804443359375,-0.002899169921875,-0.01507568359375
1761315826105673700,5.697673828125,-0.9855194091796875,-0.0026092529296875,-0.0164031982421875
1761315826115720700,5.707720703125,-0.9858551025390625,-0.0020599365234375,-0.0150146484375
1761315826125767700,5.717767578125,-0.9859161376953125,-0.00225830078125,-0.015411376953125
1761315826135815000,5.72781494140625,-0.9866180419921875,-0.0024261474609375,-0.015380859375
1761315826145862000,5.73786181640625,-0.986541748046875,-0.001434326171875,-0.01641845703125
1761315826155908900,5.747908935546875,-0.98565673828125,-0.00177001953125,-0.0166778564453125
1761315826165956600,5.75795654296875,-0.9865264892578125,-0.001922607421875,-0.01495361328125
1761315826176003600,5.768003662109375,-0.9860382080078125,-0.0026702880859375,-0.0156097412109375
1761315826186050800,5.77805078125,-0.9857177734375,-0.0023651123046875,-0.0158233642578125
1761315826196097800,5.788097900390625,-0.9863739013671875,-0.002471923828125,-0.015533447265625
1761315826206144800,5.798144775390625,-0.9856719970703125,-0.0027923583984375,-0.01531982421875
1761315826216191700,5.808191650390625,-0.9860382080078125,-0.002349853515625,-0.0160064697265625
1761315826226238700,5.81823876953125,-0.9856414794921875,-0.0019378662109375,-0.016204833984375
1761315826236285700,5.82828564453125,-0.985809326171875,-0.0025482177734375,-0.0157928466796875
1761315826246333000,5.8383330078125,-0.9863739013671875,-0.0025177001953125,-0.01531982421875
1761315826256380700,5.848380615234375,-0.98541259765625,-0.0030364990234375,-0.016265869140625
1761315826266427600,5.858427734375,-0.9855499267578125,-0.002227783203125,-0.015655517578125
1761315826276474600,5.868474609375,-0.986083984375,-0.001678466796875,-0.0154571533203125
1761315826286521600,5.878521484375,-0.985595703125,-0.0023956298828125,-0.016143798828125
1761315826296568800,5.88856884765625,-0.985565185546875,-0.0020599365234375,-0.0159454345703125
1761315826306615800,5.89861572265625,-0.986358642578125,-0.0021514892578125,-0.014923095703125
1761315826316662800,5.908662841796875,-0.9859771728515625,-0.002105712890625,-0.015869140625
1761315826326709800,5.918709716796875,-0.9860687255859375,-0.0028839111328125,-0.0161590576171875
1761315826336756700,5.9287568359375,-0.9860076904296875,-0.0020751953125,-0.015472412109375
1761315826346804700,5.9388046875,-0.9858856201171875,-0.0023651123046875,-0.0161285400390625
1761315826356851700,5.948851806640625,-0.985260009765625,-0.0018157958984375,-0.015777587890625
1761315826366898700,5.958898681640625,-0.98541259765625,-0.0023040771484375,-0.0153350830078125
1761315826376945700,5.968945556640625,-0.9858856201171875,-0.002532958984375,-0.016082763671875
1761315826386992600,5.97899267578125,-0.986785888671875,-0.002349853515625,-0.016021728515625
1761315826397039900,5.989039794921875,-0.986572265625,-0.00152587890625,-0.016387939453125
1761315826407086800,5.9990869140625,-0.9863433837890625,-0.0020294189453125,-0.0154266357421875
1761315826417133800,6.0091337890625,-0.986175537109375,-0.001983642578125,-0.0148773193359375
1761315826427180800,6.019180908203125,-0.985809326171875,-0.002105712890625,-0.0149078369140625
1761315826437228800,6.029228759765625,-0.9860687255859375,-0.0024261474609375,-0.0154571533203125
1761315826447275800,6.03927587890625,-0.9857940673828125,-0.002532958984375,-0.0159759521484375
1761315826457322800,6.04932275390625,-0.9859619140625,-0.0019378662109375,-0.01629638671875
1761315826467369700,6.05936962890625,-0.986053466796875,-0.0026092529296875,-0.0160980224609375
1761315826477416700,6.069416748046875,-0.986480712890625,-0.00225830078125,-0.0155181884765625
1761315826487463700,6.079463623046875,-0.9857635498046875,-0.0019073486328125,-0.01605224609375
1761315826497510700,6.0895107421875,-0.9859161376953125,-0.0019073486328125,-0.0163421630859375
1761315826507558000,6.099557861328125,-0.9850921630859375,-0.0027008056640625,-0.0155792236328125
1761315826517604900,6.10960498046875,-0.98541259765625,-0.0022430419921875,-0.015533447265625
1761315826527652900,6.11965283203125,-0.9863128662109375,-0.00213623046875,-0.015594482421875
1761315826537699600,6.129699462890625,-0.985626220703125,-0.0014495849609375,-0.015716552734375
1761315826547746800,6.139746826171875,-0.985504150390625,-0.0030059814453125,-0.0157623291015625
1761315826557793800,6.149793701171875,-0.985321044921875,-0.0026702880859375,-0.0163116455078125
1761315826567840800,6.1598408203125,-0.9861907958984375,-0.0020904541015625,-0.016326904296875
1761315826577887700,6.1698876953125,-0.9857330322265625,-0.002349853515625,-0.0166778564453125
1761315826587934700,6.179934814453125,-0.9857330322265625,-0.002349853515625,-0.0158233642578125
1761315826597981700,6.189981689453125,-0.9862518310546875,-0.0023040771484375,-0.0155792236328125
1761315826608029000,6.20002880859375,-0.9864044189453125,-0.0018310546875,-0.0158538818359375
1761315826618076000,6.210075927734375,-0.9861602783203125,-0.0016326904296875,-0.0157470703125
1761315826628123600,6.22012353515625,-0.98602294921875,-0.0020294189453125,-0.015533447265625
1761315826638170600,6.230170654296875,-0.9859771728515625,-0.0016326904296875,-0.0162506103515625
1761315826648217600,6.240217529296875,-0.98626708984375,-0.0027313232421875,-0.0168609619140625
1761315826658264800,6.250264892578125,-0.9866790771484375,-0.0026702880859375,-0.0164794921875
1761315826668311800,6.260311767578125,-0.9851226806640625,-0.00238037109375,-0.0163116455078125
1761315826678358800,6.27035888671875,-0.986480712890625,-0.00189208984375,-0.015838623046875
1761315826688405800,6.28040576171875,-0.987152099609375,-0.0019378662109375,-0.0153961181640625
1761315826698452700,6.29045263671875,-0.98553466796875,-0.0022735595703125,-0.016082763671875
1761315826708500000,6.3005,-0.985809326171875,-0.00286865234375,-0.016143798828125
1761315826718547700,6.310547607421875,-0.9860076904296875,-0.0022430419921875,-0.01513671875
1761315826728594700,6.3205947265625,-0.9861907958984375,-0.002685546875,-0.016143798828125
1761315826738641700,6.3306416015625,-0.9861907958984375,-0.0027313232421875,-0.0161895751953125
1761315826748688600,6.340688720703125,-0.9852752685546875,-0.001983642578125,-0.016387939453125
1761315826758736000,6.35073583984375,-0.986572265625,-0.001922607421875,-0.016387939453125
1761315826768782800,6.360782958984375,-0.98614501953125,-0.001922607421875,-0.0162506103515625
1761315826778829800,6.370829833984375,-0.986419677734375,-0.0022430419921875,-0.0162506103515625
1761315826788876800,6.380876708984375,-0.985626220703125,-0.003204345703125,-0.01629638671875
1761315826798923800,6.390923828125,-0.9861602783203125,-0.0025177001953125,-0.016510009765625
1761315826808971800,6.4009716796875,-0.9861297607421875,-0.002685546875,-0.0164337158203125
1761315826819018800,6.411018798828125,-0.9869232177734375,-0.00213623046875,-0.0157623291015625
1761315826829065700,6.421065673828125,-0.9851226806640625,-0.0020751953125,-0.0159149169921875
1761315826839112700,6.43111279296875,-0.9852447509765625,-0.0024871826171875,-0.0156707763671875
1761315826849159700,6.44115966796875,-0.985565185546875,-0.0019683837890625,-0.0159912109375
1761315826859206700,6.45120654296875,-0.98577880859375,-0.0021820068359375,-0.0158233642578125
1761315826869254000,6.46125390625,-0.985748291015625,-0.002288818359375,-0.0147552490234375
1761315826879300900,6.47130078125,-0.986236572265625,-0.001739501953125,-0.0160980224609375
1761315826889350700,6.4813505859375,-0.985992431640625,-0.002655029296875,-0.0168304443359375
1761315826899397600,6.491397705078125,-0.9862518310546875,-0.0018310546875,-0.0155487060546875
1761315826909446000,6.50144580078125,-0.985565185546875,-0.00250244140625,-0.0160675048828125
1761315826919492600,6.51149267578125,-0.98626708984375,-0.0027923583984375,-0.0165252685546875
1761315826929539600,6.52153955078125,-0.9856414794921875,-0.0021820068359375,-0.0157623291015625
1761315826939586600,6.531586669921875,-0.985565185546875,-0.0030975341796875,-0.015594482421875
1761315826949633500,6.541633544921875,-0.98602294921875,-0.0027313232421875,-0.0155487060546875
1761315826959680800,6.5516806640625,-0.98681640625,-0.0018463134765625,-0.0160369873046875
1761315826969727700,6.561727783203125,-0.9856414794921875,-0.002532958984375,-0.0158538818359375
1761315826979774700,6.571774658203125,-0.9849090576171875,-0.002716064453125,-0.0157012939453125
1761315826989821700,6.58182177734375,-0.986053466796875,-0.0031280517578125,-0.0159454345703125
1761315826999869700,6.59186962890625,-0.9859619140625,-0.0025787353515625,-0.01617431640625
1761315827009916700,6.601916748046875,-0.9857635498046875,-0.0026092529296875,-0.0171051025390625
1761315827019963600,6.611963623046875,-0.9853057861328125,-0.0025177001953125,-0.0165252685546875
1761315827030010600,6.6220107421875,-0.98577880859375,-0.002197265625,-0.016204833984375
1761315827040057600,6.6320576171875,-0.987213134765625,-0.0021820068359375,-0.0160675048828125
1761315827050104600,6.6421044921875,-0.986236572265625,-0.0027313232421875,-0.015869140625
1761315827060151800,6.65215185546875,-0.9859619140625,-0.001983642578125,-0.01556396484375
1761315827070198800,6.66219873046875,-0.986663818359375,-0.0015716552734375,-0.0161895751953125
1761315827080245800,6.672245849609375,-0.9871673583984375,-0.0024566650390625,-0.01593017578125
1761315827090292700,6.682292724609375,-0.9864501953125,-0.0030975341796875,-0.0159149169921875
1761315827100340500,6.692340576171875,-0.9852752685546875,-0.0021514892578125,-0.0164337158203125
1761315827110387700,6.7023876953125,-0.9862213134765625,-0.0025482177734375,-0.0155181884765625
1761315827120434700,6.7124345703125,-0.9862213134765625,-0.002197265625,-0.015594482421875
1761315827130481700,6.722481689453125,-0.9859466552734375,-0.002105712890625,-0.0151519775390625
1761315827140528600,6.732528564453125,-0.9861297607421875,-0.0025177001953125,-0.0151824951171875
1761315827150575600,6.74257568359375,-0.986602783203125,-0.00274658203125,-0.017120361328125
1761315827160622600,6.75262255859375,-0.98626708984375,-0.0013275146484375,-0.0162353515625
1761315827170669800,6.762669921875,-0.9860687255859375,-0.0017852783203125,-0.0158538818359375
1761315827180716800,6.772716796875,-0.98638916015625,-0.001617431640625,-0.01629638671875
1761315827190763800,6.782763671875,-0.9862518310546875,-0.0027923583984375,-0.016204833984375
1761315827200811500,6.7928115234375,-0.9869842529296875,-0.0023345947265625,-0.01617431640625
1761315827210858800,6.802858642578125,-0.9852142333984375,-0.002197265625,-0.015380859375
1761315827220905700,6.81290576171875,-0.9851837158203125,-0.0024871826171875,-0.015411376953125
1761315827230952700,6.82295263671875,-0.985870361328125,-0.0019683837890625,-0.0166015625
1761315827240999700,6.832999755859375,-0.9860687255859375,-0.002410888671875,-0.016143798828125
1761315827251046700,6.843046630859375,-0.9855194091796875,-0.001983642578125,-0.0164794921875
1761315827261093600,6.85309375,-0.9860382080078125,-0.002227783203125,-0.0163116455078125
1761315827271140900,6.863140869140625,-0.9865264892578125,-0.00213623046875,-0.0153961181640625
1761315827281187800,6.873187744140625,-0.9852294921875,-0.002288818359375,-0.0161895751953125
1761315827291234800,6.88323486328125,-0.986175537109375,-0.0022430419921875,-0.016021728515625
1761315827301282600,6.893282470703125,-0.986236572265625,-0.0026702880859375,-0.015380859375
1761315827311329500,6.90332958984375,-0.986328125,-0.0021820068359375,-0.015899658203125
1761315827321376800,6.913376708984375,-0.9859619140625,-0.002349853515625,-0.0161590576171875
1761315827331423700,6.923423828125,-0.9859619140625,-0.0023651123046875,-0.0152740478515625
1761315827341470700,6.933470703125,-0.985931396484375,-0.00244140625,-0.0160369873046875
1761315827351517700,6.943517578125,-0.9862518310546875,-0.0017852783203125,-0.017059326171875
1761315827361564700,6.953564697265625,-0.98651123046875,-0.001708984375,-0.01654052734375
1761315827371611600,6.963611572265625,-0.9862060546875,-0.0017242431640625,-0.015655517578125
1761315827381659000,6.973658935546875,-0.9858856201171875,-0.002197265625,-0.015625
1761315827391705900,6.983705810546875,-0.9855194091796875,-0.0030517578125,-0.0160369873046875
1761315827401753600,6.993753662109375,-0.98626708984375,-0.0014190673828125,-0.015960693359375
1761315827411800600,7.003800537109375,-0.9864501953125,-0.0020599365234375,-0.0169219970703125
1761315827421847800,7.013847900390625,-0.98455810546875,-0.00201416015625,-0.016998291015625
1761315827431894800,7.023894775390625,-0.986114501953125,-0.0017852783203125,-0.0155181884765625
1761315827441941800,7.033941650390625,-0.9863433837890625,-0.00244140625,-0.015716552734375
1761315827451988700,7.04398876953125,-0.9856414794921875,-0.0016937255859375,-0.016387939453125
1761315827462035700,7.05403564453125,-0.986602783203125,-0.002166748046875,-0.01605224609375
1761315827472082700,7.064082763671875,-0.986480712890625,-0.0024261474609375,-0.0162506103515625
1761315827482130000,7.0741298828125,-0.9854278564453125,-0.00250244140625,-0.01678466796875
1761315827492177000,7.084177001953125,-0.9848785400390625,-0.002716064453125,-0.015869140625
1761315827502224600,7.094224609375,-0.9861602783203125,-0.0021820068359375,-0.015350341796875
1761315827512271600,7.104271728515625,-0.9856109619140625,-0.0022735595703125,-0.0158843994140625
1761315827522318600,7.114318603515625,-0.98565673828125,-0.0026092529296875,-0.0163116455078125
1761315827532365800,7.12436572265625,-0.985748291015625,-0.0023345947265625,-0.016448974609375
1761315827542412800,7.134412841796875,-0.9860382080078125,-0.00262451171875,-0.015960693359375
1761315827552459800,7.144459716796875,-0.986358642578125,-0.0018157958984375,-0.0167694091796875
1761315827562506800,7.1545068359375,-0.9861907958984375,-0.002197265625,-0.0161285400390625
1761315827572553700,7.1645537109375,-0.9851837158203125,-0.0024871826171875,-0.0160675048828125
1761315827582600700,7.1746005859375,-0.9856414794921875,-0.002471923828125,-0.016937255859375
1761315827592647700,7.184647705078125,-0.9857940673828125,-0.0020751953125,-0.0167999267578125
1761315827602695700,7.19469580078125,-0.985748291015625,-0.00262451171875,-0.015625
1761315827612742700,7.20474267578125,-0.9869232177734375,-0.0016021728515625,-0.0159454345703125
1761315827622789600,7.21478955078125,-0.987091064453125,-0.002532958984375,-0.0148162841796875
1761315827632836900,7.2248369140625,-0.985992431640625,-0.0025482177734375,-0.0159454345703125
1761315827642883800,7.2348837890625,-0.986785888671875,-0.002288818359375,-0.0153045654296875
1761315827652930800,7.244930908203125,-0.9864501953125,-0.002349853515625,-0.015350341796875
1761315827662977800,7.254977783203125,-0.986053466796875,-0.0017547607421875,-0.0163726806640625
1761315827673024800,7.265024658203125,-0.9858245849609375,-0.0018463134765625,-0.01654052734375
1761315827683071500,7.275071533203125,-0.9867706298828125,-0.0025482177734375,-0.0157012939453125
1761315827693118700,7.28511865234375,-0.9863128662109375,-0.0021820068359375,-0.016143798828125
1761315827703166700,7.295166748046875,-0.9850006103515625,-0.001617431640625,-0.016326904296875
1761315827713213700,7.305213623046875,-0.9855499267578125,-0.001800537109375,-0.0160064697265625
1761315827723260700,7.3152607421875,-0.9853057861328125,-0.0019683837890625,-0.0159759521484375
1761315827733307600,7.3253076171875,-0.986053466796875,-0.0018157958984375,-0.0164794921875
1761315827743355000,7.33535498046875,-0.9859619140625,-0.00189208984375,-0.015716552734375
1761315827753401900,7.34540185546875,-0.986297607421875,-0.0027618408203125,-0.0157623291015625
1761315827763448800,7.35544873046875,-0.985382080078125,-0.0023193359375,-0.016448974609375
1761315827773495600,7.36549560546875,-0.9858551025390625,-0.00238037109375,-0.01556396484375
1761315827783542500,7.37554248046875,-0.985687255859375,-0.003173828125,-0.015655517578125
1761315827793589500,7.385589599609375,-0.9851531982421875,-0.0026397705078125,-0.01568603515625
1761315827803637800,7.3956376953125,-0.985565185546875,-0.0025177001953125,-0.016326904296875
1761315827813684700,7.405684814453125,-0.986572265625,-0.0024871826171875,-0.016632080078125
1761315827823731700,7.415731689453125,-0.9858856201171875,-0.0018157958984375,-0.0154571533203125
1761315827833778700,7.42577880859375,-0.9857330322265625,-0.00201416015625,-0.0150299072265625
1761315827843826000,7.435825927734375,-0.98663330078125,-0.0024261474609375,-0.01580810546875
1761315827853873000,7.445872802734375,-0.9858551025390625,-0.0032501220703125,-0.016693115234375
1761315827863919600,7.455919677734375,-0.985321044921875,-0.0022125244140625,-0.0164031982421875
1761315827873966600,7.465966552734375,-0.9850921630859375,-0.0021514892578125,-0.0160064697265625
1761315827884013600,7.476013671875,-0.986480712890625,-0.001922607421875,-0.015594482421875
1761315827894058500,7.48605859375,-0.9868927001953125,-0.0027313232421875,-0.015838623046875
1761315827904105500,7.49610546875,-0.9860076904296875,-0.002685546875,-0.016448974609375
1761315827914153200,7.5061533203125,-0.98590087890625,-0.0020751953125,-0.016082763671875
1761315827924200200,7.5162001953125,-0.98492431640625,-0.0023193359375,-0.0155029296875
1761315827934247400,7.526247314453125,-0.985809326171875,-0.0023193359375,-0.01617431640625
1761315827944294400,7.53629443359375,-0.9856719970703125,-0.002166748046875,-0.0159912109375
1761315827954341400,7.54634130859375,-0.986358642578125,-0.002532958984375,-0.0164947509765625
1761315827964388400,7.556388427734375,-0.9861297607421875,-0.0022735595703125,-0.016021728515625
1761315827974435300,7.566435302734375,-0.9863433837890625,-0.002960205078125,-0.0162506103515625
1761315827984482600,7.576482666015625,-0.9855804443359375,-0.0029754638671875,-0.015625
1761315827994529500,7.586529541015625,-0.9855194091796875,-0.0026092529296875,-0.0152130126953125
1761315828004576500,7.596576416015625,-0.9855194091796875,-0.0015869140625,-0.0155029296875
1761315828014624300,7.606624267578125,-0.98626708984375,-0.0024871826171875,-0.015869140625
1761315828024671200,7.616671142578125,-0.98583984375,-0.0021514892578125,-0.0154266357421875
1761315828034718500,7.626718505859375,-0.985931396484375,-0.001922607421875,-0.0154571533203125
1761315828044765400,7.636765380859375,-0.9854888916015625,-0.00225830078125,-0.0159149169921875
1761315828054812400,7.6468125,-0.9860382080078125,-0.0024566650390625,-0.0158233642578125
1761315828064859400,7.656859375,-0.9844970703125,-0.0026092529296875,-0.016021728515625
1761315828074906400,7.66690625,-0.9856414794921875,-0.002471923828125,-0.0163116455078125
1761315828084953300,7.676953369140625,-0.9863739013671875,-0.002410888671875,-0.01666259765625
1761315828095000600,7.68700048828125,-0.9859771728515625,-0.002166748046875,-0.0165863037109375
1761315828105047600,7.697047607421875,-0.9869384765625,-0.001617431640625,-0.01580810546875
1761315828115094500,7.707094482421875,-0.985809326171875,-0.001983642578125,-0.0155029296875
1761315828125142300,7.717142333984375,-0.98565673828125,-0.0021514892578125,-0.016571044921875
1761315828135189500,7.727189453125,-0.9852447509765625,-0.0023040771484375,-0.01629638671875
1761315828145236500,7.737236572265625,-0.9862060546875,-0.0026702880859375,-0.015533447265625
1761315828155283500,7.747283447265625,-0.9857635498046875,-0.00189208984375,-0.0157470703125
1761315828165330400,7.757330322265625,-0.9853973388671875,-0.002593994140625,-0.016326904296875
1761315828175377400,7.76737744140625,-0.9851837158203125,-0.0020904541015625,-0.016021728515625
1761315828185424400,7.77742431640625,-0.9856109619140625,-0.0024871826171875,-0.0167236328125
1761315828195471600,7.7874716796875,-0.9852142333984375,-0.0025634765625,-0.016632080078125
1761315828205518600,7.7975185546875,-0.9860992431640625,-0.0023956298828125,-0.0155029296875
1761315828215565600,7.807565673828125,-0.98663330078125,-0.002716064453125,-0.015869140625
1761315828225612300,7.8176123046875,-0.9852447509765625,-0.00274658203125,-0.0159454345703125
1761315828235660300,7.827660400390625,-0.985931396484375,-0.0027923583984375,-0.01519775390625
1761315828245707500,7.83770751953125,-0.9862823486328125,-0.0023651123046875,-0.01556396484375
1761315828255754500,7.84775439453125,-0.9857635498046875,-0.00177001953125,-0.01641845703125
1761315828265801500,7.857801513671875,-0.98583984375,-0.0022125244140625,-0.0157623291015625
1761315828275848400,7.867848388671875,-0.9874420166015625,-0.0022430419921875,-0.0151519775390625
1761315828285895400,7.8778955078125,-0.9857330322265625,-0.0023956298828125,-0.0158538818359375
1761315828295942400,7.8879423828125,-0.9864349365234375,-0.0025634765625,-0.016143798828125
1761315828305989400,7.8979892578125,-0.9861907958984375,-0.002410888671875,-0.01617431640625
1761315828316036400,7.908036376953125,-0.9858245849609375,-0.0030364990234375,-0.015716552734375
1761315828326083300,7.918083251953125,-0.9851226806640625,-0.0023651123046875,-0.0167388916015625
1761315828336130300,7.92813037109375,-0.98577880859375,-0.002471923828125,-0.0156097412109375
1761315828346178600,7.938178466796875,-0.9858245849609375,-0.0022430419921875,-0.0153961181640625
1761315828356225500,7.9482255859375,-0.98602294921875,-0.00177001953125,-0.0164794921875
1761315828366272500,7.9582724609375,-0.985626220703125,-0.0028076171875,-0.01654052734375
1761315828376319500,7.968319580078125,-0.9870147705078125,-0.0028533935546875,-0.0157470703125
1761315828386366500,7.978366455078125,-0.985443115234375,-0.002593994140625,-0.0159454345703125
1761315828396413400,7.988413330078125,-0.9853973388671875,-0.0019989013671875,-0.0164031982421875
1761315828406460400,7.99846044921875,-0.9863739013671875,-0.0017547607421875,-0.0155487060546875
1761315828416507400,8.00850732421875,-0.9854278564453125,-0.0031280517578125,-0.0162353515625
1761315828426554400,8.018554443359376,-0.985931396484375,-0.0029754638671875,-0.015899658203125
1761315828436601300,8.028601318359375,-0.9862213134765625,-0.0027923583984375,-0.0157012939453125
1761315828446648300,8.0386484375,-0.9866790771484375,-0.00225830078125,-0.016082763671875
1761315828456696600,8.048696533203126,-0.9857940673828125,-0.0025482177734375,-0.0154266357421875
1761315828466743600,8.05874365234375,-0.98712158203125,-0.002197265625,-0.01629638671875
1761315828476790500,8.06879052734375,-0.9864044189453125,-0.002227783203125,-0.0169219970703125
1761315828486837500,8.07883740234375,-0.986541748046875,-0.0019989013671875,-0.016632080078125
1761315828496884200,8.08888427734375,-0.98626708984375,-0.0019683837890625,-0.0160369873046875
1761315828506931200,8.09893115234375,-0.9866180419921875,-0.0020294189453125,-0.01593017578125
1761315828516978400,8.108978515625,-0.9869232177734375,-0.0022430419921875,-0.014984130859375
1761315828527025400,8.119025390625,-0.98553466796875,-0.0018157958984375,-0.0149688720703125
1761315828537072400,8.129072265625,-0.986083984375,-0.00250244140625,-0.01611328125
1761315828547119400,8.139119384765625,-0.98638916015625,-0.0027008056640625,-0.015533447265625
1761315828557166300,8.149166259765625,-0.985565185546875,-0.00274658203125,-0.016998291015625
1761315828567214600,8.159214599609374,-0.98516845703125,-0.002471923828125,-0.0166778564453125
1761315828577261600,8.169261474609375,-0.9851837158203125,-0.0022430419921875,-0.0160369873046875
1761315828587308300,8.179308349609375,-0.986114501953125,-0.0014801025390625,-0.015289306640625
1761315828597355300,8.189355224609375,-0.9858551025390625,-0.002288818359375,-0.015869140625
1761315828607402200,8.19940234375,-0.98681640625,-0.0022430419921875,-0.015472412109375
1761315828617449500,8.209449462890625,-0.9856109619140625,-0.001983642578125,-0.0157470703125
1761315828627496400,8.219496337890625,-0.98602294921875,-0.002410888671875,-0.01580810546875
1761315828637543400,8.22954345703125,-0.9862518310546875,-0.002410888671875,-0.014739990234375
1761315828647590400,8.23959033203125,-0.9852294921875,-0.0025787353515625,-0.0159454345703125
1761315828657637400,8.249637451171875,-0.9863433837890625,-0.001983642578125,-0.0157012939453125
1761315828667684400,8.259684326171875,-0.98492431640625,-0.0015869140625,-0.01715087890625
1761315828677731600,8.269731689453126,-0.9851837158203125,-0.0022735595703125,-0.016845703125
1761315828687779300,8.279779296875,-0.9857635498046875,-0.0023193359375,-0.015472412109375
1761315828697826300,8.289826416015625,-0.9858245849609375,-0.0023345947265625,-0.0157012939453125
1761315828707873300,8.299873291015626,-0.9862518310546875,-0.0018310546875,-0.01593017578125
1761315828717920300,8.309920166015624,-0.9859771728515625,-0.0020751953125,-0.0154571533203125
1761315828727967500,8.319967529296875,-0.9863433837890625,-0.002532958984375,-0.0162200927734375
1761315828738014500,8.330014404296875,-0.9858245849609375,-0.0030517578125,-0.01611328125
1761315828748061400,8.3400615234375,-0.986572265625,-0.00286865234375,-0.0157012939453125
1761315828758108400,8.3501083984375,-0.9859771728515625,-0.0023345947265625,-0.0164642333984375
1761315828768155400,8.3601552734375,-0.985931396484375,-0.00225830078125,-0.0159149169921875
1761315828778202600,8.37020263671875,-0.986175537109375,-0.0031280517578125,-0.0155181884765625
1761315828788249600,8.38024951171875,-0.9850311279296875,-0.0020294189453125,-0.0165557861328125
1761315828798297300,8.39029736328125,-0.9856719970703125,-0.002410888671875,-0.015777587890625
1761315828808344300,8.40034423828125,-0.9856719970703125,-0.001800537109375,-0.015777587890625
1761315828818391300,8.410391357421876,-0.9861602783203125,-0.0020599365234375,-0.0154876708984375
1761315828828438500,8.4204384765625,-0.9866790771484375,-0.0022125244140625,-0.0163726806640625
1761315828838485500,8.430485595703125,-0.9861602783203125,-0.0029144287109375,-0.015960693359375
1761315828848532500,8.440532470703126,-0.9857025146484375,-0.00213623046875,-0.015838623046875
1761315828858579500,8.450579345703124,-0.986480712890625,-0.0022125244140625,-0.016326904296875
1761315828868626400,8.46062646484375,-0.9859771728515625,-0.002105712890625,-0.0156097412109375
1761315828878673400,8.47067333984375,-0.986480712890625,-0.002960205078125,-0.0162353515625
1761315828888720600,8.480720703125,-0.9866943359375,-0.0028076171875,-0.0160980224609375
1761315828898766000,8.49076611328125,-0.9857635498046875,-0.0024871826171875,-0.0160675048828125
1761315828908813000,8.50081298828125,-0.9871826171875,-0.002685546875,-0.0162353515625
1761315828918860800,8.51086083984375,-0.9866485595703125,-0.002227783203125,-0.0168304443359375
1761315828928907800,8.52090771484375,-0.9865264892578125,-0.0029449462890625,-0.0161285400390625
1761315828938955000,8.530955078125,-0.9861602783203125,-0.0023040771484375,-0.016448974609375
1761315828949002000,8.541001953125,-0.985748291015625,-0.0018768310546875,-0.01617431640625
1761315828959049000,8.551049072265625,-0.98681640625,-0.0024261474609375,-0.0162353515625
1761315828969096000,8.561095947265626,-0.98577880859375,-0.0023651123046875,-0.0162200927734375
1761315828979143000,8.571142822265625,-0.9868927001953125,-0.00213623046875,-0.0158233642578125
1761315828989190000,8.58118994140625,-0.9863128662109375,-0.001861572265625,-0.015869140625
1761315828999237000,8.591237060546876,-0.9859619140625,-0.00274658203125,-0.0159454345703125
1761315829009284000,8.6012841796875,-0.9862060546875,-0.0019683837890625,-0.0162506103515625
1761315829019331000,8.6113310546875,-0.984405517578125,-0.001434326171875,-0.0161590576171875
1761315829029378800,8.62137890625,-0.986175537109375,-0.002044677734375,-0.0156402587890625
1761315829039425800,8.63142578125,-0.9858551025390625,-0.0022430419921875,-0.0166473388671875
1761315829049473000,8.64147314453125,-0.9856719970703125,-0.0030364990234375,-0.0153350830078125
1761315829059520000,8.65152001953125,-0.9867095947265625,-0.0018768310546875,-0.016204833984375
1761315829069567000,8.66156689453125,-0.986846923828125,-0.0018310546875,-0.01611328125
1761315829079614000,8.671614013671874,-0.9858245849609375,-0.00164794921875,-0.016265869140625
1761315829089661000,8.681660888671875,-0.9867095947265625,-0.0019683837890625,-0.015380859375
1761315829099708000,8.6917080078125,-0.98583984375,-0.0019073486328125,-0.0157012939453125
1761315829109755100,8.701755126953126,-0.985595703125,-0.0019378662109375,-0.015472412109375
1761315829119802000,8.711802001953124,-0.9858856201171875,-0.0020294189453125,-0.0154266357421875
1761315829129848800,8.721848876953125,-0.9864044189453125,-0.0025482177734375,-0.0156097412109375
1761315829139895800,8.731895751953125,-0.985931396484375,-0.002410888671875,-0.0166473388671875
1761315829149942800,8.74194287109375,-0.985015869140625,-0.0021209716796875,-0.0163116455078125
1761315829159991000,8.751990966796875,-0.986419677734375,-0.003326416015625,-0.0152130126953125
1761315829170038000,8.7620380859375,-0.9864959716796875,-0.0021514892578125,-0.015625
1761315829180085000,8.7720849609375,-0.98583984375,-0.0013427734375,-0.0153656005859375
1761315829190132000,8.782132080078124,-0.986541748046875,-0.0024261474609375,-0.0159149169921875
1761315829200179000,8.792178955078125,-0.9863739013671875,-0.00177001953125,-0.015594482421875
1761315829210226200,8.80222607421875,-0.9846954345703125,-0.0014801025390625,-0.0152130126953125
1761315829220273000,8.81227294921875,-0.9857330322265625,-0.001495361328125,-0.0161895751953125
1761315829230319900,8.82231982421875,-0.9867401123046875,-0.001953125,-0.0161590576171875
1761315829240366800,8.832366943359375,-0.9858551025390625,-0.001953125,-0.016143798828125
1761315829250413800,8.842413818359375,-0.9863739013671875,-0.001922607421875,-0.0161895751953125
1761315829260460800,8.852460693359374,-0.986480712890625,-0.002410888671875,-0.0153961181640625
1761315829270508000,8.862508056640625,-0.98602294921875,-0.001983642578125,-0.015594482421875
1761315829280556000,8.87255615234375,-0.9866790771484375,-0.0023193359375,-0.0159759521484375
1761315829290603000,8.88260302734375,-0.986907958984375,-0.0015411376953125,-0.0165863037109375
1761315829300650000,8.89264990234375,-0.986175537109375,-0.0029754638671875,-0.0158843994140625
1761315829310697000,8.902697021484375,-0.9857940673828125,-0.002349853515625,-0.01629638671875
1761315829320744000,8.912743896484375,-0.9863739013671875,-0.0023345947265625,-0.01666259765625
1761315829330791000,8.922791015625,-0.9861602783203125,-0.002655029296875,-0.015625
1761315829340838000,8.932837890625,-0.986358642578125,-0.002716064453125,-0.0157928466796875
1761315829350884900,8.942884765625,-0.985260009765625,-0.0026702880859375,-0.015655517578125
1761315829360931800,8.952931884765626,-0.98687744140625,-0.0029754638671875,-0.015960693359375
1761315829370979000,8.96297900390625,-0.9854278564453125,-0.00286865234375,-0.01513671875
1761315829381026000,8.973026123046875,-0.9865264892578125,-0.0025482177734375,-0.0165252685546875
1761315829391073000,8.983072998046875,-0.984771728515625,-0.0016021728515625,-0.015838623046875
1761315829401121000,8.99312109375,-0.9864654541015625,-0.00299072265625,-0.0157318115234375
1761315829411165000,9.0031650390625,-0.985809326171875,-0.0017547607421875,-0.0155181884765625
1761315829421212000,9.0132119140625,-0.985931396484375,-0.0021514892578125,-0.0158843994140625
1761315829431259000,9.0232587890625,-0.98516845703125,-0.0024566650390625,-0.015869140625
1761315829441305900,9.033305908203126,-0.9865875244140625,-0.00177001953125,-0.0154266357421875
1761315829451353000,9.04335302734375,-0.9862213134765625,-0.0021820068359375,-0.016143798828125
1761315829461400000,9.053400146484375,-0.9858551025390625,-0.0024261474609375,-0.0160980224609375
1761315829471447000,9.063447021484375,-0.9859161376953125,-0.0024566650390625,-0.0157623291015625
1761315829481494000,9.073493896484376,-0.9853515625,-0.0017852783203125,-0.0155792236328125
1761315829491541800,9.083541748046875,-0.9853057861328125,-0.0016632080078125,-0.0164642333984375
1761315829501589000,9.093589111328125,-0.9864654541015625,-0.001800537109375,-0.0159149169921875
1761315829511636000,9.103635986328126,-0.9860382080078125,-0.0025482177734375,-0.015350341796875
1761315829521683000,9.113682861328124,-0.9863739013671875,-0.0023040771484375,-0.01580810546875
1761315829531730000,9.12372998046875,-0.985565185546875,-0.0023345947265625,-0.0158233642578125
1761315829541777000,9.13377685546875,-0.9866485595703125,-0.00189208984375,-0.01544189453125
1761315829551824000,9.143823974609376,-0.9871368408203125,-0.0024261474609375,-0.0152435302734375
1761315829561871000,9.15387109375,-0.98553466796875,-0.0021209716796875,-0.0156402587890625
1761315829571918000,9.16391796875,-0.9853057861328125,-0.0021820068359375,-0.0157928466796875
1761315829581965000,9.173965087890625,-0.9862823486328125,-0.001739501953125,-0.016082763671875
1761315829592012000,9.184011962890626,-0.9857635498046875,-0.00225830078125,-0.015655517578125
1761315829602059000,9.19405908203125,-0.9862213134765625,-0.0027313232421875,-0.0156402587890625
1761315829612105700,9.204105712890625,-0.9852142333984375,-0.00262451171875,-0.0157470703125
1761315829622154000,9.214154052734376,-0.9866180419921875,-0.00225830078125,-0.0163116455078125
1761315829632201000,9.224200927734374,-0.9857177734375,-0.00225830078125,-0.016326904296875
1761315829642248000,9.234248046875,-0.98565673828125,-0.0023651123046875,-0.0155487060546875
1761315829652295000,9.244294921875,-0.9871063232421875,-0.002105712890625,-0.0157928466796875
1761315829662342100,9.254342041015626,-0.9860382080078125,-0.0024261474609375,-0.0167388916015625
1761315829672389000,9.26438916015625,-0.9858551025390625,-0.00213623046875,-0.016510009765625
1761315829682436000,9.27443603515625,-0.9866485595703125,-0.003082275390625,-0.0151214599609375
1761315829692483000,9.284483154296876,-0.9860687255859375,-0.001983642578125,-0.0161590576171875
1761315829702529800,9.29452978515625,-0.9849090576171875,-0.002593994140625,-0.016021728515625
1761315829712576800,9.30457666015625,-0.9852142333984375,-0.0027008056640625,-0.0160064697265625
1761315829722624000,9.3146240234375,-0.9862060546875,-0.003204345703125,-0.01605224609375
1761315829732671000,9.3246708984375,-0.9864044189453125,-0.002349853515625,-0.015869140625
1761315829742718000,9.334718017578124,-0.9860687255859375,-0.0031585693359375,-0.0156097412109375
1761315829752766000,9.344765869140625,-0.985504150390625,-0.0026397705078125,-0.016204833984375
1761315829762813000,9.35481298828125,-0.9862060546875,-0.0023193359375,-0.0161285400390625
1761315829772860200,9.364860107421874,-0.985595703125,-0.002410888671875,-0.0159759521484375
1761315829782907100,9.3749072265625,-0.9862213134765625,-0.0020294189453125,-0.0157318115234375
1761315829792953900,9.384953857421875,-0.9864349365234375,-0.00225830078125,-0.0149993896484375
1761315829803000800,9.395000732421876,-0.9858551025390625,-0.00274658203125,-0.0158538818359375
1761315829813047800,9.4050478515625,-0.9861907958984375,-0.0035552978515625,-0.0155792236328125
1761315829823094800,9.4150947265625,-0.9858551025390625,-0.0026397705078125,-0.0159759521484375
1761315829833142000,9.42514208984375,-0.9865875244140625,-0.001495361328125,-0.0161590576171875
1761315829843189000,9.43518896484375,-0.986419677734375,-0.001861572265625,-0.01580810546875
1761315829853236000,9.445236083984375,-0.9861602783203125,-0.0015869140625,-0.0155792236328125
1761315829863283000,9.455282958984375,-0.9853515625,-0.0020904541015625,-0.016143798828125
1761315829873330000,9.465329833984375,-0.9861907958984375,-0.002532958984375,-0.0148468017578125
1761315829883377200,9.475377197265624,-0.9868927001953125,-0.0022125244140625,-0.015777587890625
1761315829893425000,9.4854248046875,-0.985504150390625,-0.0020294189453125,-0.01580810546875
1761315829903473200,9.49547314453125,-0.9862823486328125,-0.0019683837890625,-0.0162353515625
1761315829913520000,9.50552001953125,-0.985565185546875,-0.00177001953125,-0.01611328125
1761315829923567000,9.515567138671875,-0.9853515625,-0.001983642578125,-0.014923095703125
1761315829933614000,9.525614013671875,-0.9855804443359375,-0.002288818359375,-0.0160675048828125
1761315829943661000,9.5356611328125,-0.9864654541015625,-0.0023651123046875,-0.01593017578125
1761315829953708000,9.5457080078125,-0.9855499267578125,-0.0018768310546875,-0.015289306640625
1761315829963755000,9.555755126953125,-0.98602294921875,-0.00201416015625,-0.016357421875
1761315829973802000,9.565802001953125,-0.9858245849609375,-0.0021514892578125,-0.016143798828125
1761315829983849000,9.575848876953126,-0.98638916015625,-0.0019989013671875,-0.01654052734375
1761315829993896000,9.58589599609375,-0.9871368408203125,-0.0023345947265625,-0.015716552734375
1761315830003943000,9.59594287109375,-0.9863128662109375,-0.002349853515625,-0.015716552734375
1761315830013992200,9.6059921875,-0.9854736328125,-0.002197265625,-0.016326904296875
1761315830024039000,9.616038818359375,-0.9865875244140625,-0.002532958984375,-0.0161895751953125
1761315830034086000,9.6260859375,-0.9868316650390625,-0.0027008056640625,-0.0156707763671875
1761315830044132900,9.6361328125,-0.9852142333984375,-0.00152587890625,-0.0161285400390625
1761315830054181000,9.64618115234375,-0.9856414794921875,-0.0015716552734375,-0.0160064697265625
1761315830064228000,9.65622802734375,-0.98602294921875,-0.0020599365234375,-0.015533447265625
1761315830074275000,9.666275146484375,-0.9861602783203125,-0.002960205078125,-0.016357421875
1761315830084322000,9.676322021484374,-0.9863433837890625,-0.0029754638671875,-0.0154571533203125
1761315830094369000,9.686369140625,-0.98577880859375,-0.0021209716796875,-0.015472412109375
1761315830104416300,9.696416259765625,-0.9852294921875,-0.0022430419921875,-0.016815185546875
1761315830114463000,9.706462890625,-0.98602294921875,-0.0020751953125,-0.0157623291015625
1761315830124510000,9.716510009765624,-0.9867095947265625,-0.0025634765625,-0.015869140625
1761315830134557000,9.726556884765625,-0.9862823486328125,-0.0022430419921875,-0.0159912109375
1761315830144604000,9.73660400390625,-0.9859619140625,-0.00189208984375,-0.0166015625
1761315830154651000,9.74665087890625,-0.9864959716796875,-0.0024566650390625,-0.015960693359375
1761315830164698000,9.756697998046874,-0.9862823486328125,-0.00177001953125,-0.0164337158203125
1761315830174745000,9.7667451171875,-0.985626220703125,-0.0024566650390625,-0.016021728515625
1761315830184792000,9.7767919921875,-0.9864501953125,-0.0026092529296875,-0.015625
1761315830194839000,9.786839111328124,-0.986663818359375,-0.0019989013671875,-0.0156707763671875
1761315830204887000,9.796886962890625,-0.9859771728515625,-0.0030670166015625,-0.015838623046875
1761315830214934000,9.80693408203125,-0.985687255859375,-0.003326416015625,-0.01556396484375
1761315830224981000,9.81698095703125,-0.9862823486328125,-0.002838134765625,-0.01629638671875
1761315830235028000,9.827028076171874,-0.9858856201171875,-0.0023040771484375,-0.0157012939453125
1761315830245075000,9.837074951171875,-0.9853515625,-0.0015869140625,-0.0157318115234375
1761315830255122000,9.847121826171875,-0.985870361328125,-0.0020751953125,-0.0151519775390625
1761315830265169200,9.857169189453124,-0.98614501953125,-0.0026092529296875,-0.0164337158203125
1761315830275216100,9.867216064453125,-0.9864349365234375,-0.002471923828125,-0.0173797607421875
1761315830285263000,9.87726318359375,-0.9860992431640625,-0.002593994140625,-0.0167236328125
1761315830295310000,9.88731005859375,-0.985595703125,-0.0022125244140625,-0.0160980224609375
1761315830305357000,9.897357177734374,-0.986053466796875,-0.0020904541015625,-0.015716552734375
1761315830315404000,9.907404052734375,-0.985687255859375,-0.0018310546875,-0.0163116455078125
1761315830325451000,9.917450927734375,-0.9863128662109375,-0.0014801025390625,-0.015777587890625
1761315830335499000,9.9274990234375,-0.9865264892578125,-0.002197265625,-0.0157470703125
1761315830345546000,9.9375458984375,-0.98590087890625,-0.00225830078125,-0.0167388916015625
1761315830355593000,9.947593017578125,-0.9850006103515625,-0.00201416015625,-0.0166015625
1761315830365640000,9.957639892578126,-0.986236572265625,-0.002044677734375,-0.016571044921875
1761315830375687200,9.967687255859374,-0.9856109619140625,-0.0023193359375,-0.0159912109375
1761315830385734100,9.977734130859375,-0.98614501953125,-0.0024566650390625,-0.0159149169921875
1761315830395781000,9.987781005859375,-0.98577880859375,-0.0023040771484375,-0.0161590576171875
1761315830405828000,9.997828125,-0.98614501953125,-0.002166748046875,-0.01641845703125
1761315830415875000,10.007875,-0.9857025146484375,-0.002716064453125,-0.0151214599609375
1761315830425922000,10.017922119140625,-0.98614501953125,-0.0024261474609375,-0.0157928466796875
1761315830435969000,10.027968994140625,-0.9862213134765625,-0.0026702880859375,-0.0164337158203125
1761315830446016000,10.03801611328125,-0.986419677734375,-0.0029144287109375,-0.0157928466796875
1761315830456063000,10.04806298828125,-0.9864349365234375,-0.002349853515625,-0.015869140625
1761315830466110000,10.05810986328125,-0.9866790771484375,-0.0020294189453125,-0.0158538818359375
1761315830476158200,10.068158203125,-0.9868621826171875,-0.001434326171875,-0.0149993896484375
1761315830486205200,10.078205078125,-0.9860992431640625,-0.0015869140625,-0.0160369873046875
1761315830496252200,10.088252197265625,-0.9859619140625,-0.00250244140625,-0.0170745849609375
1761315830506299100,10.098299072265625,-0.9860382080078125,-0.00244140625,-0.015777587890625
1761315830516345900,10.108345947265626,-0.9862213134765625,-0.002777099609375,-0.015411376953125
1761315830526392800,10.118392822265625,-0.9848175048828125,-0.003204345703125,-0.01611328125
1761315830536440000,10.128440185546875,-0.985565185546875,-0.002410888671875,-0.016876220703125
