time,seconds_elapsed,z,y,x
1761315820511932200,0.10393212890625,0.007019559852778912,-0.007455519400537014,0.0028724854346364737
1761315820521979100,0.113979248046875,0.006311425473541021,-0.0062666842713952065,0.0019481023773550987
1761315820532026000,0.124026123046875,0.007159908767789602,-0.005568936001509428,0.0017787253018468618
1761315820542073000,0.134072998046875,0.01125292107462883,-0.008588162250816822,-0.0005209143273532391
1761315820552120000,0.1441201171875,0.008986837230622768,-0.007543936371803284,-0.0004040015337523073
1761315820562167000,0.1541669921875,0.00872345082461834,-0.006108758971095085,0.004427505191415548
1761315820572214000,0.164214111328125,0.007922371849417686,-0.007001183927059174,0.0028445222415030003
1761315820582261000,0.174260986328125,0.008943960070610046,-0.006472812965512276,0.0006703176186420023
1761315820592309000,0.18430908203125,0.008705873973667622,-0.008045942522585392,0.0008356999605894089
1761315820602356000,0.19435595703125,0.007506119552999735,-0.007816378027200699,0.0007225155713967979
1761315820612403200,0.2044033203125,0.007684817537665367,-0.006514624692499638,0.0024487765040248632
1761315820622450200,0.2144501953125,0.006447246763855219,-0.00743341539055109,0.0032557144295424223
1761315820632497200,0.2244970703125,0.007994011044502258,-0.007405451964586973,-0.000031425301131093875
1761315820642544000,0.234544189453125,0.006918360013514757,-0.0066637615673244,0.0012128035305067897
1761315820652591000,0.244591064453125,0.008707204833626747,-0.007619836367666721,-0.0012064119800925255
1761315820662637800,0.254637939453125,0.007650462910532951,-0.009000685065984726,0.0026724820490926504
1761315820672685000,0.26468505859375,0.009179649874567986,-0.008993228897452354,0.0036522590089589357
1761315820682733000,0.274733154296875,0.006205698009580374,-0.006401706486940384,0.0011060107499361038
1761315820692780000,0.284780029296875,0.003921770956367254,-0.009374327026307583,0.0020383833907544613
1761315820702827000,0.294826904296875,0.007696002721786499,-0.006366286426782608,0.0013073458103463054
1761315820712874000,0.3048740234375,0.0054885088466107845,-0.007636614143848419,0.000026897927455138415
1761315820722921200,0.314921142578125,0.006317817140370607,-0.006229666527360678,0.001017061178572476
1761315820732968200,0.32496826171875,0.0049284459091722965,-0.006247509736567736,0.0005962817813269794
1761315820743015200,0.33501513671875,0.0062826634384691715,-0.008587895892560482,0.0031398669816553593
1761315820753062000,0.345061767578125,0.006926615722477436,-0.00797536876052618,0.0013880395563319325
1761315820763110000,0.35510986328125,0.006740460637956858,-0.009061139076948166,0.0016130766598507762
1761315820773157000,0.3651572265625,0.010302172042429447,-0.008568720892071724,0.0007949535502120852
1761315820783204000,0.3752041015625,0.008974586613476276,-0.009895507246255875,0.0009110674145631492
1761315820793251000,0.3852509765625,0.00965395849198103,-0.007724765222519636,0.002108957152813673
1761315820803298000,0.395298095703125,0.007047256920486689,-0.00839454960078001,0.0037760960403829813
1761315820813345000,0.405344970703125,0.006542854011058807,-0.008387359790503979,0.0019020296167582273
1761315820823392300,0.415392333984375,0.008767392486333847,-0.008766060695052147,0.0009201221400871873
1761315820833439200,0.425439208984375,0.006566289812326431,-0.008991897106170654,0.0006399576086550951
1761315820843487000,0.435487060546875,0.009677927009761333,-0.008919192478060722,0.002490588231012225
1761315820853534000,0.445533935546875,0.007580954115837812,-0.006370547693222761,0.001731853699311614
1761315820863581000,0.455580810546875,0.007102916948497295,-0.007937817834317684,0.003820837242528796
1761315820873628200,0.465628173828125,0.007113036699593067,-0.006580670829862356,0.0025244103744626045
1761315820883675100,0.475675048828125,0.00765845226123929,-0.007897870615124702,0.0018578211311250925
1761315820893722400,0.485722412109375,0.006106894463300705,-0.006383863277733326,-0.00025353292585350573
1761315820903769300,0.495769287109375,0.008085090667009354,-0.007809187285602093,0.0022892532870173454
1761315820913816300,0.50581640625,0.009914149530231953,-0.007958324626088142,0.000025566347176209092
1761315820923864300,0.5158642578125,0.005687713157385588,-0.00782862864434719,0.0033398703671991825
1761315820933911300,0.525911376953125,0.008496282622218132,-0.005251220893114805,0.004287423100322485
1761315820943958300,0.535958251953125,0.0038714371621608734,-0.007284278050065041,0.0017001620726659894
1761315820954005200,0.546005126953125,0.006024336442351341,-0.006864031311124563,0.0019718045368790627
1761315820964052500,0.556052490234375,0.004014182835817337,-0.005029113497585058,0.004063983913511038
1761315820974099500,0.566099365234375,0.0071098413318395615,-0.009980462491512299,0.001213602488860488
1761315820984146400,0.576146484375,0.007757255341857672,-0.006080529186874628,0.0015747271245345473
1761315820994193400,0.586193359375,0.005870406050235033,-0.00797377061098814,0.003543335711583495
1761315821004241200,0.5962412109375,0.004487426485866308,-0.007844607345759869,0.0027507790364325047
1761315821014288400,0.606288330078125,0.0062760054133832455,-0.006502906791865826,0.0007909588166512549
1761315821024335400,0.61633544921875,0.00908377580344677,-0.00791491474956274,0.004189951345324516
1761315821034382300,0.62638232421875,0.010205766186118126,-0.007796403951942921,0.0008543420699425042
1761315821044429300,0.63642919921875,0.008322378620505333,-0.007290669716894627,0.003829092951491475
1761315821054476300,0.646476318359375,0.006135923322290182,-0.006589991971850395,0.002683134749531746
1761315821064523300,0.656523193359375,0.006268814671784639,-0.009131180122494698,0.0006250438746064901
1761315821074570500,0.666570556640625,0.008735435083508492,-0.006166815757751465,-0.0005880259559489787
1761315821084618200,0.6766181640625,0.008438758552074432,-0.0067812069319188595,0.001270061475224793
1761315821094665200,0.686665283203125,0.008876049891114235,-0.008164186961948872,0.0034224283881485462
1761315821104712200,0.696712158203125,0.008040083572268486,-0.00484269205480814,-0.00009667274571256712
1761315821114759400,0.706759521484375,0.007159642409533262,-0.006750048138201237,0.0033566481433808804
1761315821124806400,0.716806396484375,0.010044910944998264,-0.005980394314974546,-0.0001840244367485866
1761315821134853400,0.726853271484375,0.005545766558498144,-0.008681639097630978,0.0007922904333099723
1761315821144900400,0.736900390625,0.00740198977291584,-0.0076059880666434765,0.0001448759576305747
1761315821154947300,0.746947265625,0.007969243451952934,-0.006396113894879818,0.0025899240281432867
1761315821164995300,0.756995361328125,0.01125265471637249,-0.006599845830351114,0.0009715211344882846
1761315821175042300,0.767042236328125,0.007253651972860098,-0.004318848252296448,0.0015670040156692266
1761315821185089300,0.77708935546875,0.007668572477996349,-0.007795072626322508,0.0008934905636124313
1761315821195136300,0.78713623046875,0.005319664254784584,-0.009009740315377712,0.0031822111923247576
1761315821205183200,0.797183349609375,0.006798783782869577,-0.007631554268300533,0.0010151970200240612
1761315821215230200,0.807230224609375,0.0070698936469852924,-0.00800120085477829,0.0035124430432915688
1761315821225277400,0.81727734375,0.005048021674156189,-0.0070488546043634415,0.002531600883230567
1761315821235325400,0.827325439453125,0.005097290500998497,-0.009012136608362198,-0.00008309062832267955
1761315821245372400,0.837372314453125,0.006169212516397238,-0.008287491276860237,0.0018540926976129413
1761315821255419100,0.847419189453125,0.005560946650803089,-0.0070943948812782764,0.0011222560424357653
1761315821265466000,0.857466064453125,0.006051500793546438,-0.006704507861286402,-0.0007225155713967979
1761315821275513300,0.867513427734375,0.009197226725518703,-0.006192648317664862,0.003043726785108447
1761315821285560300,0.877560302734375,0.00917219277471304,-0.007132744416594505,0.0036938043776899576
1761315821295607300,0.887607177734375,0.007952997460961342,-0.008489624597132206,0.0020572920329868793
1761315821305654300,0.897654296875,0.007608118467032909,-0.009291502647101879,0.0012937636347487569
1761315821315702500,0.90770263671875,0.008757539093494415,-0.006369482260197401,0.0030858046375215054
1761315821325749500,0.91774951171875,0.005592371802777052,-0.006481867749243975,0.0011435613268986344
1761315821335796500,0.92779638671875,0.006609965581446886,-0.004853877238929272,-0.0005289037944748998
1761315821345843200,0.93784326171875,0.008637962862849236,-0.008441155776381493,0.00096086849225685
1761315821355890200,0.94789013671875,0.008392153307795525,-0.0082483422011137,0.0015837819082662463
1761315821365937200,0.957937255859375,0.010545585304498672,-0.008319182321429253,0.002572879893705249
1761315821375984400,0.967984375,0.006051234435290098,-0.0070669641718268394,-0.00039601203752681613
1761315821386031400,0.97803125,0.009867011569440365,-0.00905661191791296,0.0020655477419495583
1761315821396079400,0.988079345703125,0.007251254748553038,-0.00675324397161603,0.0009406284661963582
1761315821406126300,0.998126220703125,0.009093363769352436,-0.005969741847366095,0.001770469476468861
1761315821416173300,1.00817333984375,0.006271477788686752,-0.007218498270958662,0.0010639328975230455
1761315821426220500,1.018220458984375,0.005612345412373543,-0.006871754303574562,0.0035268242936581373
1761315821436267300,1.028267333984375,0.008769789710640907,-0.007771902717649937,-0.000004261057711119065
1761315821446314200,1.038314208984375,0.00863343570381403,-0.007160174660384655,0.0011195929255336523
1761315821456361200,1.048361328125,0.0070464578457176685,-0.008384696207940578,0.002612028270959854
1761315821466409500,1.058409423828125,0.005084773525595665,-0.008320514112710953,0.0011651329696178436
1761315821476456400,1.06845654296875,0.007309312000870705,-0.008083226159214973,-0.0022426480427384377
1761315821486503400,1.07850341796875,0.006426740437746048,-0.00821132492274046,0.001139033935032785
1761315821496550400,1.08855029296875,0.005533515941351652,-0.007144462317228317,0.0009241168736480176
1761315821506597400,1.098597412109375,0.007929296232759953,-0.008841162547469139,0.0016852483386173844
1761315821516644400,1.108644287109375,0.008021707646548748,-0.00851652305573225,0.001499625970609486
1761315821526691300,1.11869140625,0.007958058267831802,-0.007812649011611938,0.004285292699933052
1761315821536738300,1.12873828125,0.00663420045748353,-0.007527158595621586,0.0021065603941679
1761315821546786300,1.138786376953125,0.009040100499987602,-0.00785605888813734,0.0005866943974979222
1761315821556833300,1.148833251953125,0.011409514583647251,-0.008106395602226257,0.0010732539230957627
1761315821566880300,1.15888037109375,0.007779626175761223,-0.005979329347610474,0.001841842196881771
1761315821576927500,1.168927490234375,0.007502391003072262,-0.006409695837646723,-0.0005022721597924829
1761315821586974500,1.178974365234375,0.008538094349205494,-0.008853678591549397,0.0018098842119798064
1761315821597021400,1.189021484375,0.00914476253092289,-0.006184925325214863,0.0007992146420292556
1761315821607068400,1.199068359375,0.0075785573571920395,-0.009862484410405159,0.0026098978705704212
1761315821617116200,1.2091162109375,0.008535963483154774,-0.0084262415766716,0.0022061625495553017
1761315821627163400,1.219163330078125,0.007346329744905233,-0.0073444657027721405,0.0037081853952258825
1761315821637210400,1.22921044921875,0.007904794998466969,-0.007689611054956913,0.0027742148377001286
1761315821647257300,1.23925732421875,0.008700015023350716,-0.008127967827022076,0.0009725864510983229
1761315821657304300,1.24930419921875,0.005305283237248659,-0.0070832096971571445,0.0007113303290680051
1761315821667351300,1.259351318359375,0.0062943813391029835,-0.008645686320960522,0.0010122675448656082
1761315821677398500,1.2693984375,0.008012918755412102,-0.00933011807501316,0.0031491878908127546
1761315821687445500,1.279445556640625,0.006397712044417858,-0.006287190597504377,0.004463191609829664
1761315821697493200,1.2894931640625,0.008036088198423386,-0.007434746716171503,0.0031310785561800003
1761315821707540200,1.299540283203125,0.005673864856362343,-0.008775915019214153,0.002523078816011548
1761315821717587200,1.309587158203125,0.006843258626759052,-0.0075726984068751335,-0.00018988338706549257
1761315821727634400,1.319634521484375,0.005908222869038582,-0.006930876523256302,0.003790477057918906
1761315821737681400,1.329681396484375,0.006669620517641306,-0.008460329845547676,0.00173717993311584
1761315821747728400,1.339728271484375,0.004343615844845772,-0.00737429317086935,0.004826446995139122
1761315821757775400,1.349775390625,0.006896255537867546,-0.006853911560028791,0.0021973741240799427
1761315821767823000,1.359822998046875,0.005897836294025183,-0.006217948626726866,0.0011507519520819187
1761315821777870300,1.369870361328125,0.008124238811433315,-0.007838215678930283,0.002376604825258255
1761315821787917300,1.379917236328125,0.005306614562869072,-0.007474694401025772,0.0018112158868461847
1761315821797964300,1.38996435546875,0.00923531036823988,-0.008451009169220924,0.000553404854144901
1761315821808011300,1.40001123046875,0.009759419597685337,-0.009832390584051609,0.0025654230266809464
1761315821818058200,1.410058349609375,0.008444351144134998,-0.007650729268789291,0.0012141350889578462
1761315821828105500,1.42010546875,0.00917538907378912,-0.007675230037420988,0.0009917612187564373
1761315821838153500,1.430153564453125,0.009315204806625843,-0.008373244665563107,-0.0007243797881528735
1761315821848200400,1.440200439453125,0.009493104182183743,-0.007134342100471258,0.0016647420125082135
1761315821858247200,1.4502470703125,0.007156446576118469,-0.006695719435811043,0.00006178533658385277
1761315821868294100,1.460294189453125,0.008172175846993923,-0.0084262415766716,0.0022394522093236446
1761315821878341400,1.47034130859375,0.0062674833461642265,-0.008145011961460114,0.001651692553423345
1761315821888389000,1.48038916015625,0.006913832388818264,-0.0075814868323504925,0.0022913836874067783
1761315821898436400,1.490436279296875,0.006424343679100275,-0.007453122641891241,0.0019520970527082682
1761315821908484000,1.500484130859375,0.008831574581563473,-0.005120193585753441,0.0021228056866675615
1761315821918531000,1.510531005859375,0.009245696477591991,-0.0073567163199186325,0.0006916229031048715
1761315821928578000,1.520578125,0.008496548980474472,-0.006648315116763115,0.0008583368035033345
1761315821938625000,1.530625,0.008244347758591175,-0.007507983595132828,0.0020927118603140116
1761315821948672300,1.54067236328125,0.008126369677484035,-0.009485114365816116,0.0031103058718144894
1761315821958719200,1.55071923828125,0.0067718857899308205,-0.007530620787292719,0.00025726135936565697
1761315821968766200,1.56076611328125,0.0059937103651463985,-0.00663366774097085,0.0008636631537228823
1761315821978813200,1.570813232421875,0.00558118661865592,-0.00851705577224493,0.0015094797126948833
1761315821988861400,1.580861328125,0.007501325570046902,-0.00830826349556446,0.0009121326729655266
1761315821998908200,1.590908203125,0.010101902298629284,-0.006940464023500681,0.00227939966134727
1761315822008955100,1.600955078125,0.008044877089560032,-0.00827683787792921,0.0008037420338951051
1761315822019002000,1.611002197265625,0.00481419637799263,-0.00734313391149044,0.0010357033461332321
1761315822029049000,1.621049072265625,0.006733004003763199,-0.006885603070259094,-0.0014700648607686162
1761315822039096000,1.631095947265625,0.005075718741863966,-0.006470416206866503,0.0015036207623779774
1761315822049143300,1.641143310546875,0.008616391569375992,-0.006910370197147131,0.0025007082149386406
1761315822059191300,1.65119140625,0.00552339619025588,-0.007531153038144112,0.003233610186725855
1761315822069238300,1.66123828125,0.007454453967511654,-0.00583818182349205,0.0014990933705121279
1761315822079285200,1.67128515625,0.008164718747138977,-0.007045392412692308,0.003245328087359667
1761315822089332200,1.681332275390625,0.009007875807583332,-0.007502923719584942,0.003581951605156064
1761315822099379200,1.691379150390625,0.008344216272234917,-0.007685616612434387,-0.001008805469609797
1761315822109426200,1.70142626953125,0.006268548313528299,-0.0070914654061198235,0.0028096348978579044
1761315822119473200,1.71147314453125,0.00818229652941227,-0.008873652666807175,0.002516687149181962
1761315822129521200,1.721521240234375,0.008607069961726665,-0.007209443487226963,0.0006956176948733628
1761315822139568000,1.731568115234375,0.00950748473405838,-0.00854208879172802,0.0020120181143283844
1761315822149615400,1.741615478515625,0.009139436297118664,-0.008589759469032288,0.0013907026732340455
1761315822159662300,1.751662353515625,0.009939183481037617,-0.00746164470911026,0.0024434502702206373
1761315822169709300,1.761709228515625,0.007723966147750616,-0.008726113475859165,0.002570749493315816
1761315822179756300,1.77175634765625,0.010296579450368881,-0.009753827005624771,0.0011323761427775025
1761315822189803000,1.781802978515625,0.008564991876482964,-0.007919708266854286,0.002554770326241851
1761315822199851300,1.791851318359375,0.009643838740885258,-0.008109059184789658,-0.00004021373388241045
1761315822209898200,1.801898193359375,0.008784702979028225,-0.008470982313156128,0.0006072007236070931
1761315822219945200,1.8119453125,0.008919458836317062,-0.005352421198040247,0.0033665020018815994
1761315822229992200,1.8219921875,0.007614243775606155,-0.0095671396702528,0.0011329087428748608
1761315822240039200,1.8320390625,0.004344148561358452,-0.009314405731856823,0.0013576794881373644
1761315822250086400,1.84208642578125,0.006946855690330267,-0.007982292212545872,0.006387858185917139
1761315822260133400,1.85213330078125,0.006079197861254215,-0.00987260416150093,0.0001816275907913223
1761315822270180400,1.862180419921875,0.007724232506006956,-0.007133277133107185,0.0008492820779792964
1761315822280228000,1.87222802734375,0.00857564527541399,-0.008298410102725029,0.0018916432745754719
1761315822290275000,1.882275146484375,0.008309861645102501,-0.00974583812057972,-0.00012197277828818187
1761315822300322300,1.892322265625,0.005320996046066284,-0.0065162223763763905,0.0019622170366346836
1761315822310369300,1.902369384765625,0.007902664132416248,-0.007992679253220558,0.00006631271389778703
1761315822320416300,1.912416259765625,0.007193464320152998,-0.007390538230538368,-0.0005187837523408234
1761315822330463200,1.922463134765625,0.006941263098269701,-0.008890164084732533,0.0011350392596796155
1761315822340510200,1.93251025390625,0.01119246706366539,-0.009022790007293224,0.001919073867611587
1761315822350558200,1.94255810546875,0.008854211308062077,-0.008191084489226341,0.0027864654548466206
1761315822360605200,1.952605224609375,0.008162056095898151,-0.008138353936374187,0.0015193333383649588
1761315822370652200,1.962652099609375,0.008771653287112713,-0.005603024736046791,0.002267415402457118
1761315822380699100,1.97269921875,0.007196926511824131,-0.008385228924453259,0.00045593318645842373
1761315822390746000,1.98274609375,0.011175422929227352,-0.007212639320641756,0.0017323862994089723
1761315822400793300,1.99279345703125,0.008863799273967743,-0.005036303773522377,0.0006660565850324929
1761315822410840300,2.00284033203125,0.00830000825226307,-0.007813714444637299,0.004171309061348438
1761315822420888000,2.01288818359375,0.007869641296565533,-0.008971656672656536,0.0025092302821576595
1761315822430935000,2.02293505859375,0.006330866366624832,-0.0070648337714374065,0.0007816377910785377
1761315822440982000,2.03298193359375,0.006509032100439072,-0.007299724500626326,0.003498594742268324
1761315822451029200,2.043029296875,0.008160990662872791,-0.00407543545588851,0.00012729909212794155
1761315822461076200,2.053076171875,0.004942027851939201,-0.006539924535900354,-0.000441818410763517
1761315822471123200,2.063123291015625,0.005917544011026621,-0.008489890955388546,-0.00044554684427566826
1761315822481170200,2.073170166015625,0.007482950109988451,-0.007195861078798771,0.0031372036319226027
1761315822491218200,2.08321826171875,0.005787315312772989,-0.009514675475656986,0.0021164140198379755
1761315822501265400,2.093265380859375,0.008176703006029129,-0.00836658664047718,0.0027425233274698257
1761315822511312100,2.10331201171875,0.0067841364070773125,-0.007352455053478479,0.0005933523061685264
1761315822521359000,2.113359130859375,0.006947921123355627,-0.01095677725970745,0.0014362427173182368
1761315822531406000,2.123406005859375,0.007278951816260815,-0.0062483083456754684,0.0009169263648800552
1761315822541453000,2.133453125,0.005784385837614536,-0.008553008548915386,0.0021076255943626165
1761315822551500300,2.143500244140625,0.00740119069814682,-0.0062336609698832035,0.00546294217929244
1761315822561548300,2.15354833984375,0.0062392535619437695,-0.006138053722679615,0.0009355684742331505
1761315822571595300,2.16359521484375,0.007734352257102728,-0.006579339504241943,0.0006109291571192443
1761315822581642200,2.173642333984375,0.004006193019449711,-0.006470149848610163,0.0013749900972470641
1761315822591689200,2.183689208984375,0.007458981592208147,-0.008408931083977222,0.00033396040089428425
1761315822601736200,2.193736083984375,0.00748960766941309,-0.007101851515471935,0.0024794030468910933
1761315822611783200,2.203783203125,0.009073656052350998,-0.008673382923007011,0.002124137245118618
1761315822621830100,2.213830078125,0.009299492463469505,-0.007697867229580879,-0.00035260253935121
1761315822631877000,2.223877197265625,0.008734369650483131,-0.007865912280976772,0.0014780544443055987
1761315822641925000,2.233925048828125,0.009309612214565277,-0.006970557849854231,-0.0004828310920856893
1761315822651972400,2.243972412109375,0.008443285711109638,-0.00869042705744505,0.003314303932711482
1761315822662019300,2.254019287109375,0.007759386207908392,-0.00751890242099762,0.0027443873696029186
1761315822672066300,2.26406640625,0.007244597189128399,-0.0062736086547374725,0.0033755565527826548
1761315822682113300,2.27411328125,0.007873902097344398,-0.008268848992884159,0.0011856392957270145
1761315822692160300,2.28416015625,0.010780742391943932,-0.006667756475508213,0.002287655370309949
1761315822702207000,2.29420703125,0.008067780174314976,-0.007178017869591713,0.0006253102328628302
1761315822712255200,2.304255126953125,0.008576976135373116,-0.008318116888403893,0.0023398532066494226
1761315822722302200,2.31430224609375,0.00872238539159298,-0.008356733247637749,0.0011281149927526712
1761315822732349200,2.32434912109375,0.00914209894835949,-0.006530869752168655,0.002897519152611494
1761315822742396200,2.334396240234375,0.006941529456526041,-0.005922603886574507,0.0014612764352932572
1761315822752443400,2.344443359375,0.007119428366422653,-0.0067572384141385555,0.0009832390351220965
1761315822762490400,2.354490478515625,0.007364972028881311,-0.005957757588475943,-0.0004338289436418563
1761315822772537300,2.364537353515625,0.005399559158831835,-0.006117547396570444,0.0009448895580135286
1761315822782585000,2.374585205078125,0.006591323763132095,-0.006314887665212154,0.0007597998483106494
1761315822792632000,2.384632080078125,0.005033374298363924,-0.005842442624270916,0.0014468954177573323
1761315822802679300,2.39467919921875,0.008105064742267132,-0.009858756326138973,-0.0014828480780124664
1761315822812726300,2.404726318359375,0.006773750297725201,-0.007868575863540173,0.0021731394808739424
1761315822822773200,2.414773193359375,0.007839281111955643,-0.007065898738801479,0.0010519486386328936
1761315822832820200,2.4248203125,0.00965608935803175,-0.008626244962215424,-0.00014460964302998036
1761315822842867200,2.4348671875,0.00541473925113678,-0.007670436520129442,-0.00141041015740484
1761315822852915200,2.444915283203125,0.00808828603476286,-0.009313073940575123,0.0017829863354563713
1761315822862962200,2.454962158203125,0.009018261916935444,-0.007380152121186256,0.0022887205705046654
1761315822873009200,2.465009033203125,0.010253170505166054,-0.005564675200730562,0.0024519723374396563
1761315822883056000,2.47505615234375,0.01025609951466322,-0.007441671099513769,0.0008703210623934865
1761315822893106200,2.485106201171875,0.009307214990258217,-0.007850732654333115,0.0027470507193356752
1761315822903153200,2.495153076171875,0.006369482260197401,-0.008041148073971272,0.004475175868719816
1761315822913200000,2.5052001953125,0.008725314401090145,-0.005812349263578653,0.001802693703211844
1761315822923248000,2.515248046875,0.007867776788771152,-0.0065412563271820545,0.002154231071472168
1761315822933295400,2.52529541015625,0.01022494025528431,-0.007613977417349815,0.001573928166180849
1761315822943342300,2.53534228515625,0.008648615330457687,-0.009396697394549847,0.0013752563390880823
1761315822953389000,2.54538916015625,0.0062573631294071674,-0.011115235276520252,-0.0008870989549905062
1761315822963436000,2.55543603515625,0.007174023427069187,-0.008964733220636845,-0.0014319816837087274
1761315822973483000,2.56548291015625,0.006895722821354866,-0.008465389721095562,0.0020090886391699314
1761315822983530200,2.5755302734375,0.0060174125246703625,-0.008019044063985348,0.000758734589908272
1761315822993578200,2.585578125,0.0063034361228346825,-0.009151154197752476,-0.0010924286907538772
1761315823003625200,2.595625244140625,0.007906658574938774,-0.007370298262685537,0.0007155913626775146
1761315823013672200,2.605672119140625,0.006296778097748756,-0.009701362811028957,0.0002468750171829015
1761315823023719200,2.61571923828125,0.006321545224636793,-0.008787899278104305,0.0021827267482876778
1761315823033766100,2.62576611328125,0.006970557849854231,-0.006376673001796007,0.0007270429632626474
1761315823043813000,2.635813232421875,0.005675728898495436,-0.007193997036665678,-0.001398159540258348
1761315823053860000,2.645860107421875,0.007523962762206793,-0.00788615271449089,0.0018346516881138086
1761315823063907000,2.655906982421875,0.006441654171794653,-0.00686216726899147,0.0017334514996036887
1761315823073955000,2.665955078125,0.005477589555084705,-0.008832373656332493,0.0015654060989618301
1761315823084002300,2.676002197265625,0.009188970550894737,-0.008326373063027859,0.004520449787378311
1761315823094049300,2.68604931640625,0.007865113206207752,-0.008738097734749317,0.0014000238152220845
1761315823104096300,2.69609619140625,0.009029713459312916,-0.007734085898846388,0.0037230991292744875
1761315823114143200,2.706143310546875,0.008500277064740658,-0.005185441114008427,0.004444282967597246
1761315823124190200,2.716190185546875,0.00800413079559803,-0.007129548583179712,0.0015539544401690364
1761315823134237000,2.72623681640625,0.006776413414627314,-0.007383880205452442,0.0007882956997491419
1761315823144285200,2.73628515625,0.008636364713311195,-0.008816128596663475,0.00008096009696600959
1761315823154332200,2.746332275390625,0.007480020634829998,-0.006397179327905178,0.0033281524665653706
1761315823164379100,2.756379150390625,0.008951417170464993,-0.007576426956802607,0.004129231441766024
1761315823174426000,2.766426025390625,0.00980602577328682,-0.007345797028392553,0.0018687400734052062
1761315823184473300,2.776473388671875,0.008360194973647594,-0.007957791909575462,0.0029108349699527025
1761315823194520300,2.786520263671875,0.008283229544758797,-0.006404902320355177,0.002689792774617672
1761315823204567300,2.7965673828125,0.008635831996798515,-0.00800173357129097,0.0032083101104944944
1761315823214615000,2.806614990234375,0.006007025949656963,-0.006993194576352835,0.002216815249994397
1761315823224662000,2.816662109375,0.006372411735355854,-0.0073234266601502895,0.004238686989992857
1761315823234709200,2.826709228515625,0.006454703398048878,-0.007616107817739248,0.001999235013499856
1761315823244756200,2.836756103515625,0.006636863574385643,-0.007392668630927801,0.0028850024100393057
1761315823254803200,2.84680322265625,0.006624080706387758,-0.006156163290143013,0.005721268709748983
1761315823264850200,2.85685009765625,0.004098072182387114,-0.005941246170550585,0.002528937766328454
1761315823274897200,2.866897216796875,0.01124999113380909,-0.009955961257219315,0.0010985539993271232
1761315823284945200,2.876945068359375,0.0037982002831995487,-0.007193997036665678,0.00467651104554534
1761315823294992100,2.8869921875,0.00708693778142333,-0.007233145646750927,0.002085521351546049
1761315823305039000,2.8970390625,0.0032589102629572153,-0.009645969606935978,0.0020852552261203527
1761315823315086000,2.907086181640625,0.006196376867592335,-0.009943444281816483,0.002941727638244629
1761315823325133000,2.917133056640625,0.007907457649707794,-0.006872020661830902,0.0026197514962404966
1761315823335180300,2.92718017578125,0.006581203546375036,-0.005835518706589937,0.0043619913049042225
1761315823345227300,2.937227294921875,0.00980496034026146,-0.007405451964586973,0.002005093963816762
1761315823355275300,2.947275146484375,0.0068150293081998825,-0.007536479737609625,0.0015954998089000583
1761315823365322200,2.957322265625,0.009443302638828754,-0.010724549181759357,0.0023971113841980696
1761315823375369000,2.967368896484375,0.005210474599152803,-0.008100536651909351,0.004156128969043493
1761315823385416200,2.977416259765625,0.010148773901164532,-0.008765527978539467,0.0005725796218030155
1761315823395463200,2.987463134765625,0.005844839382916689,-0.006085855886340141,0.00307621737010777
1761315823405510100,2.99751025390625,0.010972489602863789,-0.007952199317514896,0.001520665013231337
1761315823415557000,3.00755712890625,0.007450459524989128,-0.009755691513419151,0.0008825715631246567
1761315823425604000,3.01760400390625,0.009830259718000889,-0.007831824012100697,0.0011861718958243728
1761315823435652400,3.02765234375,0.007248857989907265,-0.008656072430312634,-0.0004649879119824618
1761315823445699300,3.03769921875,0.00863503385335207,-0.006673881784081459,0.0018991001415997744
1761315823455746000,3.04774609375,0.00669332267716527,-0.007934888824820518,0.0028996497858315706
1761315823465793000,3.05779296875,0.005114068277180195,-0.008827047422528267,0.004131894558668137
1761315823475840000,3.067840087890625,0.006875216495245695,-0.006855509243905544,0.002740392694249749
1761315823485887000,3.077886962890625,0.006665625609457493,-0.00884915143251419,0.0022501046769320965
1761315823495934200,3.087934326171875,0.007096258923411369,-0.00586614478379488,0.003489806316792965
1761315823505982200,3.097982177734375,0.007418235298246145,-0.008758338168263435,0.004133225884288549
1761315823516029200,3.108029296875,0.007821171544492245,-0.007764446083456278,0.0012322446564212441
1761315823526076200,3.118076171875,0.004995557479560375,-0.008194546215236187,0.0005246427026577294
1761315823536123400,3.128123291015625,0.0062278020195662975,-0.006690659560263157,0.00036911413189955056
1761315823546170000,3.138170166015625,0.004734035115689039,-0.006858438719063997,-0.00033342777169309556
1761315823556217000,3.148217041015625,0.006104231346398592,-0.010595119558274746,0.0035984632559120655
1761315823566264000,3.15826416015625,0.007005711551755667,-0.006416886579245329,0.0011614045361056924
1761315823576312000,3.16831201171875,0.004337224178016186,-0.008315720595419407,0.0026176210958510637
1761315823586359300,3.178359375,0.007834753952920437,-0.010959707200527191,0.003294330323114991
1761315823596406300,3.18840625,0.005474926438182592,-0.009643838740885258,0.0024652881547808647
1761315823606453200,3.198453369140625,0.00751916877925396,-0.007933823391795158,0.004515922162681818
1761315823616500200,3.208500244140625,0.006357498001307249,-0.007906658574938774,0.0007459514308720827
1761315823626547200,3.218547119140625,0.006417952012270689,-0.007368167862296104,0.0005896238726563752
1761315823636594200,3.22859423828125,0.007691209204494953,-0.008947421796619892,0.0010213222121819854
1761315823646641200,3.23864111328125,0.009004946798086166,-0.007921839132905006,0.0012311793398112059
1761315823656689200,3.248689208984375,0.009403621777892113,-0.007133277133107185,0.0003270361921750009
1761315823666736000,3.258736083984375,0.007691209204494953,-0.005880792159587145,0.0031649006996303797
1761315823676783000,3.268783203125,0.007068828213959932,-0.008897887542843819,0.0019630161114037037
1761315823686830300,3.278830322265625,0.00902625173330307,-0.008668855763971806,0.0018604843644425273
1761315823696877300,3.288877197265625,0.007580687757581472,-0.009739979170262814,0.0008468852029182017
1761315823706924300,3.29892431640625,0.008742092177271843,-0.007370564620941877,0.0010689928894862533
1761315823716971300,3.30897119140625,0.007760451175272465,-0.007527690846472979,0.00048602689639665186
1761315823727019000,3.31901904296875,0.007351655978709459,-0.0072837453335523605,0.0034946000669151545
1761315823737066200,3.329066162109375,0.006521016359329224,-0.008915997110307217,0.004553206264972687
1761315823747113200,3.33911328125,0.009376724250614643,-0.006298375781625509,0.0008191883680410683
1761315823757160200,3.34916015625,0.00592553336173296,-0.009543703868985176,0.002770220162346959
1761315823767207200,3.359207275390625,0.0057409764267504215,-0.005882390309125185,-0.00034115093876607716
1761315823777254100,3.369254150390625,0.007280283607542515,-0.008987369947135448,0.0005917543894611299
1761315823787301000,3.379301025390625,0.007782555650919676,-0.008569786325097084,0.0024088292848318815
1761315823797349000,3.38934912109375,0.006744988262653351,-0.004305266309529543,0.001547030289657414
1761315823807396000,3.39939599609375,0.005622731987386942,-0.008649414405226707,0.00032863407977856696
1761315823817443000,3.409443115234375,0.008204933255910873,-0.006874950136989355,0.002389388158917427
1761315823827490000,3.419489990234375,0.008685899898409843,-0.007892544381320477,0.003585680155083537
1761315823837537000,3.429537109375,0.007254716940224171,-0.0065135592594742775,0.0020362529903650284
1761315823847584300,3.439584228515625,0.0067630973644554615,-0.00905448105186224,0.004186755511909723
1761315823857631200,3.44963134765625,0.00845526996999979,-0.010014284402132034,0.004481567535549402
1761315823867678200,3.45967822265625,0.007763380650430918,-0.008053398691117764,-0.00021145498612895608
1761315823877726000,3.469725830078125,0.00780519237741828,-0.00896499864757061,0.003999002743512392
1761315823887773200,3.479773193359375,0.00839934404939413,-0.008160457946360111,0.002400306984782219
1761315823897816800,3.48981689453125,0.007417702581733465,-0.0075998627580702305,0.002282062778249383
1761315823907863800,3.49986376953125,0.008885104209184647,-0.006988401059061289,0.0015624766238033772
1761315823917910800,3.509910888671875,0.007168697193264961,-0.0075665730983018875,-0.0011406318517401814
1761315823927957800,3.519957763671875,0.007185741327702999,-0.0073386067524552345,0.0011598066193982959
1761315823938004700,3.530004638671875,0.006302370689809322,-0.007811850402504206,0.0005645901546813548
1761315823948053000,3.540052978515625,0.008025968447327614,-0.006905576679855585,0.0034751589410007
1761315823958100000,3.550099853515625,0.006307963281869888,-0.007470965851098299,0.00041758365114219487
1761315823968146700,3.560146728515625,0.007704791147261858,-0.009533584117889404,0.0010002832859754562
1761315823978193700,3.570193603515625,0.007439806591719389,-0.004067711997777224,0.0033446638844907284
1761315823988240600,3.58024072265625,0.00785472709685564,-0.007246194873005152,0.0012455604737624526
1761315823998287600,3.59028759765625,0.005890379659831524,-0.007727428339421749,0.003951598424464464
1761315824008334800,3.6003349609375,0.006580937188118696,-0.008507467806339264,0.001413073274306953
1761315824018381800,3.6103818359375,0.006563626695424318,-0.007710916455835104,0.0007683219737373292
1761315824028429800,3.620429931640625,0.004147340543568134,-0.008836634457111359,0.002127599436789751
1761315824038476800,3.630476806640625,0.008744755759835243,-0.0067905280739068985,-0.0003534014686010778
1761315824048523800,3.640523681640625,0.006057359743863344,-0.007217432837933302,0.0012900352012366056
1761315824058570800,3.65057080078125,0.007713313214480877,-0.008449411019682884,0.002688460983335972
1761315824068617700,3.66061767578125,0.0034794199746102095,-0.00833649281412363,0.0006705839768983424
1761315824078664700,3.670664794921875,0.003921504598110914,-0.008761533536016941,-0.00016484966909047216
1761315824088711700,3.680711669921875,0.0059721386060118675,-0.004281830508261919,0.002840527566149831
1761315824098760000,3.690760009765625,0.005151352379471064,-0.00923131499439478,0.0022450448013842106
1761315824108807000,3.700806884765625,0.006994526367634535,-0.006911169271916151,0.004565190523862839
1761315824118854000,3.71085400390625,0.006253368686884642,-0.006343116983771324,0.0004442152567207813
1761315824128900900,3.72090087890625,0.006316218990832567,-0.00884861871600151,-0.0015313175972551107
1761315824138947800,3.73094775390625,0.007473895326256752,-0.006108492612838745,0.002448244020342827
1761315824148994600,3.74099462890625,0.00884888507425785,-0.008993228897452354,-0.00003408846168895252
1761315824159041800,3.751041748046875,0.0070496536791324615,-0.00785472709685564,0.00281948852352798
1761315824169088800,3.7610888671875,0.008412925526499748,-0.008303469978272915,0.0026695525739341974
1761315824179136800,3.77113671875,0.0073511237278580666,-0.008531969040632248,0.0006964165950194001
1761315824189183700,3.781183837890625,0.009397230111062527,-0.00765765318647027,0.0014484933344647288
1761315824199230700,3.791230712890625,0.005253351293504238,-0.007297860458493233,-0.0003376888344064355
1761315824209278000,3.80127783203125,0.010267284698784351,-0.007261374965310097,-0.00009400958515470847
1761315824219325000,3.811324951171875,0.009140501730144024,-0.008228635415434837,0.00019893812714144588
1761315824229372000,3.821371826171875,0.00803422462195158,-0.005014732480049133,-0.000006924218723725062
1761315824239418600,3.831418701171875,0.007099721115082502,-0.007424626965075731,0.0005270395777188241
1761315824249465600,3.841465576171875,0.007268831599503756,-0.0063007730059325695,0.0009574064170010388
1761315824259513900,3.851513916015625,0.007297860458493233,-0.007337008602917194,0.0012452941155061126
1761315824269560800,3.861560791015625,0.009836385026574135,-0.008568188175559044,0.002189118415117264
1761315824279607800,3.87160791015625,0.007395065855234861,-0.008955677971243858,0.00007084008393576369
1761315824289654800,3.88165478515625,0.007397995330393314,-0.01014185044914484,-0.001413073274306953
1761315824299701800,3.89170166015625,0.006331399083137512,-0.007197192870080471,0.00373055599629879
1761315824309749000,3.9017490234375,0.006551376078277826,-0.007998271845281124,0.000940095866099
1761315824319796000,3.9117958984375,0.00632021389901638,-0.006203301250934601,0.0007262440049089491
1761315824329842700,3.9218427734375,0.005075718741863966,-0.008497614413499832,0.001847701147198677
1761315824339890700,3.931890625,0.00812104344367981,-0.008414523676037788,-0.00034221619716845453
1761315824349937700,3.941937744140625,0.007900799624621868,-0.010057427920401096,0.0011574097443372011
1761315824359985000,3.95198486328125,0.008068845607340336,-0.008393751457333565,0.0021752698812633753
1761315824370031900,3.962031982421875,0.007152984384447336,-0.008506935089826584,-0.00004367584188003093
1761315824380078800,3.972078857421875,0.005512476898729801,-0.008921589702367783,0.0008767126128077507
1761315824390125800,3.982125732421875,0.0060110208578407764,-0.0078046596609056,0.0026258768048137426
1761315824400172800,3.9921728515625,0.008251804858446121,-0.007119162008166313,0.00129695946816355
1761315824410220800,4.002220703125,0.007647533435374498,-0.00765791954472661,0.0029289445374161005
1761315824420267800,4.012267822265625,0.009147691540420055,-0.007497064769268036,0.00105328019708395
1761315824430314800,4.022314697265625,0.007081078831106424,-0.007032875902950764,0.001689775730483234
1761315824440361700,4.03236181640625,0.007225155830383301,-0.007074687164276838,0.0017249294323846698
1761315824450408700,4.04240869140625,0.007531685754656792,-0.007279218174517155,0.0007478156476281583
1761315824460456000,4.0524560546875,0.007144462317228317,-0.008684301748871803,0.0012540825409814715
1761315824470503000,4.0625029296875,0.00768721429631114,-0.008843558840453625,0.0017270599491894245
1761315824480550000,4.0725498046875,0.007835020311176777,-0.007213437929749489,0.0038631814531981945
1761315824490597600,4.08259765625,0.008028898388147354,-0.007427290081977844,0.0032945964485406876
1761315824500644600,4.09264453125,0.006986536551266909,-0.005613677203655243,0.0024913870729506016
1761315824510691800,4.10269189453125,0.005080778617411852,-0.007484015077352524,0.004262655507773161
1761315824520738800,4.11273876953125,0.01041349209845066,-0.008392419666051865,0.00307541829533875
1761315824530785800,4.122785888671875,0.009074455127120018,-0.008851548656821251,0.0009467537747696042
1761315824540832800,4.132832763671875,0.00808908510953188,-0.007933557033538818,0.0006894923863001168
1761315824550879700,4.142879638671875,0.006795321591198444,-0.008274974301457405,0.0017193368403241038
1761315824560926700,4.1529267578125,0.007000385317951441,-0.007444067858159542,0.004248274490237236
1761315824570974700,4.162974609375,0.008540225215256214,-0.008243282325565815,0.0015795208746567369
1761315824581021700,4.173021728515625,0.008701345883309841,-0.006985737942159176,0.002263686852529645
1761315824591068700,4.183068603515625,0.0076217008754611015,-0.008945558220148087,0.005937517620623112
1761315824601115600,4.19311572265625,0.006082660052925348,-0.00663579860702157,0.002305764937773347
1761315824611163000,4.203162841796875,0.006292783189564943,-0.00827683787792921,-0.000009321063771494664
1761315824621209900,4.2132099609375,0.007454986684024334,-0.006942328065633774,-0.00032623723382130265
1761315824631256800,4.2232568359375,0.005550027824938297,-0.006518353242427111,0.0034011229872703552
1761315824641303800,4.2333037109375,0.010129333473742008,-0.007690410129725933,0.0004801679460797459
1761315824651351800,4.243351806640625,0.007833954878151417,-0.008955677971243858,0.0030868700705468655
1761315824661398800,4.253398681640625,0.006266417913138866,-0.008749016560614109,0.000803209375590086
1761315824671445800,4.26344580078125,0.008902148343622684,-0.007808920927345753,-0.0002924150903709233
1761315824681492700,4.27349267578125,0.00851385947316885,-0.00694978516548872,-0.0002735066518653184
1761315824691539700,4.283539794921875,0.005025917664170265,-0.008704275824129581,0.00293400464579463
1761315824701586700,4.293586669921875,0.009463010355830193,-0.0072896042838692665,0.0035920715890824795
1761315824711633700,4.303633544921875,0.007097324356436729,-0.007078149355947971,0.0025185514241456985
1761315824721681000,4.313680908203125,0.007828895002603531,-0.00729359919205308,0.002385659608989954
1761315824731729000,4.32372900390625,0.009156480431556702,-0.004884770140051842,0.0021899172570556402
1761315824741776000,4.33377587890625,0.006525010801851749,-0.006945523899048567,0.003556119045242667
1761315824751822600,4.343822509765625,0.007533816155046225,-0.010040650144219398,0.004430967383086681
1761315824761869800,4.353869873046875,0.007686149328947067,-0.007796936668455601,0.0018695390317589045
1761315824771916800,4.363916748046875,0.005648031830787659,-0.007388940546661615,0.0057036918587982655
1761315824781963800,4.3739638671875,0.005141498986631632,-0.006874683778733015,0.001856489572674036
1761315824792010800,4.3840107421875,0.007363107521086931,-0.006557235028594732,0.0007515440811403096
1761315824802058800,4.394058837890625,0.006284793838858604,-0.0041188448667526245,0.0033329459838569164
1761315824812106000,4.40410595703125,0.0068238177336752415,-0.0072355424053967,0.00310497940517962
1761315824822153000,4.414153076171875,0.0051806471310555935,-0.009589243680238724,0.002156894188374281
1761315824832200000,4.424199951171875,0.005524194799363613,-0.008251005783677101,0.0022354573011398315
1761315824842246700,4.43424658203125,0.0058669438585639,-0.008191617205739021,0.002373941708356142
1761315824852293600,4.444293701171875,0.006021406967192888,-0.00899589154869318,0.0010050770360976458
1761315824862340600,4.454340576171875,0.008392952382564545,-0.0072866748087108135,-0.0008780442294664681
1761315824872387800,4.464387939453125,0.00506906071677804,-0.006912234704941511,0.0020996362436562777
1761315824882434800,4.474434814453125,0.005765477195382118,-0.0070246197283267975,0.005576925817877054
1761315824892482300,4.484482421875,0.005298092495650053,-0.006721286103129387,0.0013709953054785728
1761315824902529300,4.494529296875,0.006865363102406263,-0.006898652296513319,0.00011957593233091757
1761315824912576300,4.504576171875,0.008621984161436558,-0.0060059609822928905,0.001076715998351574
1761315824922623200,4.514623291015625,0.00629091914743185,-0.009602293372154236,0.0013337110867723823
1761315824932670200,4.524670166015625,0.005361742340028286,-0.007227020338177681,0.0020394488237798214
1761315824942717200,4.53471728515625,0.005647499579936266,-0.007754592224955559,0.0019116170005872846
1761315824952764200,4.54476416015625,0.010075803846120834,-0.007558850105851889,0.0017265273490920663
1761315824962811100,4.55481103515625,0.007538876496255398,-0.008474444970488548,0.003695668652653694
1761315824972859100,4.564859130859375,0.00729466462507844,-0.006854710169136524,0.0002463423879817128
1761315824982906000,4.574906005859375,0.008756473660469055,-0.007891745306551456,0.002492984989657998
1761315824992953000,4.584953125,0.010058493353426456,-0.00959749985486269,0.0031281490810215473
1761315825003000300,4.595000244140625,0.00817910023033619,-0.006245112512260675,0.001437041675671935
1761315825013047300,4.60504736328125,0.009247560054063797,-0.008697884157299995,0.0010697918478399515
1761315825023094300,4.61509423828125,0.007632086984813213,-0.0059479037299752235,0.0008785768295638263
1761315825033141200,4.625141357421875,0.007995608262717724,-0.008775115944445133,0.0017148094484582543
1761315825043188000,4.63518798828125,0.006773217581212521,-0.00933091714978218,0.0015246596885845065
1761315825053236200,4.645236328125,0.008009190671145916,-0.007924768142402172,0.0019313243683427572
1761315825063283200,4.655283203125,0.0083673857152462,-0.007137271575629711,0.0008908273885026574
1761315825073330200,4.665330078125,0.004996622912585735,-0.007224090863019228,0.00216514989733696
1761315825083377200,4.675377197265625,0.007990548387169838,-0.00811971165239811,0.0003605920064728707
1761315825093424000,4.685424072265625,0.0065409899689257145,-0.007098922040313482,0.0005187837523408234
1761315825103471400,4.695471435546875,0.007727428339421749,-0.008469118736684322,-0.00005273058923194185
1761315825113518300,4.705518310546875,0.009004414081573486,-0.007996673695743084,0.0015033544041216373
1761315825123565300,4.7155654296875,0.006953780073672533,-0.007530886679887772,0.002058357233181596
1761315825133613000,4.725613037109375,0.005607818253338337,-0.009312807582318783,-0.00013848437811248004
1761315825143660000,4.735659912109375,0.008793225511908531,-0.00869042705744505,0.005544168874621391
1761315825153707300,4.745707275390625,0.005391569808125496,-0.00806218758225441,0.00008628641808172688
1761315825163754200,4.755754150390625,0.009075786918401718,-0.009110141545534134,0.0005821670056320727
1761315825173801200,4.76580126953125,0.006702643819153309,-0.00803049560636282,0.005057076457887888
1761315825183848200,4.77584814453125,0.007808654569089413,-0.00962892547249794,0.0028221518732607365
1761315825193895200,4.785895263671875,0.007063235621899366,-0.007245928514748812,0.003282079705968499
1761315825203942100,4.795942138671875,0.007715444080531597,-0.008128766901791096,0.0019473034190014005
1761315825213990100,4.805990234375,0.007589476183056831,-0.007907990366220474,0.0030162963084876537
1761315825224037000,4.816037109375,0.007241401355713606,-0.008578307926654816,0.0024730113800615072
1761315825234084000,4.826083984375,0.006743123754858971,-0.008320247754454613,0.001805623178370297
1761315825244131000,4.836131103515625,0.007436610758304596,-0.00926220789551735,0.0005776396137662232
1761315825254178000,4.846177978515625,0.007092264015227556,-0.008547415025532246,0.0018197379540652037
1761315825264225300,4.856225341796875,0.00823928788304329,-0.007486678194254637,-0.0006109291571192443
1761315825274272300,4.866272216796875,0.006598780397325754,-0.0059537626802921295,0.000017843178284238093
1761315825284319200,4.8763193359375,0.008842493407428265,-0.007890679873526096,-0.000645550258923322
1761315825294366200,4.8863662109375,0.007837416604161263,-0.0076089175418019295,0.003739344421774149
1761315825304414200,4.896414306640625,0.008372978307306767,-0.006216350477188826,0.0021587584633380175
1761315825314461200,4.906461181640625,0.007890147157013416,-0.00929176900535822,0.0016801883466541767
1761315825324508200,4.916508056640625,0.006998520810157061,-0.005886384751647711,0.0015494271647185087
1761315825334555100,4.92655517578125,0.007093595806509256,-0.006272010505199432,0.0033318807836622
1761315825344602000,4.93660205078125,0.006684267893433571,-0.008271245285868645,-0.00041438787593506277
1761315825354649000,4.946649169921875,0.005050418432801962,-0.008133027702569962,0.0009241168736480176
1761315825364696300,4.9566962890625,0.00458596320822835,-0.008159392513334751,0.002662628423422575
1761315825374743300,4.966743408203125,0.007321296259760857,-0.007128749508410692,0.001957689644768834
1761315825384791000,4.976791015625,0.006202768534421921,-0.009187106974422932,0.0013550163712352514
1761315825394838000,4.986838134765625,0.007821970619261265,-0.008104532025754452,0.002653307281434536
1761315825404884200,4.99688427734375,0.007494135294109583,-0.007036071736365557,0.0035276231355965137
1761315825414931000,5.006930908203125,0.004206729121506214,-0.005338572897017002,0.0031121699139475822
1761315825424978200,5.016978271484375,0.005703159607946873,-0.007587079424411058,0.003381948219612241
1761315825435025200,5.027025146484375,0.007734352257102728,-0.007708253338932991,0.0014554174849763513
1761315825445072100,5.037072021484375,0.008274707943201065,-0.010030529461801052,0.0017057546647265553
1761315825455120100,5.0471201171875,0.007928230799734592,-0.008755674585700035,-0.00003968110104324296
1761315825465167400,5.05716748046875,0.006987601984292269,-0.008331699296832085,0.0013004215434193611
1761315825475214300,5.06721435546875,0.008349276147782803,-0.007527424953877926,0.005516205448657274
1761315825485261300,5.07726123046875,0.008925584144890308,-0.007095992565155029,0.003561977995559573
1761315825495308300,5.087308349609375,0.009829195216298103,-0.007514375261962414,0.0026759442407637835
1761315825505355000,5.09735498046875,0.008931975811719894,-0.007958058267831802,0.0016580841038376093
1761315825515402000,5.107402099609375,0.010180199518799782,-0.009690710343420506,0.0022620889358222485
1761315825525449200,5.11744921875,0.008327438496053219,-0.00902705080807209,0.001782187377102673
1761315825535496200,5.12749609375,0.006301305256783962,-0.00669465446844697,0.002186455298215151
1761315825545544200,5.137544189453125,0.008526376448571682,-0.010617224499583244,0.004554804414510727
1761315825555591200,5.147591064453125,0.009938917122781277,-0.006644320674240589,0.0008167914929799736
1761315825565638100,5.15763818359375,0.006193447392433882,-0.006594785954803228,0.0022711437195539474
1761315825575685400,5.167685302734375,0.005279982928186655,-0.00675191218033433,0.0035840822383761406
1761315825585732000,5.177732177734375,0.007960454560816288,-0.00808828603476286,0.001686846255324781
1761315825595779000,5.187779052734375,0.006845921743661165,-0.006191316992044449,0.005117264110594988
1761315825605826000,5.197825927734375,0.007288272958248854,-0.008980179205536842,0.00230789533816278
1761315825615873000,5.207873046875,0.006051500793546438,-0.007842476479709148,0.0023513049818575382
1761315825625921300,5.21792138671875,0.008344482630491257,-0.007876564748585224,0.003233876544982195
1761315825635968300,5.22796826171875,0.008077633567154408,-0.007158576976507902,0.003438939806073904
1761315825646015200,5.23801513671875,0.00555162550881505,-0.006059490609914064,0.0007507451227866113
1761315825656062200,5.248062255859375,0.0060150157660245895,-0.008356200531125069,0.0030189594253897667
1761315825666109200,5.258109130859375,0.006387059111148119,-0.007527158595621586,0.0016620787791907787
1761315825676156200,5.26815625,0.00643819198012352,-0.010751447640359402,0.0022218753583729267
1761315825686203100,5.278203125,0.00797456968575716,-0.0073047843761742115,0.001996838254854083
1761315825696250000,5.28825,0.005343100056052208,-0.008974053896963596,0.002656236756592989
1761315825706297000,5.298297119140625,0.008713330142199993,-0.006900783162564039,0.0018128136871382594
1761315825716345000,5.308344970703125,0.007333280518651009,-0.007174556143581867,0.0007523429812863469
1761315825726392300,5.318392333984375,0.00785605888813734,-0.006967095658183098,0.0012679309584200382
1761315825736439300,5.328439208984375,0.0075695025734603405,-0.008131163194775581,-0.0010543455136939883
1761315825746486300,5.338486328125,0.0100212087854743,-0.007378820329904556,0.0021465078461915255
1761315825756533200,5.348533203125,0.006976416800171137,-0.006133526097983122,0.0019536949694156647
1761315825766580200,5.358580322265625,0.007682154420763254,-0.008961270563304424,-0.002013882389292121
1761315825776627000,5.368626953125,0.007771104108542204,-0.007355917245149612,0.0004290352517273277
1761315825786674200,5.378674072265625,0.009107211604714394,-0.007926632650196552,0.0009856359101831913
1761315825796721200,5.38872119140625,0.008025435730814934,-0.008102933876216412,0.002630404196679592
1761315825806769200,5.39876904296875,0.007909322157502174,-0.00794367678463459,0.003233876544982195
1761315825816816000,5.408816162109375,0.007101851515471935,-0.007719172164797783,0.0016972325975075364
1761315825826863000,5.418863037109375,0.006785734556615353,-0.007586813066154718,0.002916161436587572
1761315825836910300,5.428910400390625,0.007285609841346741,-0.0068174260668456554,0.0005044027348048985
1761315825846957300,5.438957275390625,0.006515423767268658,-0.005298358853906393,0.0014674017438665032
1761315825857004300,5.44900439453125,0.008134359493851662,-0.008058193139731884,0.0018492990639060736
1761315825867051000,5.459051025390625,0.0060086240991950035,-0.008804410696029663,-0.0008852347382344306
1761315825877098000,5.469097900390625,0.007594802882522345,-0.007072024047374725,-0.0002460760879330337
1761315825887146200,5.479146240234375,0.006927947048097849,-0.00920601561665535,0.0011837751371785998
1761315825897194000,5.489194091796875,0.00797110702842474,-0.00689119566231966,0.0010953581659123302
1761315825907241000,5.499240966796875,0.007270962465554476,-0.008795888163149357,0.002663161139935255
1761315825917288000,5.509287841796875,0.006797452457249165,-0.007617173250764608,0.0030192257836461067
1761315825927335000,5.5193349609375,0.004939364735037088,-0.007638478651642799,0.0013193299528211355
1761315825937381600,5.529381591796875,0.008446215651929379,-0.007926899008452892,0.0024530377704650164
1761315825947428600,5.5394287109375,0.007025685161352158,-0.007773767225444317,0.0016708672046661377
1761315825957475800,5.549475830078125,0.007988950237631798,-0.009942378848791122,0.0023377228062599897
1761315825967522800,5.559522705078125,0.00848456472158432,-0.0108257494866848,0.004707137122750282
1761315825977570800,5.56957080078125,0.0060325926169753075,-0.007141799200326204,0.002010420197620988
1761315825987617800,5.57961767578125,0.008355135098099709,-0.00592633243650198,0.0013606089632958174
1761315825997664800,5.589664794921875,0.008744755759835243,-0.007895739749073982,0.0000013315805063029984
1761315826007712800,5.599712646484375,0.007437143474817276,-0.006959639023989439,-0.00012543488992378116
1761315826017759700,5.609759765625,0.009169530123472214,-0.00839588139206171,0.003421362955123186
1761315826027806700,5.619806640625,0.008729576133191586,-0.006887733470648527,0.0034112429711967707
1761315826037853700,5.629853759765625,0.0077471355907619,-0.008164453320205212,0.000147272803587839
1761315826047900700,5.639900634765625,0.008696818724274635,-0.005515672732144594,0.0010892328573390841
1761315826057948000,5.649947998046875,0.007286408916115761,-0.007505320478230715,0.0015166702214628458
1761315826067995000,5.659994873046875,0.008649680763483047,-0.006505569908767939,0.0014026869321241975
1761315826078042600,5.670042724609375,0.010823619551956654,-0.009527725167572498,-0.0012215919559821486
1761315826088089600,5.680089599609375,0.005508216097950935,-0.006455502472817898,0.0012125372886657715
1761315826098136800,5.69013671875,0.0059867859818041325,-0.0059937103651463985,0.0018647453980520368
1761315826108183800,5.700183837890625,0.006469883490353823,-0.007015299052000046,0.0020511667244136333
1761315826118230800,5.710230712890625,0.0063785370439291,-0.005934055428951979,0.0028274781070649624
1761315826128277800,5.72027783203125,0.00566960358992219,-0.007186539936810732,0.0021433120127767324
1761315826138324700,5.73032470703125,0.008194812573492527,-0.008292018435895443,0.00004394215648062527
1761315826148371700,5.740371826171875,0.006502640433609486,-0.006154298782348633,0.00250550196506083
1761315826158419000,5.7504189453125,0.00395692465826869,-0.008584433235228062,0.004187288228422403
1761315826168466700,5.760466796875,0.008493619970977306,-0.005079180933535099,0.0028535770252346992
1761315826178513700,5.770513671875,0.009579923003911972,-0.0067905280739068985,0.0029635655228048563
1761315826188560600,5.780560546875,0.006432599388062954,-0.008685367181897163,0.000666589243337512
1761315826198607600,5.790607666015625,0.006427805405110121,-0.010575945489108562,0.000559530162718147
1761315826208654800,5.80065478515625,0.007668838836252689,-0.008889098651707172,0.0044080642983317375
1761315826218701800,5.810701904296875,0.009161273948848248,-0.006866694428026676,0.0009933591354638338
1761315826228748800,5.820748779296875,0.006081860978156328,-0.008904012851417065,0.0022591594606637955
1761315826238795800,5.830795654296875,0.006906908005475998,-0.006299973931163549,0.002055427758023143
1761315826248842800,5.8408427734375,0.008682969957590103,-0.0065473816357553005,0.0024860608391463757
1761315826258890800,5.850890869140625,0.008985239081084728,-0.007411843631416559,0.000966727442573756
1761315826268937700,5.860937744140625,0.00866406224668026,-0.008084557950496674,0.002351038623601198
1761315826278984700,5.870984619140625,0.008313589729368687,-0.007969776168465614,0.00009560748003423214
1761315826289031700,5.88103173828125,0.008402006700634956,-0.006972954608500004,0.0020841897930949926
1761315826299078700,5.89107861328125,0.006871754303574562,-0.005879993550479412,0.0035422705113887787
1761315826309126000,5.9011259765625,0.007183876819908619,-0.006296511739492416,0.0022101574577391148
1761315826319172900,5.9111728515625,0.006716492120176554,-0.0067633637227118015,0.002423742786049843
1761315826329219800,5.9212197265625,0.008105862885713577,-0.007909055799245834,0.0030040456913411617
1761315826339266800,5.931266845703125,0.005256547126919031,-0.009944509714841843,0.0012567456578835845
1761315826349314800,5.941314697265625,0.008883239701390266,-0.008304002694785595,0.0031795480754226446
1761315826359361800,5.95136181640625,0.006126602180302143,-0.006400641519576311,0.0010602044640108943
1761315826369408800,5.96140869140625,0.007399859372526407,-0.006908772513270378,0.0023872575256973505
1761315826379455700,5.971455810546875,0.00714632635936141,-0.006448844447731972,0.0017425062833353877
1761315826389502700,5.981502685546875,0.006560963578522205,-0.006588127929717302,0.004071174189448357
1761315826399549700,5.9915498046875,0.007068828213959932,-0.00686030276119709,0.0027925907634198666
1761315826409596700,6.0015966796875,0.006381200160831213,-0.005775331053882837,0.0006226470577530563
1761315826419644000,6.011643798828125,0.0065593658946454525,-0.008351673372089863,0.0032826124224811792
1761315826429691000,6.02169091796875,0.0049465554766356945,-0.007643005810678005,0.0026285399217158556
1761315826439738600,6.031738525390625,0.007184675894677639,-0.007729292381554842,0.0011432950850576162
1761315826449785600,6.04178564453125,0.008108260110020638,-0.008319448679685593,0.00173771264962852
1761315826459832800,6.051832763671875,0.008111721836030483,-0.008896289393305779,0.001749164192005992
1761315826469879800,6.0618798828125,0.006527940277010202,-0.007306116167455912,0.003573695896193385
1761315826479926800,6.0719267578125,0.004171575419604778,-0.009059274569153786,0.0004394215648062527
1761315826489973800,6.081973876953125,0.007269630674272776,-0.007496798411011696,0.0012831110507249832
1761315826500020700,6.092020751953125,0.007255249656736851,-0.006682137493044138,0.003195527009665966
1761315826510067700,6.102067626953125,0.0082102594897151,-0.008187889121472836,0.0007459514308720827
1761315826520115000,6.112114990234375,0.006804110016673803,-0.00914289802312851,0.0026173547375947237
1761315826530162700,6.12216259765625,0.008075503632426262,-0.007510913070291281,0.0034320156555622816
1761315826540209700,6.132209716796875,0.008952216245234013,-0.008792692795395851,0.003156378399580717
1761315826550256600,6.142256591796875,0.00884888507425785,-0.007852064445614815,0.0007976167253218591
1761315826560303600,6.1523037109375,0.006036587059497833,-0.008898153901100159,-0.001198955113068223
1761315826570350800,6.162350830078125,0.007996140979230404,-0.0070890686474740505,-0.0018522285390645266
1761315826580397800,6.172397705078125,0.008549279533326626,-0.007626494392752647,-0.00010892329009948298
1761315826590444800,6.18244482421875,0.009221994318068027,-0.01005183532834053,0.0007933556917123497
1761315826600491800,6.19249169921875,0.01064864918589592,-0.010011621750891209,0.001449292292818427
1761315826610538800,6.202538818359375,0.0079721724614501,-0.007315703667700291,0.0009331716573797166
1761315826620585700,6.212585693359375,0.007678692229092121,-0.00583658367395401,0.0009177253232337534
1761315826630633700,6.2226337890625,0.008644354529678822,-0.006358030717819929,0.0022975089959800243
1761315826640680700,6.2326806640625,0.006406234111636877,-0.008447280153632164,0.0008356999605894089
1761315826650727700,6.242727783203125,0.005535646807402372,-0.010028932243585587,0.0007978830835781991
1761315826660774700,6.252774658203125,0.00968325324356556,-0.007102916948497295,0.0023220102302730083
1761315826670822000,6.26282177734375,0.0078102522529661655,-0.008743956685066223,0.0013957626651972532
1761315826680868900,6.272868896484375,0.00628958735615015,-0.008519185706973076,0.0005672533297911286
1761315826690915800,6.282915771484375,0.007424626965075731,-0.00808961782604456,0.002284459536895156
1761315826700962800,6.292962890625,0.006187322083860636,-0.006844324059784412,0.0036991306114941835
1761315826711009800,6.303009765625,0.00746004655957222,-0.008904811926186085,-0.0010809770319610834
1761315826721057800,6.313057861328125,0.008262457326054573,-0.0070824106223881245,0.000580036488827318
1761315826731104800,6.323104736328125,0.008333297446370125,-0.008588427677750587,0.0018431737553328276
1761315826741151700,6.33315185546875,0.007170028518885374,-0.006913033314049244,0.0008812400046736002
1761315826751198700,6.34319873046875,0.006406500469893217,-0.006880276836454868,0.002517486223950982
1761315826761245700,6.35324560546875,0.008986837230622768,-0.008189219981431961,0.0032740901224315166
1761315826771292700,6.363292724609375,0.008867527358233929,-0.0070397998206317425,0.0014008227735757828
1761315826781340000,6.37333984375,0.0065284729935228825,-0.007715710438787937,0.004142014309763908
1761315826791387000,6.383386962890625,0.011057711206376553,-0.0073021212592720985,0.0017084177816286683
1761315826801433900,6.393433837890625,0.010246512480080128,-0.006429669912904501,-0.0009329052991233766
1761315826811481600,6.403481689453125,0.008323709480464458,-0.006779609248042107,0.0025782061275094748
1761315826821528600,6.413528564453125,0.008992429822683334,-0.006704507861286402,0.0013611416798084974
1761315826831575800,6.423575927734375,0.008893360383808613,-0.007771636825054884,0.003631486324593425
1761315826841622800,6.433622802734375,0.007110639940947294,-0.008067780174314976,0.0009584716754034162
1761315826851669800,6.443669677734375,0.01065264455974102,-0.006666424684226513,0.0014713965356349945
1761315826861716700,6.453716796875,0.008640626445412636,-0.007892810739576817,0.0014495585346594453
1761315826871763700,6.463763671875,0.008073639124631882,-0.006477074231952429,0.0032442628871649504
1761315826881811000,6.47381103515625,0.008422247134149075,-0.009874468669295311,0.0025995115283876657
1761315826891860700,6.48386083984375,0.0076177059672772884,-0.006078931502997875,0.0024791366886347532
1761315826901907700,6.49390771484375,0.00845606904476881,-0.009786318056285381,0.003326021833345294
1761315826911955700,6.503955810546875,0.007091199047863483,-0.007002515718340874,0.0027419906109571457
1761315826922002700,6.514002685546875,0.007799333427101374,-0.007969776168465614,0.0013353090034797788
1761315826932049700,6.524049560546875,0.007739146240055561,-0.006826214492321014,0.002296710154041648
1761315826942096600,6.5340966796875,0.007695736363530159,-0.008527974598109722,0.0008202536264434457
1761315826952143600,6.5441435546875,0.006391054019331932,-0.009817210957407951,0.0010546117555350065
1761315826962190600,6.554190673828125,0.005559082608669996,-0.007169762160629034,0.0019891150295734406
1761315826972237800,6.56423779296875,0.007363640237599611,-0.008270712569355965,0.002284992253407836
1761315826982284800,6.574284912109375,0.007738879881799221,-0.005787848029285669,0.0019835224375128746
1761315826992331800,6.584331787109375,0.0067844027653336525,-0.006089317612349987,0.0002079928817693144
1761315827002379800,6.5943798828125,0.007559915538877249,-0.006166815757751465,0.0031348068732768297
1761315827012426500,6.604426513671875,0.008347944356501102,-0.003709783311933279,0.0015329155139625072
1761315827022473700,6.6144736328125,0.006388923618942499,-0.0075878784991800785,0.000571248063351959
1761315827032520700,6.624520751953125,0.008037419989705086,-0.00705711031332612,0.002496713539585471
1761315827042567700,6.634567626953125,0.006594253238290548,-0.007938616909086704,-0.0002743055811151862
1761315827052614700,6.64461474609375,0.008992962539196014,-0.005065598525106907,0.002492984989657998
1761315827062661600,6.65466162109375,0.006764429155737162,-0.009611348621547222,0.00014514227223116904
1761315827072708600,6.66470849609375,0.009077117778360844,-0.008723982609808445,0.0019768644124269485
1761315827082755800,6.674755859375,0.007890413515269756,-0.00860360823571682,0.003065032185986638
1761315827092802800,6.684802734375,0.007930893450975418,-0.010055563412606716,0.0008239820599555969
1761315827102850600,6.6948505859375,0.008847021497786045,-0.008872853592038155,0.0015166702214628458
1761315827112897500,6.7048974609375,0.0060264673084020615,-0.00634950865060091,0.004907673224806786
1761315827122944500,6.714944580078125,0.007119694724678993,-0.008071508258581161,0.0022471752017736435
1761315827132991700,6.72499169921875,0.006398777011781931,-0.008262457326054573,0.0023289343807846308
1761315827143038700,6.735038818359375,0.007697334513068199,-0.007969776168465614,0.002588059986010194
1761315827153085700,6.745085693359375,0.00791358295828104,-0.010056362487375736,0.0036916739773005247
1761315827163132700,6.755132568359375,0.006747385021299124,-0.008314655162394047,-0.000523577444255352
1761315827173179600,6.7651796875,0.008199340663850307,-0.007872037589550018,0.0018716695485636592
1761315827183227000,6.775226806640625,0.007919175550341606,-0.009636381641030312,0.002213353058323264
1761315827193273900,6.78527392578125,0.005019792355597019,-0.00815166998654604,0.00321949552744627
1761315827203321600,6.795321533203125,0.007511445786803961,-0.0070861391723155975,0.001163002452813089
1761315827213368600,6.80536865234375,0.0067569720558822155,-0.006838465109467506,0.003466104157269001
1761315827223415600,6.81541552734375,0.004488225560635328,-0.00896792858839035,0.004659200087189674
1761315827233462800,6.825462890625,0.006429137196391821,-0.007562045939266682,0.0031409321818500757
1761315827243509800,6.835509765625,0.0076280920766294,-0.007497331127524376,0.004722050856798887
1761315827253556700,6.845556640625,0.005471464246511459,-0.007988950237631798,0.003296993440017104
1761315827263603700,6.855603759765625,0.005228317808359861,-0.0075796227902174,0.0009110674145631492
1761315827273650700,6.865650634765625,0.003885019337758422,-0.00899962056428194,0.00219524372369051
1761315827283697700,6.87569775390625,0.0054450989700853825,-0.0062453788705170155,0.0032855418976396322
1761315827293745000,6.885744873046875,0.009859289042651653,-0.008791893720626831,0.0007068029372021556
1761315827303792600,6.895792724609375,0.007522364612668753,-0.007707720622420311,0.002910568844527006
1761315827313839600,6.905839599609375,0.0070400661788880825,-0.010065416805446148,0.0013558153295889497
1761315827323886600,6.915886474609375,0.007667240686714649,-0.00881106872111559,0.00101173494476825
1761315827333933600,6.92593359375,0.01014131773263216,-0.009500294923782349,0.0022189458832144737
1761315827343980800,6.935980712890625,0.007649397477507591,-0.008974053896963596,0.004518318921327591
1761315827354027800,6.94602783203125,0.007641141768544912,-0.007271495182067156,0.0028639633674174547
1761315827364074800,6.95607470703125,0.007723699789494276,-0.00700730923563242,0.00020346550445538014
1761315827374121700,6.966121826171875,0.008099205791950226,-0.007692008279263973,0.0009949569357559085
1761315827384168700,6.976168701171875,0.007740477565675974,-0.009712016209959984,0.0004191815387457609
1761315827394216000,6.9862158203125,0.006030728109180927,-0.006915430538356304,0.0008777778712101281
1761315827404263700,6.996263671875,0.007143130525946617,-0.005916744936257601,0.0010628675809130073
1761315827414310700,7.006310546875,0.009926666505634785,-0.0063154203817248344,0
1761315827424357600,7.016357666015625,0.010132262483239174,-0.005048554390668869,0.002112952060997486
1761315827434404600,7.026404541015625,0.006907174363732338,-0.00942093227058649,0.0013792511308565736
1761315827444451800,7.036451904296875,0.009128783829510212,-0.006421413738280535,-0.00045087316539138556
1761315827454498800,7.046498779296875,0.00791251752525568,-0.008174306713044643,0.0010612696642056108
1761315827464545800,7.0565458984375,0.008598282001912594,-0.00953598041087389,0.0006122607155703008
1761315827474592800,7.0665927734375,0.004062385763972998,-0.007426491007208824,0.002159024588763714
1761315827484639700,7.0766396484375,0.007231014780700207,-0.006962568499147892,0.0005994775565341115
1761315827494686700,7.086686767578125,0.007429953198879957,-0.006851247977465391,0.0028573055751621723
1761315827504734700,7.096734619140625,0.009397762827575207,-0.007489341776818037,0.0022897860035300255
1761315827514781700,7.10678173828125,0.007740211207419634,-0.00863077212125063,0.0026378610637038946
1761315827524828700,7.11682861328125,0.00532632227987051,-0.006585731171071529,0.001330249011516571
1761315827534875600,7.126875732421875,0.0067899953573942184,-0.006853911560028791,-0.0001877528557088226
1761315827544922600,7.136922607421875,0.006491188891232014,-0.010272344574332237,-0.001511876587755978
1761315827554969900,7.146969970703125,0.0059934440068900585,-0.006208893842995167,-0.0005009406013414264
1761315827565016800,7.157016845703125,0.005821936298161745,-0.00875061471015215,0.002614957746118307
1761315827575063800,7.167063720703125,0.008044877089560032,-0.007159376051276922,0.0005254416610114276
1761315827585110800,7.17711083984375,0.009126386605203152,-0.006930077914148569,0.001731853699311614
1761315827595157500,7.187157470703125,0.007309045642614365,-0.009868876077234745,0.0011462245602160692
1761315827605205800,7.197205810546875,0.009161540307104588,-0.006164418999105692,0.0027798074297606945
1761315827615252700,7.207252685546875,0.00749040674418211,-0.00723527604714036,0.002008023438975215
1761315827625299700,7.2172998046875,0.008387626148760319,-0.007126086391508579,0.0041057956404984
1761315827635346700,7.2273466796875,0.006623814348131418,-0.007580687757581472,0.001832521171309054
1761315827645393700,7.2373935546875,0.00887977797538042,-0.007713579572737217,0.0010492854053154588
1761315827655441000,7.24744091796875,0.007213171571493149,-0.007711715530604124,0.0033968619536608458
1761315827665488000,7.25748779296875,0.0073623089119791985,-0.007540740538388491,0.0032469260040670633
1761315827675534800,7.267534912109375,0.00863530021160841,-0.007501325570046902,0.0017715347930788994
1761315827685581600,7.27758154296875,0.008100003935396671,-0.006126602180302143,0.0013041499769315124
1761315827695628500,7.287628662109375,0.00845740083605051,-0.008802546188235283,0.001454618526622653
1761315827705676800,7.2976767578125,0.006614226847887039,-0.007392934989184141,0.0013875069562345743
1761315827715723800,7.307723876953125,0.006456833798438311,-0.007871504873037338,-0.0005821670056320727
1761315827725770800,7.317770751953125,0.006651244591921568,-0.008740494959056377,-0.0003062635369133204
1761315827735817700,7.327817626953125,0.0060024987906217575,-0.007209177128970623,0.0003201119543518871
1761315827745864700,7.33786474609375,0.005858421791344881,-0.009193764999508858,0.0010058758780360222
1761315827755911700,7.34791162109375,0.008133826777338982,-0.008189219981431961,0.0019030949333682656
1761315827765959000,7.357958984375,0.005992112215608358,-0.007672034204006195,0.003090332029387355
1761315827776005600,7.368005615234375,0.006013151258230209,-0.008073639124631882,0.0008932242053560913
1761315827786052600,7.378052490234375,0.0027422569692134857,-0.007122890558093786,0.003186205867677927
1761315827796099600,7.388099609375,0.006247776094824076,-0.008835303597152233,0.0014418354257941246
1761315827806147800,7.39814794921875,0.0068240840919315815,-0.005973470397293568,0.0026695525739341974
1761315827816194800,7.40819482421875,0.005323126446455717,-0.006789728999137878,0.002235191175714135
1761315827826241800,7.41824169921875,0.008992696180939674,-0.007559382822364569,0.0017483652336522937
1761315827836288800,7.428288818359375,0.007768707349896431,-0.007193197961896658,0.0009808422764763236
1761315827846335700,7.438335693359375,0.007390271872282028,-0.007006776984781027,0.0035444011446088552
1761315827856382700,7.4483828125,0.008994294330477715,-0.008982043713331223,0.0028157602064311504
1761315827866429700,7.4584296875,0.00555109279230237,-0.00774820102378726,0.002360359765589237
1761315827876476700,7.4684765625,0.005979862064123154,-0.00894103106111288,0.0006996124284341931
1761315827886523600,7.478523681640625,0.006007025949656963,-0.007199855986982584,0.0025505092926323414
1761315827896568300,7.488568359375,0.008675780147314072,-0.007795338984578848,0.0020008329302072525
1761315827906615600,7.498615478515625,0.007574030198156834,-0.008981510996818542,0.0011315771844238043
1761315827916663300,7.508663330078125,0.007767641916871071,-0.005667206831276417,0.0008255799184553325
1761315827926710300,7.518710205078125,0.007496265694499016,-0.007410778198391199,0.002799514913931489
1761315827936757200,7.52875732421875,0.00612287363037467,-0.007839014753699303,0.0019955066964030266
1761315827946804500,7.538804443359375,0.008378304541110992,-0.010088320821523666,0.00236222380772233
1761315827956851500,7.5488515625,0.007803861051797867,-0.008874451741576195,0.0031995216850191355
1761315827966898400,7.5588984375,0.008740494959056377,-0.007162838242948055,0.0005512743373401463
1761315827976945400,7.5689453125,0.007328486535698175,-0.008594819344580173,0.0006340986583381891
1761315827986992400,7.578992431640625,0.010200971737504005,-0.007977498695254326,0.000782436749432236
1761315827997039400,7.589039306640625,0.005499694030731916,-0.007876831106841564,0.0012934972764924169
1761315828007086600,7.599086669921875,0.0075782909989356995,-0.007937018759548664,0.000032490566809428856
1761315828017134300,7.60913427734375,0.00606401776894927,-0.009272061288356781,0.0020666129421442747
1761315828027181300,7.619181396484375,0.007288805674761534,-0.0065074339509010315,0.00014674017438665032
1761315828037228300,7.629228271484375,0.0063798688352108,-0.009631055407226086,0.00011185276525793597
1761315828047275300,7.639275146484375,0.005278118886053562,-0.00800279900431633,0.002397643867880106
1761315828057322500,7.649322509765625,0.007224357221275568,-0.007489341776818037,0.0007131945458240807
1761315828067369500,7.659369384765625,0.004971056245267391,-0.00996448379009962,0.004484230652451515
1761315828077416400,7.66941650390625,0.007360710762441158,-0.0089391665533185,0.0008269115351140499
1761315828087463400,7.67946337890625,0.007093329448252916,-0.008757539093494415,0.0007392935222014785
1761315828097510400,7.689510498046875,0.009098690003156662,-0.008094411343336105,0.00138084904756397
1761315828107557400,7.699557373046875,0.008411594666540623,-0.009678193368017673,0.0022660838440060616
1761315828117604600,7.7096044921875,0.007965780794620514,-0.006061621010303497,0.0020956413354724646
1761315828127652400,7.71965234375,0.010326406918466091,-0.00720624765381217,0.00041305628838017583
1761315828137699300,7.72969921875,0.006179066374897957,-0.008784702979028225,0.0023667511995881796
1761315828147746300,7.739746337890625,0.009282714687287807,-0.006532734259963036,-0.0015880429418757558
1761315828157793500,7.74979345703125,0.007918376475572586,-0.00869202520698309,0.0015627428656443954
1761315828167840500,7.759840576171875,0.0067753479816019535,-0.00624085171148181,0.001657285145483911
1761315828177887500,7.769887451171875,0.005191832315176725,-0.008326106704771519,0.0014527543680742383
1761315828187934500,7.7799345703125,0.006271744146943092,-0.004984638653695583,0.002907639369368553
1761315828197981400,7.7899814453125,0.008607069961726665,-0.006090383045375347,-0.0004902879591099918
1761315828208028400,7.8000283203125,0.008474444970488548,-0.0037617150228470564,0.0019020296167582273
1761315828218075400,7.810075439453125,0.006416620220988989,-0.007564176339656115,0.0006183860241435468
1761315828228122400,7.820122314453125,0.009535448625683784,-0.00999164767563343,0.00007376955909421667
1761315828238170400,7.83017041015625,0.00628905463963747,-0.00621208967640996,0.0007510114228352904
1761315828248217300,7.84021728515625,0.0056983656249940395,-0.008158328011631966,-0.001517469179816544
1761315828258264300,7.850264404296875,0.00827657151967287,-0.010087788105010986,-0.0019267969764769077
1761315828268311600,7.8603115234375,0.0063154203817248344,-0.007595069240778685,-0.00063383235828951
1761315828278358500,7.870358642578125,0.0075663067400455475,-0.0059566921554505825,-0.00015100123709999025
1761315828288405500,7.880405517578125,0.0067939902655780315,-0.008073639124631882,0.00032570460462011397
1761315828298452500,7.890452392578125,0.007849400863051414,-0.008432100526988506,0.0014708638191223145
1761315828308499500,7.90049951171875,0.006804642733186483,-0.007192931603640318,0.0020724718924611807
1761315828318546400,7.91054638671875,0.0052267201244831085,-0.005532184615731239,-0.00022770027862861753
1761315828328593400,7.920593505859375,0.003882888937368989,-0.006363356951624155,0.0020096213556826115
1761315828338640400,7.930640380859375,0.007069360930472612,-0.007634750101715326,-0.00008175904804375023
1761315828348688400,7.9406884765625,0.008241684176027775,-0.007726362906396389,0.0019254654180258512
1761315828358735400,7.9507353515625,0.006738596595823765,-0.009635050781071186,0.00041278995922766626
1761315828368782600,7.960782470703125,0.006012884899973869,-0.007308779284358025,0.0026644926983863115
1761315828378829600,7.97082958984375,0.00495081627741456,-0.008841960690915585,0.0017297230660915375
1761315828388876500,7.98087646484375,0.007017962168902159,-0.006514358334243298,0.003147589974105358
1761315828398923500,7.990923583984375,0.008709602057933807,-0.007025951519608498,0.0007526093395426869
1761315828408970200,8.00097021484375,0.010172742418944836,-0.007137271575629711,-0.0004218447138555348
1761315828419017200,8.011017333984375,0.008528773672878742,-0.006446181330829859,-0.0004415521107148379
1761315828429064400,8.021064453125,0.009017463773488998,-0.00734340026974678,0.0029766152147203684
1761315828439111400,8.031111328125,0.008170312270522118,-0.008874718099832535,0.0009179916232824326
1761315828449158400,8.041158447265625,0.006648581475019455,-0.007278419099748135,-0.0014780544443055987
1761315828459206400,8.051206298828125,0.009974603541195393,-0.010024936869740486,0.004203266929835081
1761315828469253400,8.06125341796875,0.006316751707345247,-0.010218016803264618,0.0012815131340175867
1761315828479300600,8.071300537109375,0.005256813485175371,-0.007252053823322058,0.0011086739832535386
1761315828489347600,8.08134765625,0.008422513492405415,-0.008620652370154858,-0.0011725898366421461
1761315828499394300,8.091394287109376,0.008271245285868645,-0.005914081819355488,0.0001102548703784123
1761315828509441300,8.101441162109374,0.010122142732143402,-0.008140484802424908,0.0041460092179477215
1761315828519488300,8.11148828125,0.008009723387658596,-0.006982808467000723,0.0024045680183917284
1761315828529535500,8.121535400390625,0.0070429956540465355,-0.00771677540615201,-0.0003102582704741508
1761315828539582500,8.13158251953125,0.00472418125718832,-0.008502141572535038,0.0026027073618024588
1761315828549629400,8.14162939453125,0.00902598537504673,-0.007807855494320393,0.0018109495285898447
1761315828559676400,8.151676513671875,0.007693872321397066,-0.00771704176440835,0.0007906925166025758
1761315828569724400,8.161724365234376,0.0073111760430037975,-0.007700796704739332,-0.0013749900972470641
1761315828579771400,8.171771484375,0.006231796927750111,-0.009187106974422932,0.004006459377706051
1761315828589818400,8.181818359375,0.005859220866113901,-0.0096835196018219,0.0005992112564854324
1761315828599865300,8.191865234375,0.005656820256263018,-0.00603419030085206,0.0012263857061043382
1761315828609912300,8.201912353515626,0.006322877015918493,-0.008134892210364342,0.001278849900700152
1761315828619959300,8.211959228515624,0.006344448775053024,-0.00691915862262249,0.0010426276130601764
1761315828630006300,8.22200634765625,0.009459547698497772,-0.009327455423772335,0.00195156445261091
1761315828640053500,8.232053466796875,0.007457916159182787,-0.007690143771469593,0.001434112200513482
1761315828650100500,8.2421005859375,0.007934356108307838,-0.00666402792558074,0.0013640711549669504
1761315828660147500,8.2521474609375,0.0070366039872169495,-0.007918909192085266,0.0017483652336522937
1761315828670194400,8.2621943359375,0.006274673622101545,-0.005538309924304485,0.0029792783316224813
1761315828680241400,8.272241455078126,0.010176737792789936,-0.009524262510240078,-0.0005858954391442239
1761315828690289400,8.282289306640624,0.009490174241364002,-0.006132194772362709,0.0021675468888133764
1761315828700336400,8.29233642578125,0.008406001143157482,-0.008746886625885963,0.003369697602465749
1761315828710383400,8.30238330078125,0.008388690650463104,-0.005092762876302004,0.0004415521107148379
1761315828720430300,8.312430419921874,0.007171892561018467,-0.009022523649036884,-0.002055694116279483
1761315828730477300,8.322477294921875,0.006199039984494448,-0.008260326460003853,0.0023843280505388975
1761315828740524500,8.332524658203125,0.008714928291738033,-0.00791225116699934,0.0010807107901200652
1761315828750571500,8.342571533203126,0.007741010282188654,-0.010676080361008644,0.002260757377371192
1761315828760618500,8.352618408203124,0.00503976596519351,-0.006622216198593378,0.0006482133758254349
1761315828770665500,8.36266552734375,0.008843026123940945,-0.009461678564548492,0.0020812603179365396
1761315828780712400,8.37271240234375,0.006187588442116976,-0.005179049447178841,-0.0004293015517760068
1761315828790759400,8.382759521484376,0.005579588934779167,-0.009610016830265522,0.0019891150295734406
1761315828800807400,8.392807373046875,0.006310892757028341,-0.004671184346079826,0.0005587312043644488
1761315828810854400,8.4028544921875,0.008772186003625393,-0.0060933125205338,0.00045060686534270644
1761315828820901400,8.4129013671875,0.00914529524743557,-0.00683100800961256,0.002645317930728197
1761315828830948400,8.4229482421875,0.006166549399495125,-0.005981726106256247,-0.00039787625428289175
1761315828840995300,8.432995361328125,0.006879211403429508,-0.007477357517927885,0.0024887239560484886
1761315828851042600,8.44304248046875,0.006925816647708416,-0.005059739574790001,0.0003528688393998891
1761315828861089500,8.453089599609376,0.007711449172347784,-0.007766576483845711,0.0021350563038140535
1761315828871136500,8.463136474609374,0.005849633365869522,-0.003276220755651593,0.0007691209320910275
1761315828881183500,8.47318359375,0.007908523082733154,-0.006187854800373316,0.0007912251749075949
1761315828891230500,8.48323046875,0.008826514706015587,-0.011963718570768833,0.005148955620825291
1761315828901276000,8.49327587890625,0.007139136083424091,-0.008099738508462906,0.0019462381023913622
1761315828911323100,8.5033232421875,0.006453638430684805,-0.007395598106086254,0.0025150892324745655
1761315828921371000,8.513370849609375,0.007024353835731745,-0.0073196981102228165,-0.001281779375858605
1761315828931417900,8.52341796875,0.006848584860563278,-0.007648598402738571,0.0022975089959800243
1761315828941464800,8.53346484375,0.008388690650463104,-0.008832906372845173,0.0016048208344727755
1761315828951511800,8.54351171875,0.008142881095409393,-0.006580937188118696,0.00034408041392453015
1761315828961559000,8.55355908203125,0.008749016560614109,-0.006129531655460596,0.0029553098138421774
1761315828971606000,8.56360595703125,0.007644071243703365,-0.008274974301457405,0.004563592839986086
1761315828981653000,8.573653076171874,0.007989482954144478,-0.008717591874301434,0.0035212314687669277
1761315828991700000,8.583699951171875,0.006924485322088003,-0.005045358557254076,0.0023614249657839537
1761315829001747000,8.593746826171875,0.005054413340985775,-0.006789728999137878,0.0006878945278003812
1761315829011794000,8.6037939453125,0.006382531952112913,-0.008373511023819447,0.0011837751371785998
1761315829021841200,8.613841064453124,0.007547931279987097,-0.008566323667764664,0.0035417377948760986
1761315829031889000,8.623888916015625,0.009633186273276806,-0.006109291687607765,0.0027808728627860546
1761315829041936000,8.633935791015626,0.00782649777829647,-0.007722900714725256,0.0025065671652555466
1761315829051982800,8.64398291015625,0.004962800536304712,-0.007864315062761307,0.000577107013668865
1761315829062029800,8.65402978515625,0.006891462020576,-0.008273642510175705,0.0015425028977915645
1761315829072077000,8.6640771484375,0.00851599033921957,-0.00586614478379488,0.0001882854849100113
1761315829082124000,8.6741240234375,0.007197725586593151,-0.0073532541282474995,-0.0011720572365447879
1761315829092171000,8.6841708984375,0.005637379363179207,-0.00851652305573225,0.00002210423735959921
1761315829102218000,8.694218017578125,0.008913067169487476,-0.00854208879172802,0.0026607641484588385
1761315829112265000,8.704264892578125,0.004150536376982927,-0.007239803206175566,-0.0002897519152611494
1761315829122312200,8.714312255859374,0.008776181377470493,-0.007788414601236582,-0.001580319833010435
1761315829132359000,8.72435888671875,0.00564004248008132,-0.006039250176399946,0.00355851580388844
1761315829142406000,8.734406005859375,0.005124454386532307,-0.006901848129928112,0.001880191732198
1761315829152452900,8.744452880859376,0.0065460498444736,-0.006824616342782974,0.002493784064427018
1761315829162500900,8.7545009765625,0.00507065886631608,-0.008327172137796879,0.0017558221006765962
1761315829172548000,8.764548095703125,0.006952448282390833,-0.00449941074475646,0.0018306568963453174
1761315829182595000,8.774594970703125,0.006609965581446886,-0.007865379564464092,0.0016519587952643633
1761315829192642000,8.78464208984375,0.010163954459130764,-0.007632353343069553,0.0014674017438665032
1761315829202689000,8.79468896484375,0.008048605173826218,-0.008730107918381691,0.0013877731980755925
1761315829212736000,8.804736083984375,0.006376406643539667,-0.00902705080807209,0.0021374530624598265
1761315829222783000,8.814782958984376,0.008461395278573036,-0.007109042257070541,0.004178233444690704
1761315829232830000,8.824829833984374,0.00654631620272994,-0.0062573631294071674,0.0033073797821998596
1761315829242877000,8.834876953125,0.007123689632862806,-0.006332464516162872,-0.0005259743193164468
1761315829252924000,8.844923828125,0.007497863844037056,-0.00777749577537179,-0.0013765880139544606
1761315829262971000,8.854970947265626,0.006902380846440792,-0.008330367505550385,0.0012876383261755109
1761315829273017900,8.865017822265624,0.00878869742155075,-0.008163121528923512,0.001745968358591199
1761315829283066000,8.875066162109375,0.010232130996882915,-0.007898136973381042,0.0027861990965902805
1761315829293113000,8.885113037109376,0.007438741624355316,-0.008154332637786865,0.0015805860748514533
1761315829303160000,8.89516015625,0.006252569612115622,-0.008409730158746243,0.0049348375760018826
1761315829313206800,8.905206787109375,0.006411027628928423,-0.008160990662872791,0.004636829718947411
1761315829323253800,8.915253662109375,0.008987636305391788,-0.0075796227902174,0.0007693872321397066
1761315829333301000,8.925301025390626,0.00714526092633605,-0.008478705771267414,0.00361817074008286
1761315829343348000,8.935347900390624,0.0052019525319337845,-0.006204632576555014,0.003569700988009572
1761315829353395000,8.94539501953125,0.00920122116804123,-0.006971889175474644,0.006256298162043095
1761315829363442000,8.95544189453125,0.006374808494001627,-0.007742874324321747,0.005708219483494759
1761315829373489000,8.965489013671874,0.0070730894804000854,-0.007241934072226286,0.0014860439114272594
1761315829383535900,8.975535888671875,0.0070397998206317425,-0.009770339354872704,0.0023497070651501417
1761315829393583000,8.9855830078125,0.005044027231633663,-0.005446430761367083,0.0009837717516347766
1761315829403630800,8.995630859375,0.006028864067047834,-0.009556487202644348,0.0011563445441424847
1761315829413677000,9.005677001953124,0.005161472596228123,-0.008755141869187355,0.0033811493776738644
1761315829423724000,9.01572412109375,0.006317018065601587,-0.008685633540153503,0.002810700098052621
1761315829433771000,9.02577099609375,0.007108243182301521,-0.007174289785325527,0.0033332123421132565
1761315829443817700,9.035817626953126,0.006668555550277233,-0.008353536948561668,0.0026138925459235907
1761315829453865000,9.045864990234374,0.0070645674131810665,-0.009250756353139877,0.000952080066781491
1761315829463912000,9.055911865234375,0.008857673965394497,-0.007328220177441835,0.003058374160900712
1761315829473959000,9.065958984375,0.006762298755347729,-0.008363124914467335,0.0031398669816553593
1761315829484006000,9.076005859375,0.009275257587432861,-0.00884861871600151,-0.0009957558941096067
1761315829494052900,9.086052978515625,0.00962626188993454,-0.008959139697253704,0.0010362359462305903
1761315829504099800,9.096099853515625,0.007261907681822777,-0.00962493009865284,0.0026317357551306486
1761315829514147000,9.10614697265625,0.01028432883322239,-0.01004970446228981,-0.00017736652807798237
1761315829524195000,9.116195068359374,0.007769772317260504,-0.0067750816233456135,0.001672198879532516
1761315829534241800,9.12624169921875,0.00788428820669651,-0.007910387590527534,0.0012831110507249832
1761315829544288800,9.136288818359375,0.0064983791671693325,-0.007018494885414839,-0.00036751621519215405
1761315829554336000,9.1463359375,0.009241967462003231,-0.007089867256581783,0.0019142802339047194
1761315829564383000,9.156383056640625,0.007539675105363131,-0.008538094349205494,0.00005912217602599412
1761315829574430000,9.166429931640625,0.007475226651877165,-0.007286142557859421,0.0012982910266146064
1761315829584477000,9.176476806640625,0.005263471510261297,-0.0076059880666434765,0.0011984225129708648
1761315829594524000,9.18652392578125,0.009887252002954483,-0.004830441437661648,0.0031678301747888327
1761315829604571000,9.19657080078125,0.009019860066473484,-0.006598780397325754,0.0008679241873323917
1761315829614618000,9.2066181640625,0.00621022516861558,-0.007602259516716003,0.000027696874894900247
1761315829624665000,9.2166650390625,0.008322112262248993,-0.007219030521810055,0.0021920478902757168
1761315829634712000,9.226712158203124,0.00845686811953783,-0.008274707943201065,0.0015065502375364304
1761315829644759800,9.236759765625,0.005927131045609713,-0.007832090370357037,0.0016530241118744016
1761315829654806800,9.246806884765626,0.006459231022745371,-0.009212139993906021,0.0011646003695204854
1761315829664854000,9.25685400390625,0.00541367381811142,-0.006384928710758686,0.0016791230300441384
1761315829674901000,9.26690087890625,0.003891144646331668,-0.0062800003215670586,0.00038589202449657023
1761315829684948000,9.276947998046875,0.0070496536791324615,-0.007552458439022303,0.002469282830134034
1761315829694995000,9.286994873046876,0.007679757662117481,-0.005915945861488581,0.004771052859723568
1761315829705042000,9.2970419921875,0.00857511255890131,-0.008981244638562202,-0.001213602488860488
1761315829715089000,9.3070888671875,0.007243798114359379,-0.007363640237599611,-0.000437291048001498
1761315829725136100,9.31713623046875,0.005054146982729435,-0.006614759564399719,0.0037729002069681883
1761315829735183000,9.32718310546875,0.007084008306264877,-0.004319913685321808,-0.0013108078856021166
1761315829745230000,9.33722998046875,0.0076179723255336285,-0.007632619701325893,0.00003302319601061754
1761315829755276800,9.34727685546875,0.009067530743777752,-0.008322378620505333,-0.0008072041091509163
1761315829765323800,9.35732373046875,0.00945289060473442,-0.0065622953698039055,-0.0008548747282475233
1761315829775371000,9.36737109375,0.011259579099714756,-0.009195628575980663,0.0009584716754034162
1761315829785419000,9.3774189453125,0.007891478948295116,-0.008503207005560398,-0.00016777914424892515
1761315829795466000,9.387466064453125,0.0065319351851940155,-0.005275988485664129,0.0028748824261128902
1761315829805513000,9.397512939453126,0.008099738508462906,-0.007482950109988451,0.00010972223390126601
1761315829815560000,9.407559814453125,0.00941906776279211,-0.007534881588071585,0.002382730133831501
1761315829825607200,9.417607177734375,0.00737269502133131,-0.009342901408672333,0.0019710054621100426
1761315829835654100,9.427654052734376,0.008475776761770248,-0.00726323900744319,0.0021931130904704332
1761315829845700900,9.437700927734374,0.007492803502827883,-0.009671003557741642,0.0025872609112411737
1761315829855747800,9.447747802734375,0.008598548360168934,-0.006922620814293623,0.001187503570690751
1761315829865794800,9.457794921875,0.007387076038867235,-0.00748987402766943,0.00034115093876607716
1761315829875841800,9.467841796875,0.006176403257995844,-0.007322361227124929,0.0010194580536335707
1761315829885889000,9.477888916015624,0.00917272549122572,-0.005785983521491289,0.003230680711567402
1761315829895936000,9.48793603515625,0.005697034299373627,-0.005637379363179207,0.0005645901546813548
1761315829905984000,9.49798388671875,0.005007808096706867,-0.008252603933215141,-0.0010301107540726662
1761315829916032000,9.508031982421874,0.0062464443035423756,-0.006354568526148796,0.0003992078418377787
1761315829926079000,9.518078857421875,0.008007059805095196,-0.006070409435778856,0.0009049421059899032
1761315829936126000,9.5281259765625,0.008007059805095196,-0.007595335599035025,0.0011142665753141046
1761315829946173000,9.5381728515625,0.003997404593974352,-0.0070395334623754025,0.0018871158827096224
1761315829956220200,9.54822021484375,0.003855990944430232,-0.007649131119251251,0.0024740765802562237
1761315829966267100,9.55826708984375,0.006321811582893133,-0.007839813828468323,0.0005707154050469398
1761315829976314000,9.568314208984376,0.006871754303574562,-0.007141266483813524,0.001433845958672464
1761315829986361000,9.578361083984374,0.0052112736739218235,-0.0038722362369298935,0.005036836490035057
1761315829996408000,9.588407958984375,0.007089600898325443,-0.00869362335652113,0.0025899240281432867
1761315830006455000,9.598455078125,0.008509065955877304,-0.006998787168413401,0.003311374457553029
1761315830016502000,9.608501953125,0.0070917317643761635,-0.008253402076661587,0.0012040151050314307
1761315830026549000,9.618549072265624,0.008191617205739021,-0.008541289716959,0.003680222202092409
1761315830036596000,9.628595947265625,0.007529288996011019,-0.008547947742044926,0.0024224112275987864
1761315830046643000,9.638642822265625,0.006779076531529427,-0.00869255792349577,-0.0015962987672537565
1761315830056691000,9.64869091796875,0.0065255435183644295,-0.007903196848928928,0.0019976370967924595
1761315830066738200,9.65873828125,0.007679757662117481,-0.006331931799650192,0.0035515916533768177
1761315830076785200,9.66878515625,0.007084541022777557,-0.007484547793865204,0.0017771273851394653
1761315830086832000,9.67883203125,0.008852880448102951,-0.007850732654333115,0.0035870117135345936
1761315830096879000,9.688879150390624,0.008161523379385471,-0.008552475832402706,0.0017262609908357263
1761315830106926000,9.698926025390625,0.008132761344313622,-0.008171643130481243,0.0029648973140865564
1761315830116972800,9.708972900390625,0.006085056811571121,-0.008464857004582882,0.0016863135388121009
1761315830127020000,9.71902001953125,0.008361260406672955,-0.006010754499584436,0.0030394657514989376
1761315830137067000,9.72906689453125,0.005644037388265133,-0.006611297372728586,0.0021228056866675615
1761315830147114000,9.739114013671875,0.007796403951942921,-0.009265935979783535,0.002831739140674472
1761315830157161000,9.749160888671875,0.009150088764727116,-0.008772452361881733,0.0029587720055133104
1761315830167208000,9.7592080078125,0.00920202024281025,-0.008016115054488182,0.0009262474486604333
1761315830177255200,9.769255126953125,0.005528722424060106,-0.006940730381757021,0.00040426786290481687
1761315830187302100,9.77930224609375,0.007376956287771463,-0.00965582299977541,0.0006183860241435468
1761315830197349000,9.78934912109375,0.007979629561305046,-0.007730357814580202,0.0016548882704228163
1761315830207396900,9.79939697265625,0.006648581475019455,-0.007408914156258106,0.0031217574141919613
1761315830217443800,9.80944384765625,0.006593454163521528,-0.0060299295000731945,0.0025800704024732113
1761315830227491000,9.819490966796875,0.006644853390753269,-0.007926366291940212,0.0028735508676618338
1761315830237538000,9.8295380859375,0.004447478801012039,-0.007445931900292635,0.0025768745690584183
1761315830247585000,9.8395849609375,0.00621129060164094,-0.005946838762611151,0.0009451558580622077
1761315830257632000,9.849632080078125,0.006668022833764553,-0.0073287528939545155,0.0044259075075387955
1761315830267679000,9.859678955078126,0.006073871627449989,-0.005967877805233002,0.00205223192460835
1761315830277726000,9.869725830078124,0.00845500361174345,-0.008637696504592896,0.0019326560432091355
1761315830287773200,9.879773193359375,0.008342351764440536,-0.00857164990156889,0.0025803367607295513
1761315830297820200,9.889820068359375,0.00640729907900095,-0.007644603960216045,0.002588326344266534
1761315830307867100,9.8998671875,0.005379585549235344,-0.005541505757719278,0.004449343308806419
1761315830317914000,9.9099140625,0.007570301648229361,-0.009764746762812138,0.001005609636195004
1761315830327961000,9.919961181640625,0.007585748098790646,-0.006118080113083124,0.0018815232906490564
1761315830338009000,9.930009033203126,0.009414274245500565,-0.007183876819908619,-0.00005672533006872982
1761315830348056000,9.94005615234375,0.005584382452070713,-0.008746353909373283,0.001885784324258566
1761315830358103000,9.95010302734375,0.007272826507687569,-0.0076882797293365,0.001178182428702712
1761315830368150000,9.96014990234375,0.009888051077723503,-0.006935936864465475,-0.0016943031223490834
1761315830378197000,9.970197021484376,0.010241186246275902,-0.007023821119219065,0.002612294629216194
1761315830388244200,9.980244140625,0.007789745926856995,-0.007607319392263889,0.0022623552940785885
1761315830398291200,9.990291259765625,0.007789745926856995,-0.007764978799968958,0.0011171960504725575
1761315830408338200,10.000338134765625,0.00899962056428194,-0.006881608162075281,0.000049801110435510054
1761315830418385200,10.01038525390625,0.00714792450889945,-0.0068176924251019955,0.0006021407316438854
1761315830428432000,10.020431884765625,0.0073173013515770435,-0.00851412583142519,0.0009275790071114898
1761315830438478800,10.030478759765625,0.006934338714927435,-0.005561745725572109,0.001579787116497755
1761315830448526000,10.040526123046876,0.007504255045205355,-0.004884237423539162,0.0021523667965084314
1761315830458573000,10.050572998046874,0.005776662845164537,-0.008450210094451904,0.004960403777658939
1761315830468620000,10.0606201171875,0.008553273975849152,-0.0070858728140592575,0.001660214620642364
1761315830478668000,10.07066796875,0.006966296583414078,-0.007299990858882666,-0.0005728459218516946
1761315830488715000,10.080715087890624,0.00774607015773654,-0.007201720029115677,0.0009603358921594918
1761315830498762200,10.09076220703125,0.0052381716668605804,-0.00944782979786396,-0.00015233281010296196
1761315830508809200,10.100809326171875,0.006155097857117653,-0.008461661636829376,-0.0012516856659203768
1761315830518856000,10.11085595703125,0.008696818724274635,-0.007271495182067156,0.0004013383586425334
1761315830528903000,10.12090283203125,0.006057892460376024,-0.008953015320003033,0.001654089312069118
1761315830538950000,10.130949951171875,0.009020925499498844,-0.006968161091208458,0.0015185344964265823
