time,seconds_elapsed,z,y,x
1761315091898462200,0.063462158203125,-0.9576263427734375,-0.221343994140625,0.0458526611328125
1761315091908509200,0.07350927734375,-0.9575347900390625,-0.219207763671875,0.0466156005859375
1761315091918557400,0.083557373046875,-0.957000732421875,-0.2135009765625,0.0434722900390625
1761315091928605400,0.09360546875,-0.9510345458984375,-0.2075042724609375,0.0397186279296875
1761315091938652200,0.103652099609375,-0.94775390625,-0.2081756591796875,0.041107177734375
1761315091948700400,0.113700439453125,-0.9489288330078125,-0.2135009765625,0.045135498046875
1761315091958748400,0.12374853515625,-0.950836181640625,-0.2188568115234375,0.050994873046875
1761315091968795400,0.13379541015625,-0.949676513671875,-0.2220916748046875,0.0509796142578125
1761315091978843400,0.143843505859375,-0.954620361328125,-0.2222900390625,0.05084228515625
1761315091988890400,0.153890380859375,-0.9610137939453125,-0.2212371826171875,0.0477752685546875
1761315091998938400,0.1639384765625,-0.9624786376953125,-0.2203369140625,0.03997802734375
1761315092008986000,0.173986083984375,-0.9642333984375,-0.220123291015625,0.0322418212890625
1761315092019033300,0.184033447265625,-0.963775634765625,-0.2230377197265625,0.032562255859375
1761315092029081300,0.194081298828125,-0.966339111328125,-0.2268829345703125,0.04058837890625
1761315092039128300,0.20412841796875,-0.97467041015625,-0.22955322265625,0.0515594482421875
1761315092049176600,0.214176513671875,-0.978118896484375,-0.23138427734375,0.055419921875
1761315092059224300,0.224224365234375,-0.9747314453125,-0.227630615234375,0.054931640625
1761315092069271300,0.234271240234375,-0.9756622314453125,-0.2237701416015625,0.0525054931640625
1761315092079319300,0.2443193359375,-0.9729461669921875,-0.220794677734375,0.046722412109375
1761315092089366500,0.254366455078125,-0.961090087890625,-0.2204742431640625,0.04315185546875
1761315092099414300,0.264414306640625,-0.955413818359375,-0.2215576171875,0.0449981689453125
1761315092109462300,0.274462158203125,-0.9544677734375,-0.2248382568359375,0.0537261962890625
1761315092119509200,0.28450927734375,-0.958465576171875,-0.2302398681640625,0.0627288818359375
1761315092129557200,0.29455712890625,-0.9569244384765625,-0.229156494140625,0.06494140625
1761315092139604200,0.304604248046875,-0.9500885009765625,-0.2244720458984375,0.0622711181640625
1761315092149652200,0.31465234375,-0.9508819580078125,-0.2204742431640625,0.061370849609375
1761315092159700500,0.324700439453125,-0.9532623291015625,-0.22113037109375,0.0609893798828125
1761315092169747500,0.33474755859375,-0.9512786865234375,-0.2221221923828125,0.0579376220703125
1761315092179798300,0.34479833984375,-0.9488677978515625,-0.2199249267578125,0.0560150146484375
1761315092189846500,0.354846435546875,-0.9500579833984375,-0.2181854248046875,0.0547943115234375
1761315092199893500,0.3648935546875,-0.9556121826171875,-0.219512939453125,0.053863525390625
1761315092209941500,0.37494140625,-0.9577789306640625,-0.223968505859375,0.0517425537109375
1761315092219988200,0.38498828125,-0.95697021484375,-0.226715087890625,0.0454864501953125
1761315092230036500,0.395036376953125,-0.960113525390625,-0.2276153564453125,0.0412445068359375
1761315092240084500,0.40508447265625,-0.9640655517578125,-0.23040771484375,0.04144287109375
1761315092250131500,0.41513134765625,-0.96160888671875,-0.2337646484375,0.0372161865234375
1761315092260179500,0.425179443359375,-0.9618682861328125,-0.2364044189453125,0.034271240234375
1761315092270226400,0.435226318359375,-0.9614715576171875,-0.2377471923828125,0.0354156494140625
1761315092280274400,0.4452744140625,-0.9627685546875,-0.2413330078125,0.038330078125
1761315092290322400,0.455322509765625,-0.9625091552734375,-0.2428741455078125,0.04180908203125
1761315092300369400,0.465369384765625,-0.9595184326171875,-0.2428131103515625,0.0449981689453125
1761315092310417400,0.47541748046875,-0.9627685546875,-0.2437286376953125,0.0482940673828125
1761315092320464400,0.48546435546875,-0.9611053466796875,-0.23907470703125,0.0497589111328125
1761315092330512600,0.4955126953125,-0.956451416015625,-0.232147216796875,0.044525146484375
1761315092340560400,0.505560302734375,-0.9575042724609375,-0.2275543212890625,0.0407562255859375
1761315092350607400,0.515607421875,-0.96112060546875,-0.2261199951171875,0.042510986328125
1761315092360655600,0.525655517578125,-0.9663848876953125,-0.227874755859375,0.0463409423828125
1761315092370702600,0.53570263671875,-0.9635772705078125,-0.2283935546875,0.047821044921875
1761315092380750300,0.545750244140625,-0.95654296875,-0.23046875,0.0488433837890625
1761315092390798600,0.555798583984375,-0.9593658447265625,-0.231292724609375,0.0527191162109375
1761315092400845600,0.565845458984375,-0.95892333984375,-0.2331390380859375,0.0615997314453125
1761315092410893600,0.5758935546875,-0.9632720947265625,-0.23406982421875,0.0679931640625
1761315092420941300,0.58594140625,-0.95916748046875,-0.2330474853515625,0.068084716796875
1761315092430988500,0.595988525390625,-0.952484130859375,-0.233245849609375,0.0654754638671875
1761315092441036500,0.60603662109375,-0.95263671875,-0.234283447265625,0.0658721923828125
1761315092451083500,0.61608349609375,-0.9525146484375,-0.2350921630859375,0.065673828125
1761315092461131500,0.626131591796875,-0.955902099609375,-0.236724853515625,0.063751220703125
1761315092471179500,0.636179443359375,-0.955078125,-0.2381744384765625,0.0601654052734375
1761315092481226500,0.6462265625,-0.950531005859375,-0.239715576171875,0.0594482421875
1761315092491274200,0.656274169921875,-0.9509429931640625,-0.2429046630859375,0.0600128173828125
1761315092501321500,0.666321533203125,-0.945892333984375,-0.2459869384765625,0.057861328125
1761315092511369500,0.676369384765625,-0.9434661865234375,-0.2441864013671875,0.059967041015625
1761315092521417500,0.68641748046875,-0.94903564453125,-0.245269775390625,0.065032958984375
1761315092531464700,0.696464599609375,-0.943511962890625,-0.2486572265625,0.0623626708984375
1761315092541512400,0.706512451171875,-0.9440460205078125,-0.2487030029296875,0.0584869384765625
1761315092551559400,0.716559326171875,-0.9523773193359375,-0.248046875,0.061737060546875
1761315092561607400,0.726607421875,-0.956207275390625,-0.247039794921875,0.0608367919921875
1761315092571655400,0.736655517578125,-0.9589385986328125,-0.2464141845703125,0.0512237548828125
1761315092581702400,0.746702392578125,-0.960235595703125,-0.245452880859375,0.0452728271484375
1761315092591750400,0.75675048828125,-0.9544830322265625,-0.249542236328125,0.04254150390625
1761315092601797600,0.766797607421875,-0.953155517578125,-0.2565765380859375,0.0421600341796875
1761315092611845400,0.776845458984375,-0.95458984375,-0.26483154296875,0.046783447265625
1761315092621893400,0.786893310546875,-0.9376983642578125,-0.2673797607421875,0.0507354736328125
1761315092631940400,0.7969404296875,-0.97308349609375,-0.2695770263671875,0.075927734375
1761315092641988600,0.806988525390625,-0.9564666748046875,-0.273040771484375,0.074188232421875
1761315092652035600,0.81703564453125,-0.9385528564453125,-0.2735595703125,0.069793701171875
1761315092662083300,0.827083251953125,-0.9352264404296875,-0.2711181640625,0.06475830078125
1761315092672131600,0.837131591796875,-0.9294586181640625,-0.2683868408203125,0.06231689453125
1761315092682178600,0.847178466796875,-0.9327545166015625,-0.2686767578125,0.0654296875
1761315092692226300,0.857226318359375,-0.937713623046875,-0.2719573974609375,0.0754852294921875
1761315092702274600,0.867274658203125,-0.9349365234375,-0.2709808349609375,0.0682220458984375
1761315092712321500,0.877321533203125,-0.925994873046875,-0.2579193115234375,0.051971435546875
1761315092722369500,0.88736962890625,-0.9374847412109375,-0.2518310546875,0.0553436279296875
1761315092732416500,0.89741650390625,-0.939453125,-0.24981689453125,0.0585174560546875
1761315092742464500,0.907464599609375,-0.9348907470703125,-0.24835205078125,0.061065673828125
1761315092752512500,0.917512451171875,-0.937347412109375,-0.2502288818359375,0.06182861328125
1761315092762559500,0.9275595703125,-0.93658447265625,-0.2536163330078125,0.061309814453125
1761315092772607500,0.937607421875,-0.93792724609375,-0.2574005126953125,0.061737060546875
1761315092782654500,0.947654541015625,-0.9478302001953125,-0.2565155029296875,0.059478759765625
1761315092792702500,0.957702392578125,-0.9462738037109375,-0.2543182373046875,0.05316162109375
1761315092802750500,0.96775048828125,-0.9477386474609375,-0.2525787353515625,0.050750732421875
1761315092812797400,0.97779736328125,-0.9629974365234375,-0.2550048828125,0.0509185791015625
1761315092822845400,0.987845458984375,-0.961517333984375,-0.2572784423828125,0.0510101318359375
1761315092832892400,0.997892333984375,-0.95855712890625,-0.2557830810546875,0.0526275634765625
1761315092842940700,1.007940673828125,-0.9723663330078125,-0.2559051513671875,0.057952880859375
1761315092852988400,1.017988525390625,-0.98382568359375,-0.2552490234375,0.0562744140625
1761315092863035400,1.028035400390625,-0.97308349609375,-0.2524566650390625,0.05169677734375
1761315092873083400,1.03808349609375,-0.9679107666015625,-0.25079345703125,0.0503387451171875
1761315092883130600,1.048130615234375,-0.96246337890625,-0.2521514892578125,0.05389404296875
1761315092893178400,1.058178466796875,-0.956268310546875,-0.2560882568359375,0.064483642578125
1761315092903226400,1.068226318359375,-0.95513916015625,-0.257049560546875,0.0746612548828125
1761315092913273600,1.078273681640625,-0.955657958984375,-0.2542724609375,0.0752105712890625
1761315092923321600,1.088321533203125,-0.9506378173828125,-0.24755859375,0.0692596435546875
1761315092933369300,1.098369384765625,-0.948974609375,-0.24017333984375,0.06390380859375
1761315092943416300,1.108416259765625,-0.948486328125,-0.2370758056640625,0.0579071044921875
1761315092953464600,1.118464599609375,-0.942596435546875,-0.2366790771484375,0.0548553466796875
1761315092963511600,1.128511474609375,-0.94183349609375,-0.2378387451171875,0.055999755859375
1761315092973559300,1.138559326171875,-0.94842529296875,-0.240631103515625,0.058837890625
1761315092983607600,1.148607666015625,-0.948333740234375,-0.24407958984375,0.061370849609375
1761315092993654500,1.158654541015625,-0.944854736328125,-0.2487945556640625,0.0630035400390625
1761315093003702500,1.16870263671875,-0.952667236328125,-0.2530517578125,0.0639190673828125
1761315093013749200,1.178749267578125,-0.954864501953125,-0.2517242431640625,0.056488037109375
1761315093023797500,1.188797607421875,-0.951385498046875,-0.2468414306640625,0.049652099609375
1761315093033845500,1.198845458984375,-0.9541778564453125,-0.2478179931640625,0.0463104248046875
1761315093043892500,1.208892578125,-0.95855712890625,-0.251373291015625,0.0517120361328125
1761315093053940500,1.2189404296875,-0.9589996337890625,-0.2524566650390625,0.0531158447265625
1761315093063987500,1.228987548828125,-0.961029052734375,-0.2469635009765625,0.047210693359375
1761315093074035500,1.239035400390625,-0.954437255859375,-0.2444915771484375,0.042633056640625
1761315093084083500,1.24908349609375,-0.956787109375,-0.24517822265625,0.045196533203125
1761315093094130400,1.25913037109375,-0.9671173095703125,-0.246368408203125,0.0495147705078125
1761315093104178400,1.269178466796875,-0.9638824462890625,-0.245147705078125,0.0512847900390625
1761315093114225400,1.279225341796875,-0.9611053466796875,-0.2458953857421875,0.0518646240234375
1761315093124273700,1.289273681640625,-0.96026611328125,-0.247039794921875,0.052886962890625
1761315093134321400,1.2993212890625,-0.9531707763671875,-0.2472991943359375,0.054473876953125
1761315093144368400,1.309368408203125,-0.9501190185546875,-0.2471771240234375,0.054107666015625
1761315093154416600,1.319416748046875,-0.9599609375,-0.2476959228515625,0.0558319091796875
1761315093164463600,1.329463623046875,-0.9599609375,-0.249755859375,0.0547332763671875
1761315093174507800,1.3395078125,-0.9467315673828125,-0.2458343505859375,0.04949951171875
1761315093184556000,1.34955615234375,-0.9449615478515625,-0.2440948486328125,0.048858642578125
1761315093194603000,1.35960302734375,-0.950103759765625,-0.2481231689453125,0.0540618896484375
1761315093204650800,1.369650634765625,-0.9516143798828125,-0.2515869140625,0.0541839599609375
1761315093214699000,1.379698974609375,-0.9461822509765625,-0.2512054443359375,0.0511322021484375
1761315093224746000,1.38974609375,-0.9439239501953125,-0.249267578125,0.052825927734375
1761315093234794000,1.3997939453125,-0.94610595703125,-0.2485504150390625,0.0557098388671875
1761315093244841000,1.409841064453125,-0.9436798095703125,-0.248016357421875,0.05780029296875
1761315093254889000,1.419888916015625,-0.9427642822265625,-0.2457275390625,0.0570831298828125
1761315093264937000,1.42993701171875,-0.9468231201171875,-0.2452545166015625,0.05694580078125
1761315093274984000,1.43998388671875,-0.954681396484375,-0.244537353515625,0.0529937744140625
1761315093285032000,1.450031982421875,-0.9545135498046875,-0.2413787841796875,0.0448760986328125
1761315093295079000,1.460078857421875,-0.9543609619140625,-0.2415924072265625,0.0393524169921875
1761315093305127000,1.470126953125,-0.9570770263671875,-0.2446441650390625,0.0405120849609375
1761315093315175200,1.480175048828125,-0.95672607421875,-0.2496490478515625,0.043487548828125
1761315093325222000,1.490221923828125,-0.95941162109375,-0.2516326904296875,0.0461883544921875
1761315093335270000,1.500269775390625,-0.9632720947265625,-0.251220703125,0.047454833984375
1761315093345316900,1.51031689453125,-0.9623565673828125,-0.2519989013671875,0.046173095703125
1761315093355365000,1.520365234375,-0.9610443115234375,-0.2499847412109375,0.0439605712890625
1761315093365412900,1.530412841796875,-0.9587860107421875,-0.2481536865234375,0.041900634765625
1761315093375459800,1.5404599609375,-0.95147705078125,-0.247467041015625,0.040618896484375
1761315093385508000,1.550508056640625,-0.94915771484375,-0.2469329833984375,0.042633056640625
1761315093395555000,1.56055517578125,-0.94732666015625,-0.2484893798828125,0.0471343994140625
1761315093405602800,1.570602783203125,-0.944671630859375,-0.24932861328125,0.0487518310546875
1761315093415650800,1.58065087890625,-0.9438018798828125,-0.2501678466796875,0.0501556396484375
1761315093425698000,1.590697998046875,-0.94342041015625,-0.250091552734375,0.0518341064453125
1761315093435746000,1.60074609375,-0.9425506591796875,-0.2479095458984375,0.0510406494140625
1761315093445793000,1.61079296875,-0.9448699951171875,-0.246337890625,0.0500030517578125
1761315093455841000,1.620841064453125,-0.9467620849609375,-0.2465362548828125,0.0497589111328125
1761315093465889000,1.630888916015625,-0.953277587890625,-0.2468414306640625,0.0509033203125
1761315093475936000,1.64093603515625,-0.9542694091796875,-0.2462921142578125,0.05133056640625
1761315093485983700,1.650983642578125,-0.953399658203125,-0.2474365234375,0.0516357421875
1761315093496032000,1.661031982421875,-0.9562225341796875,-0.249420166015625,0.0507049560546875
1761315093506079000,1.671078857421875,-0.9543609619140625,-0.251312255859375,0.0503692626953125
1761315093516127000,1.681126953125,-0.9530487060546875,-0.2528533935546875,0.0480194091796875
1761315093526174000,1.691174072265625,-0.9553985595703125,-0.254180908203125,0.048828125
1761315093536222000,1.701221923828125,-0.9609375,-0.254119873046875,0.048980712890625
1761315093546270000,1.71127001953125,-0.958953857421875,-0.2518463134765625,0.0475616455078125
1761315093556317000,1.72131689453125,-0.9571075439453125,-0.25006103515625,0.04608154296875
1761315093566365000,1.731364990234375,-0.9627838134765625,-0.2506256103515625,0.0476226806640625
1761315093576412000,1.741411865234375,-0.9669952392578125,-0.25030517578125,0.0483245849609375
1761315093586460000,1.7514599609375,-0.96539306640625,-0.2501220703125,0.045196533203125
1761315093596508000,1.7615078125,-0.96368408203125,-0.248626708984375,0.04486083984375
1761315093606555000,1.771554931640625,-0.9617156982421875,-0.2482147216796875,0.043975830078125
1761315093616603000,1.781602783203125,-0.958404541015625,-0.2497406005859375,0.04364013671875
1761315093626649900,1.79164990234375,-0.9544677734375,-0.2508697509765625,0.0435333251953125
1761315093636698000,1.801697998046875,-0.9471282958984375,-0.25152587890625,0.0439910888671875
1761315093646745900,1.811745849609375,-0.943145751953125,-0.2519378662109375,0.0446319580078125
1761315093656792800,1.821792724609375,-0.944854736328125,-0.251556396484375,0.045806884765625
1761315093666841000,1.831841064453125,-0.942962646484375,-0.2500457763671875,0.04620361328125
1761315093676888000,1.84188818359375,-0.9407501220703125,-0.250091552734375,0.0467071533203125
1761315093686935800,1.851935791015625,-0.937774658203125,-0.2513580322265625,0.0454559326171875
1761315093696984000,1.861984130859375,-0.935028076171875,-0.2510833740234375,0.0452423095703125
1761315093707031000,1.872031005859375,-0.9379425048828125,-0.2512359619140625,0.0433349609375
1761315093717079000,1.8820791015625,-0.939605712890625,-0.2518768310546875,0.0415191650390625
1761315093727127000,1.892126953125,-0.944122314453125,-0.251434326171875,0.0408782958984375
1761315093737174000,1.902174072265625,-0.943695068359375,-0.251678466796875,0.0393829345703125
1761315093747222000,1.912221923828125,-0.942047119140625,-0.252197265625,0.0397796630859375
1761315093757269000,1.92226904296875,-0.9440155029296875,-0.2537994384765625,0.0411224365234375
1761315093767317000,1.93231689453125,-0.9511260986328125,-0.256378173828125,0.0419921875
1761315093777365000,1.942364990234375,-0.95269775390625,-0.259002685546875,0.0430145263671875
1761315093787412000,1.952411865234375,-0.953216552734375,-0.2577056884765625,0.041717529296875
1761315093797460000,1.9624599609375,-0.9604034423828125,-0.256988525390625,0.0427703857421875
1761315093807507000,1.9725068359375,-0.9615936279296875,-0.25738525390625,0.0407257080078125
1761315093817555000,1.982554931640625,-0.95745849609375,-0.255889892578125,0.0427093505859375
1761315093827603000,1.99260302734375,-0.9612884521484375,-0.2558746337890625,0.0462188720703125
1761315093837650200,2.002650146484375,-0.961822509765625,-0.2574005126953125,0.050537109375
1761315093847698000,2.012697998046875,-0.9544219970703125,-0.2563934326171875,0.05194091796875
1761315093857745000,2.022744873046875,-0.9542236328125,-0.255401611328125,0.0548248291015625
1761315093867793000,2.03279296875,-0.9553985595703125,-0.2567138671875,0.0587310791015625
1761315093877841000,2.0428408203125,-0.953948974609375,-0.2543182373046875,0.0596160888671875
1761315093887888000,2.052887939453125,-0.952789306640625,-0.25030517578125,0.0579833984375
1761315093897936000,2.062935791015625,-0.9535980224609375,-0.247772216796875,0.058837890625
1761315093907983000,2.072983154296875,-0.955413818359375,-0.2451324462890625,0.0551605224609375
1761315093918031000,2.083031005859375,-0.9521636962890625,-0.2434844970703125,0.0513458251953125
1761315093928078800,2.093078857421875,-0.95281982421875,-0.24468994140625,0.050048828125
1761315093938125800,2.103125732421875,-0.95220947265625,-0.2454376220703125,0.0482940673828125
1761315093948174000,2.113174072265625,-0.9524383544921875,-0.2462615966796875,0.0456085205078125
1761315093958221000,2.123220947265625,-0.9519195556640625,-0.2473297119140625,0.0424041748046875
1761315093968268800,2.133268798828125,-0.9519500732421875,-0.2483673095703125,0.040679931640625
1761315093978317000,2.143317138671875,-0.9502716064453125,-0.2490386962890625,0.041351318359375
1761315093988364000,2.153364013671875,-0.9461822509765625,-0.2527618408203125,0.0421905517578125
1761315093998411800,2.163411865234375,-0.943389892578125,-0.2547149658203125,0.0438232421875
1761315094008460000,2.1734599609375,-0.9451751708984375,-0.2555389404296875,0.0471649169921875
1761315094018507000,2.183507080078125,-0.946563720703125,-0.255523681640625,0.045928955078125
1761315094028555000,2.193554931640625,-0.950439453125,-0.2541351318359375,0.04412841796875
1761315094038602000,2.20360205078125,-0.95770263671875,-0.252349853515625,0.043975830078125
1761315094048650000,2.21364990234375,-0.9575347900390625,-0.24969482421875,0.0418701171875
1761315094058698000,2.223697998046875,-0.9597930908203125,-0.246978759765625,0.0400238037109375
1761315094068745000,2.233744873046875,-0.962982177734375,-0.2470855712890625,0.0392303466796875
1761315094078793000,2.24379296875,-0.961822509765625,-0.24798583984375,0.0402069091796875
1761315094088840000,2.25383984375,-0.964447021484375,-0.249664306640625,0.040618896484375
1761315094098888000,2.263887939453125,-0.964813232421875,-0.2496337890625,0.043121337890625
1761315094108936200,2.273936279296875,-0.960601806640625,-0.247589111328125,0.0427703857421875
1761315094118983000,2.28398291015625,-0.9571533203125,-0.24774169921875,0.044525146484375
1761315094129031000,2.294031005859375,-0.95648193359375,-0.2474365234375,0.0447235107421875
1761315094139078000,2.304077880859375,-0.95196533203125,-0.246856689453125,0.0433807373046875
1761315094149126100,2.314126220703125,-0.9478759765625,-0.24615478515625,0.0419158935546875
1761315094159174000,2.324173828125,-0.94683837890625,-0.2457733154296875,0.0417633056640625
1761315094169220900,2.334220947265625,-0.9501953125,-0.2479400634765625,0.0426025390625
1761315094179269000,2.34426904296875,-0.94830322265625,-0.249053955078125,0.0410614013671875
1761315094189316000,2.354316162109375,-0.9500274658203125,-0.2481689453125,0.038238525390625
1761315094199363800,2.36436376953125,-0.9495849609375,-0.247589111328125,0.03692626953125
1761315094209412000,2.374412109375,-0.947357177734375,-0.2477264404296875,0.0354156494140625
1761315094219459000,2.384458984375,-0.9466552734375,-0.2475128173828125,0.03533935546875
1761315094229507000,2.394507080078125,-0.95013427734375,-0.249603271484375,0.0380706787109375
1761315094239554000,2.404553955078125,-0.9525604248046875,-0.2530364990234375,0.04150390625
1761315094249602000,2.41460205078125,-0.9594268798828125,-0.2523345947265625,0.0420074462890625
1761315094259650000,2.424650146484375,-0.962646484375,-0.246368408203125,0.038177490234375
1761315094269697000,2.434697021484375,-0.954833984375,-0.2422637939453125,0.0343017578125
1761315094279745000,2.4447451171875,-0.9542694091796875,-0.241668701171875,0.034210205078125
1761315094289793000,2.45479296875,-0.9550323486328125,-0.24334716796875,0.0370330810546875
1761315094299840000,2.464840087890625,-0.956787109375,-0.247314453125,0.0400390625
1761315094309888000,2.474887939453125,-0.9615936279296875,-0.2496185302734375,0.0398406982421875
1761315094319935000,2.48493505859375,-0.9586334228515625,-0.2476348876953125,0.036468505859375
1761315094329983000,2.49498291015625,-0.9569549560546875,-0.2465057373046875,0.0320587158203125
1761315094340031000,2.505031005859375,-0.9550323486328125,-0.24749755859375,0.03228759765625
1761315094350078200,2.515078125,-0.952117919921875,-0.250457763671875,0.0338134765625
1761315094360126000,2.5251259765625,-0.947357177734375,-0.25323486328125,0.035247802734375
1761315094370173000,2.5351728515625,-0.9449310302734375,-0.254547119140625,0.035400390625
1761315094380221000,2.545220947265625,-0.94744873046875,-0.2557220458984375,0.0355987548828125
1761315094390269000,2.55526904296875,-0.94891357421875,-0.2557220458984375,0.0352325439453125
1761315094400316000,2.56531591796875,-0.947418212890625,-0.2535552978515625,0.0313568115234375
1761315094410364000,2.575364013671875,-0.9471435546875,-0.250396728515625,0.0274658203125
1761315094420411100,2.5854111328125,-0.9475860595703125,-0.2506103515625,0.0277252197265625
1761315094430459100,2.595459228515625,-0.950408935546875,-0.251495361328125,0.0312347412109375
1761315094440507000,2.6055068359375,-0.954742431640625,-0.2496337890625,0.037567138671875
1761315094450553900,2.615553955078125,-0.96002197265625,-0.24761962890625,0.042266845703125
1761315094460602000,2.62560205078125,-0.959228515625,-0.2453765869140625,0.0418548583984375
1761315094470649000,2.635649169921875,-0.9585113525390625,-0.244415283203125,0.0396270751953125
1761315094480696800,2.64569677734375,-0.9585723876953125,-0.2451934814453125,0.0391845703125
1761315094490745000,2.6557451171875,-0.957855224609375,-0.2463836669921875,0.0413055419921875
1761315094500792000,2.6657919921875,-0.9564208984375,-0.2481842041015625,0.044097900390625
1761315094510840000,2.675840087890625,-0.952911376953125,-0.25054931640625,0.04571533203125
1761315094520888000,2.68588818359375,-0.9547119140625,-0.2496490478515625,0.0472564697265625
1761315094530935000,2.69593505859375,-0.957305908203125,-0.2489013671875,0.0470428466796875
1761315094540983000,2.705983154296875,-0.9578399658203125,-0.2496337890625,0.0474090576171875
1761315094551030000,2.716030029296875,-0.9580841064453125,-0.2495574951171875,0.048553466796875
1761315094561078000,2.726078125,-0.9565887451171875,-0.2481842041015625,0.0479278564453125
1761315094571125000,2.736125,-0.9567413330078125,-0.2483062744140625,0.0466156005859375
1761315094581173000,2.746173095703125,-0.95062255859375,-0.2495880126953125,0.0431671142578125
1761315094591221000,2.756220947265625,-0.9486083984375,-0.24993896484375,0.04443359375
1761315094601268000,2.76626806640625,-0.9503631591796875,-0.252288818359375,0.04766845703125
1761315094611316000,2.77631591796875,-0.94873046875,-0.253265380859375,0.0493621826171875
1761315094621363000,2.786363037109375,-0.9463348388671875,-0.25140380859375,0.04571533203125
1761315094631411200,2.7964111328125,-0.947265625,-0.2512969970703125,0.04119873046875
1761315094641459000,2.806458984375,-0.9487152099609375,-0.2519683837890625,0.0418243408203125
1761315094651506000,2.816505859375,-0.94970703125,-0.2510986328125,0.0394134521484375
1761315094661554200,2.82655419921875,-0.95172119140625,-0.2489166259765625,0.0377197265625
1761315094671602000,2.836601806640625,-0.957244873046875,-0.2489166259765625,0.0391082763671875
1761315094681649000,2.84664892578125,-0.9562530517578125,-0.248077392578125,0.0387115478515625
1761315094691697200,2.856697265625,-0.957550048828125,-0.2452392578125,0.0377655029296875
1761315094701744000,2.866744140625,-0.95965576171875,-0.24432373046875,0.0404052734375
1761315094711791900,2.8767919921875,-0.9568023681640625,-0.2456207275390625,0.0400848388671875
1761315094721839900,2.88683984375,-0.95245361328125,-0.2464141845703125,0.0403594970703125
1761315094731887000,2.89688720703125,-0.9528350830078125,-0.2471923828125,0.04339599609375
1761315094741935000,2.90693505859375,-0.9522247314453125,-0.2470245361328125,0.04559326171875
1761315094751982000,2.916982177734375,-0.952850341796875,-0.2470855712890625,0.045135498046875
1761315094762029800,2.92702978515625,-0.949127197265625,-0.246429443359375,0.0436859130859375
1761315094772078000,2.937078125,-0.9465179443359375,-0.24505615234375,0.04254150390625
1761315094782125000,2.947125,-0.9476165771484375,-0.24578857421875,0.043487548828125
1761315094792172800,2.9571728515625,-0.94915771484375,-0.245513916015625,0.0453033447265625
1761315094802220000,2.967219970703125,-0.94989013671875,-0.2458648681640625,0.0470123291015625
1761315094812268000,2.97726806640625,-0.95318603515625,-0.245361328125,0.0447845458984375
1761315094822316000,2.98731591796875,-0.955413818359375,-0.2438201904296875,0.04022216796875
1761315094832363000,2.997363037109375,-0.9563140869140625,-0.2429046630859375,0.0378265380859375
1761315094842411000,3.007410888671875,-0.95697021484375,-0.2442474365234375,0.038665771484375
1761315094852458000,3.0174580078125,-0.95654296875,-0.2469024658203125,0.040283203125
1761315094862506000,3.027506103515625,-0.9519195556640625,-0.2502288818359375,0.0401611328125
1761315094872554000,3.037553955078125,-0.9495849609375,-0.252105712890625,0.0404815673828125
1761315094882601000,3.04760107421875,-0.94696044921875,-0.251708984375,0.03875732421875
1761315094892649000,3.05764892578125,-0.947723388671875,-0.2503509521484375,0.0366363525390625
1761315094902696000,3.067696044921875,-0.945709228515625,-0.2491912841796875,0.0372467041015625
1761315094912744000,3.077743896484375,-0.949188232421875,-0.2488555908203125,0.0421295166015625
1761315094922792000,3.0877919921875,-0.95416259765625,-0.2478179931640625,0.04376220703125
1761315094932839000,3.0978388671875,-0.9560699462890625,-0.245025634765625,0.0454559326171875
1761315094942887200,3.10788720703125,-0.9561920166015625,-0.24151611328125,0.0438690185546875
1761315094952934100,3.11793408203125,-0.960174560546875,-0.237548828125,0.0425872802734375
1761315094962982000,3.12798193359375,-0.96026611328125,-0.235260009765625,0.04119873046875
1761315094973030100,3.138030029296875,-0.9598541259765625,-0.2368316650390625,0.040252685546875
1761315094983077000,3.1480771484375,-0.9608306884765625,-0.23974609375,0.0396881103515625
1761315094993124900,3.158124755859375,-0.963287353515625,-0.2411651611328125,0.04095458984375
1761315095003171800,3.168171875,-0.961181640625,-0.24224853515625,0.0410308837890625
1761315095013220000,3.17822021484375,-0.960784912109375,-0.2442626953125,0.0397491455078125
1761315095023268000,3.18826806640625,-0.9605865478515625,-0.2458648681640625,0.0382843017578125
1761315095033314800,3.198314697265625,-0.959625244140625,-0.24566650390625,0.0380096435546875
1761315095043363000,3.208363037109375,-0.9595489501953125,-0.247222900390625,0.0392303466796875
1761315095053410000,3.21841015625,-0.960052490234375,-0.2485504150390625,0.03790283203125
1761315095063458000,3.2284580078125,-0.9573516845703125,-0.2498016357421875,0.0368194580078125
1761315095073506000,3.238506103515625,-0.9546356201171875,-0.2472991943359375,0.0361175537109375
1761315095083553000,3.248552978515625,-0.9565277099609375,-0.246246337890625,0.03656005859375
1761315095093601000,3.25860107421875,-0.95361328125,-0.244720458984375,0.036102294921875
1761315095103649000,3.26864892578125,-0.95501708984375,-0.244415283203125,0.0377655029296875
1761315095113696000,3.278696044921875,-0.9569091796875,-0.2432098388671875,0.038848876953125
1761315095123744000,3.288743896484375,-0.9584808349609375,-0.2402496337890625,0.039398193359375
1761315095133791000,3.298791015625,-0.9563751220703125,-0.2386322021484375,0.0382843017578125
1761315095143839200,3.308839111328125,-0.9560394287109375,-0.238189697265625,0.038330078125
1761315095153887000,3.318886962890625,-0.9561767578125,-0.2391357421875,0.0382080078125
1761315095163934000,3.328933837890625,-0.9546356201171875,-0.23992919921875,0.0378875732421875
1761315095173982000,3.33898193359375,-0.9551239013671875,-0.239898681640625,0.037933349609375
1761315095184028400,3.3490283203125,-0.95556640625,-0.2403717041015625,0.0377349853515625
1761315095194076400,3.359076416015625,-0.95721435546875,-0.241973876953125,0.0362548828125
1761315095204124400,3.36912451171875,-0.955474853515625,-0.2408599853515625,0.0351104736328125
1761315095214171400,3.37917138671875,-0.9541168212890625,-0.239532470703125,0.0318603515625
1761315095224219600,3.3892197265625,-0.9542999267578125,-0.239837646484375,0.0332489013671875
1761315095234266600,3.3992666015625,-0.956817626953125,-0.2435760498046875,0.0358123779296875
1761315095244314400,3.409314453125,-0.958282470703125,-0.2456817626953125,0.035003662109375
1761315095254362400,3.4193623046875,-0.9573822021484375,-0.2446441650390625,0.0305938720703125
1761315095264409600,3.42940966796875,-0.955230712890625,-0.241363525390625,0.0291900634765625
1761315095274457300,3.439457275390625,-0.9572906494140625,-0.2411346435546875,0.0299224853515625
1761315095284504300,3.44950439453125,-0.95611572265625,-0.241912841796875,0.033294677734375
1761315095294552600,3.459552490234375,-0.955474853515625,-0.24444580078125,0.038299560546875
1761315095304600600,3.4696005859375,-0.9567413330078125,-0.245758056640625,0.0415802001953125
1761315095314647600,3.4796474609375,-0.957305908203125,-0.2430572509765625,0.0452423095703125
1761315095324695300,3.4896953125,-0.9596099853515625,-0.2398834228515625,0.0473175048828125
1761315095334742500,3.499742431640625,-0.9595184326171875,-0.234588623046875,0.0451812744140625
1761315095344790500,3.50979052734375,-0.95574951171875,-0.23297119140625,0.0451812744140625
1761315095354838300,3.51983837890625,-0.9558868408203125,-0.23541259765625,0.0448455810546875
1761315095364885500,3.529885498046875,-0.958221435546875,-0.23785400390625,0.0450897216796875
1761315095374933500,3.53993359375,-0.95953369140625,-0.2386627197265625,0.0450897216796875
1761315095384980500,3.54998046875,-0.9606781005859375,-0.2388916015625,0.0452728271484375
1761315095395028500,3.560028564453125,-0.96038818359375,-0.240997314453125,0.044586181640625
1761315095405076500,3.570076416015625,-0.9582672119140625,-0.24249267578125,0.04388427734375
1761315095415123500,3.58012353515625,-0.9556884765625,-0.241546630859375,0.0424652099609375
1761315095425171500,3.59017138671875,-0.951904296875,-0.2408905029296875,0.0414886474609375
1761315095435218700,3.60021875,-0.9520721435546875,-0.2420501708984375,0.0409698486328125
1761315095445266400,3.610266357421875,-0.9518890380859375,-0.243804931640625,0.04132080078125
1761315095455314400,3.620314453125,-0.9510955810546875,-0.246124267578125,0.0412445068359375
1761315095465361400,3.630361328125,-0.949981689453125,-0.2440643310546875,0.041717529296875
1761315095475409400,3.640409423828125,-0.9500885009765625,-0.2421417236328125,0.0403289794921875
1761315095485456400,3.650456298828125,-0.9512176513671875,-0.2425994873046875,0.0407562255859375
1761315095495504400,3.66050439453125,-0.954681396484375,-0.24359130859375,0.0428619384765625
1761315095505552600,3.670552734375,-0.9555511474609375,-0.24273681640625,0.0422515869140625
1761315095515599600,3.680599609375,-0.9586334228515625,-0.2397308349609375,0.0428314208984375
1761315095525647400,3.6906474609375,-0.9625701904296875,-0.2383575439453125,0.042205810546875
1761315095535694300,3.7006943359375,-0.956939697265625,-0.2384185791015625,0.04156494140625
1761315095545742600,3.71074267578125,-0.95440673828125,-0.239776611328125,0.042205810546875
1761315095555790300,3.720790283203125,-0.9591522216796875,-0.241546630859375,0.04510498046875
1761315095565837300,3.73083740234375,-0.9574127197265625,-0.2430419921875,0.0469207763671875
1761315095575885600,3.740885498046875,-0.9508819580078125,-0.244293212890625,0.047637939453125
1761315095585932500,3.7509326171875,-0.948455810546875,-0.2461700439453125,0.0484161376953125
1761315095595980300,3.760980224609375,-0.9540863037109375,-0.24810791015625,0.0500640869140625
1761315095606028500,3.771028564453125,-0.9521484375,-0.2492218017578125,0.0486297607421875
1761315095616075500,3.781075439453125,-0.94525146484375,-0.2476959228515625,0.044586181640625
1761315095626123500,3.79112353515625,-0.9417572021484375,-0.247344970703125,0.04339599609375
1761315095636170500,3.80117041015625,-0.954376220703125,-0.248504638671875,0.0464935302734375
1761315095646218500,3.811218505859375,-0.9584808349609375,-0.2486114501953125,0.0473785400390625
1761315095656266500,3.8212666015625,-0.9525909423828125,-0.2447052001953125,0.045257568359375
1761315095666313500,3.8313134765625,-0.951324462890625,-0.2412872314453125,0.0458831787109375
1761315095676361500,3.841361572265625,-0.9560089111328125,-0.2444305419921875,0.0507659912109375
1761315095686408400,3.851408447265625,-0.95440673828125,-0.2467193603515625,0.053375244140625
1761315095696456400,3.86145654296875,-0.951416015625,-0.24542236328125,0.05029296875
1761315095706504400,3.87150439453125,-0.9581146240234375,-0.2432403564453125,0.048583984375
1761315095716551400,3.881551513671875,-0.955291748046875,-0.2435302734375,0.047088623046875
1761315095726599400,3.891599365234375,-0.954071044921875,-0.2437591552734375,0.0431060791015625
1761315095736646400,3.901646484375,-0.954681396484375,-0.24462890625,0.0397491455078125
1761315095746694700,3.911694580078125,-0.95416259765625,-0.24554443359375,0.039764404296875
1761315095756742400,3.921742431640625,-0.9562225341796875,-0.246368408203125,0.039581298828125
1761315095766789400,3.931789306640625,-0.9563751220703125,-0.247955322265625,0.0424957275390625
1761315095776837400,3.94183740234375,-0.955078125,-0.2474822998046875,0.044189453125
1761315095786884600,3.951884521484375,-0.949432373046875,-0.2473602294921875,0.041748046875
1761315095796932400,3.961932373046875,-0.944244384765625,-0.24615478515625,0.03912353515625
1761315095806980400,3.97198046875,-0.9395751953125,-0.24609375,0.0388641357421875
1761315095817027600,3.982027587890625,-0.938446044921875,-0.2489166259765625,0.0412750244140625
1761315095827075600,3.99207568359375,-0.9415283203125,-0.2514495849609375,0.0437164306640625
1761315095837122600,4.00212255859375,-0.9450836181640625,-0.2512359619140625,0.045745849609375
1761315095847170300,4.01217041015625,-0.947509765625,-0.2469024658203125,0.0460968017578125
1761315095857218600,4.022218505859375,-0.951324462890625,-0.24005126953125,0.044677734375
1761315095867265500,4.032265625,-0.9558868408203125,-0.23712158203125,0.043426513671875
1761315095877313300,4.042313232421875,-0.9600677490234375,-0.2371063232421875,0.043365478515625
1761315095887360500,4.052360595703125,-0.9665069580078125,-0.2388763427734375,0.0423431396484375
1761315095897408500,4.062408447265625,-0.9658966064453125,-0.2421417236328125,0.0418701171875
1761315095907456500,4.07245654296875,-0.964569091796875,-0.2454681396484375,0.0386962890625
1761315095917503200,4.082503173828125,-0.965057373046875,-0.24847412109375,0.0381011962890625
1761315095927551500,4.092551513671875,-0.9688262939453125,-0.2495269775390625,0.0369873046875
1761315095937598500,4.102598388671875,-0.9696197509765625,-0.2513427734375,0.035186767578125
1761315095947646500,4.112646484375,-0.9656829833984375,-0.2520599365234375,0.0330657958984375
1761315095957694500,4.122694580078125,-0.9617156982421875,-0.249969482421875,0.0330810546875
1761315095967741400,4.132741455078125,-0.9602508544921875,-0.2491912841796875,0.0357818603515625
1761315095977789400,4.14278955078125,-0.960601806640625,-0.248199462890625,0.0393829345703125
1761315095987836400,4.15283642578125,-0.957366943359375,-0.246307373046875,0.04083251953125
1761315095997884400,4.162884521484375,-0.9538421630859375,-0.242462158203125,0.041656494140625
1761315096007932400,4.172932373046875,-0.9541015625,-0.2394561767578125,0.0435943603515625
1761315096017979400,4.1829794921875,-0.955596923828125,-0.2379150390625,0.0434112548828125
1761315096028027600,4.193027587890625,-0.948638916015625,-0.2370758056640625,0.04278564453125
1761315096038074400,4.203074462890625,-0.947357177734375,-0.235992431640625,0.042755126953125
1761315096048122400,4.213122314453125,-0.947113037109375,-0.23828125,0.04248046875
1761315096058170600,4.223170654296875,-0.9487152099609375,-0.242095947265625,0.0440673828125
1761315096068217600,4.233217529296875,-0.9514007568359375,-0.2459564208984375,0.04400634765625
1761315096078265300,4.243265380859375,-0.9531097412109375,-0.2462158203125,0.0433807373046875
1761315096088312300,4.253312255859375,-0.9512481689453125,-0.2455291748046875,0.0399932861328125
1761315096098360600,4.263360595703125,-0.9493255615234375,-0.2459869384765625,0.03656005859375
1761315096108408600,4.27340869140625,-0.952789306640625,-0.2478485107421875,0.0357513427734375
1761315096118455300,4.283455322265625,-0.9549407958984375,-0.248382568359375,0.0348663330078125
1761315096128503600,4.293503662109375,-0.9564208984375,-0.247161865234375,0.0328826904296875
1761315096138550500,4.303550537109375,-0.9571533203125,-0.2478179931640625,0.03399658203125
1761315096148598500,4.3135986328125,-0.9560089111328125,-0.247161865234375,0.037017822265625
1761315096158646300,4.323646240234375,-0.9593048095703125,-0.2478179931640625,0.042022705078125
1761315096168693500,4.333693603515625,-0.964691162109375,-0.24676513671875,0.0455474853515625
1761315096178741800,4.34374169921875,-0.96392822265625,-0.243896484375,0.0464935302734375
1761315096188788700,4.353788818359375,-0.95770263671875,-0.2388916015625,0.04345703125
1761315096198836700,4.363836669921875,-0.9550628662109375,-0.2354736328125,0.0427703857421875
1761315096208883700,4.3738837890625,-0.956512451171875,-0.2363128662109375,0.0417327880859375
1761315096218931700,4.383931640625,-0.9594573974609375,-0.238128662109375,0.0393218994140625
1761315096228979700,4.393979736328125,-0.956024169921875,-0.2395172119140625,0.0363616943359375
1761315096239026700,4.404026611328125,-0.9597320556640625,-0.24169921875,0.0361328125
1761315096249074700,4.41407470703125,-0.962890625,-0.245391845703125,0.0366058349609375
1761315096259121700,4.42412158203125,-0.9574432373046875,-0.2479400634765625,0.035003662109375
1761315096269170000,4.434169921875,-0.9552001953125,-0.249267578125,0.0326995849609375
1761315096279217700,4.4442177734375,-0.9556884765625,-0.2506256103515625,0.0337066650390625
1761315096289264600,4.4542646484375,-0.9529876708984375,-0.25323486328125,0.034027099609375
1761315096299313000,4.46431298828125,-0.9486236572265625,-0.2528228759765625,0.03338623046875
1761315096309359900,4.47435986328125,-0.94793701171875,-0.2497100830078125,0.031005859375
1761315096319407600,4.48440771484375,-0.9479827880859375,-0.2449493408203125,0.03021240234375
1761315096329455600,4.49445556640625,-0.951995849609375,-0.2434844970703125,0.0315704345703125
1761315096339502800,4.5045029296875,-0.9495391845703125,-0.2422637939453125,0.030242919921875
1761315096349550800,4.51455078125,-0.9492645263671875,-0.24017333984375,0.031005859375
1761315096359597600,4.52459765625,-0.952239990234375,-0.2418060302734375,0.0362548828125
1761315096369645600,4.5346455078125,-0.9506378173828125,-0.2442779541015625,0.0410919189453125
1761315096379693800,4.54469384765625,-0.948944091796875,-0.2442626953125,0.042938232421875
1761315096389740800,4.55474072265625,-0.9524078369140625,-0.2443389892578125,0.0453338623046875
1761315096399788500,4.56478857421875,-0.9546966552734375,-0.2438812255859375,0.0472564697265625
1761315096409835800,4.574835693359375,-0.9532318115234375,-0.2403411865234375,0.04412841796875
1761315096419883800,4.5848837890625,-0.9542999267578125,-0.236419677734375,0.0422515869140625
1761315096429931500,4.594931640625,-0.960113525390625,-0.236724853515625,0.041748046875
1761315096439978500,4.604978515625,-0.95916748046875,-0.23944091796875,0.0403900146484375
1761315096450026800,4.61502685546875,-0.9580078125,-0.2430267333984375,0.0389404296875
1761315096460073700,4.62507373046875,-0.9580230712890625,-0.2480316162109375,0.0405120849609375
1761315096470121700,4.635121826171875,-0.9561920166015625,-0.2502593994140625,0.0419921875
1761315096480169700,4.645169677734375,-0.95831298828125,-0.250244140625,0.040618896484375
1761315096490216700,4.655216796875,-0.9619140625,-0.251800537109375,0.0403289794921875
1761315096500264700,4.6652646484375,-0.9593505859375,-0.249908447265625,0.0394134521484375
1761315096510311700,4.675311767578125,-0.9580230712890625,-0.2464141845703125,0.038116455078125
1761315096520359700,4.685359619140625,-0.9544219970703125,-0.2444000244140625,0.0389862060546875
1761315096530407700,4.69540771484375,-0.9547882080078125,-0.2454833984375,0.038818359375
1761315096540454700,4.70545458984375,-0.9554290771484375,-0.2451019287109375,0.0374603271484375
1761315096550502700,4.715502685546875,-0.9527740478515625,-0.243988037109375,0.03717041015625
1761315096560549600,4.725549560546875,-0.9542083740234375,-0.2436065673828125,0.03997802734375
1761315096570597600,4.73559765625,-0.9600982666015625,-0.2418060302734375,0.04071044921875
1761315096580646000,4.74564599609375,-0.958282470703125,-0.2411651611328125,0.0399017333984375
1761315096590692900,4.75569287109375,-0.9589080810546875,-0.2390289306640625,0.04144287109375
1761315096600740600,4.76574072265625,-0.9577789306640625,-0.2392120361328125,0.042022705078125
1761315096610787600,4.77578759765625,-0.9548492431640625,-0.238800048828125,0.0414886474609375
1761315096620835800,4.7858359375,-0.9538421630859375,-0.2395172119140625,0.042816162109375
1761315096630882800,4.7958828125,-0.952239990234375,-0.2404937744140625,0.0416107177734375
1761315096640930600,4.8059306640625,-0.951812744140625,-0.2437591552734375,0.0424957275390625
1761315096650978800,4.815978759765625,-0.9544830322265625,-0.244873046875,0.0438232421875
1761315096661025800,4.82602587890625,-0.9524078369140625,-0.2427825927734375,0.042510986328125
1761315096671073800,4.83607373046875,-0.9481353759765625,-0.24188232421875,0.039276123046875
1761315096681120500,4.84612060546875,-0.95318603515625,-0.2418365478515625,0.03717041015625
1761315096691168800,4.856168701171875,-0.956085205078125,-0.2438201904296875,0.0384063720703125
1761315096701216800,4.866216796875,-0.9568939208984375,-0.244842529296875,0.0379638671875
1761315096711263700,4.876263671875,-0.9568939208984375,-0.245361328125,0.0367584228515625
1761315096721311700,4.886311767578125,-0.9589385986328125,-0.2459259033203125,0.0417022705078125
1761315096731356700,4.896356689453125,-0.9599761962890625,-0.246124267578125,0.0427398681640625
1761315096741404000,4.90640380859375,-0.957305908203125,-0.244964599609375,0.0435333251953125
1761315096751451600,4.91645166015625,-0.953704833984375,-0.2448272705078125,0.04351806640625
1761315096761498600,4.92649853515625,-0.955230712890625,-0.243896484375,0.0449371337890625
1761315096771546600,4.936546630859375,-0.954986572265625,-0.2436676025390625,0.0433502197265625
1761315096781593900,4.94659375,-0.952880859375,-0.2424468994140625,0.0435028076171875
1761315096791641600,4.9566416015625,-0.954254150390625,-0.2412109375,0.043731689453125
1761315096801689600,4.966689697265625,-0.95709228515625,-0.241455078125,0.044921875
1761315096811736800,4.97673681640625,-0.9581451416015625,-0.2436981201171875,0.0452117919921875
1761315096821784800,4.986784912109375,-0.951995849609375,-0.2425384521484375,0.043487548828125
1761315096831831800,4.996831787109375,-0.950164794921875,-0.240997314453125,0.0435638427734375
1761315096841879600,5.006879638671875,-0.951812744140625,-0.2422943115234375,0.0438385009765625
1761315096851927800,5.016927734375,-0.949920654296875,-0.243408203125,0.043792724609375
1761315096861974800,5.026974853515625,-0.9485626220703125,-0.2439422607421875,0.0430908203125
1761315096872022500,5.0370224609375,-0.9525146484375,-0.2423095703125,0.042694091796875
1761315096882069800,5.04706982421875,-0.9520263671875,-0.241607666015625,0.042327880859375
1761315096892117800,5.05711767578125,-0.9501495361328125,-0.242950439453125,0.04107666015625
1761315096902165800,5.067165771484375,-0.947662353515625,-0.2437286376953125,0.040008544921875
1761315096912212700,5.077212646484375,-0.9435272216796875,-0.2447509765625,0.0396728515625
1761315096922260700,5.0872607421875,-0.94891357421875,-0.248260498046875,0.0407562255859375
1761315096932307700,5.0973076171875,-0.9562225341796875,-0.2493438720703125,0.0396575927734375
1761315096942355700,5.107355712890625,-0.9569091796875,-0.2452545166015625,0.0389404296875
1761315096952403700,5.11740380859375,-0.963134765625,-0.2432403564453125,0.0407867431640625
1761315096962450700,5.12745068359375,-0.9638519287109375,-0.243621826171875,0.040863037109375
1761315096972498700,5.137498779296875,-0.962677001953125,-0.240325927734375,0.0415496826171875
1761315096982545700,5.147545654296875,-0.96258544921875,-0.23828125,0.0441436767578125
1761315096992593700,5.15759375,-0.959625244140625,-0.2362823486328125,0.0443878173828125
1761315097002641700,5.1676416015625,-0.957611083984375,-0.2385711669921875,0.0465545654296875
1761315097012688600,5.177688720703125,-0.9592132568359375,-0.2402496337890625,0.049285888671875
1761315097022737000,5.18773681640625,-0.957794189453125,-0.240692138671875,0.0518798828125
1761315097032784000,5.197783935546875,-0.9564971923828125,-0.240203857421875,0.0539703369140625
1761315097042831600,5.20783154296875,-0.954437255859375,-0.238311767578125,0.0533599853515625
1761315097052878600,5.217878662109375,-0.950103759765625,-0.2374725341796875,0.0527801513671875
1761315097062926800,5.2279267578125,-0.94696044921875,-0.23736572265625,0.0507965087890625
1761315097072974600,5.237974609375,-0.9471588134765625,-0.2387542724609375,0.0510711669921875
1761315097083021600,5.248021484375,-0.9476318359375,-0.23858642578125,0.0497589111328125
1761315097093069800,5.25806982421875,-0.9465179443359375,-0.238983154296875,0.0479888916015625
1761315097103116800,5.26811669921875,-0.94830322265625,-0.2392425537109375,0.0476837158203125
1761315097113164500,5.27816455078125,-0.9479217529296875,-0.2408294677734375,0.0449676513671875
1761315097123212800,5.288212890625,-0.9518280029296875,-0.2402801513671875,0.04205322265625
1761315097133259800,5.298259765625,-0.95654296875,-0.2425537109375,0.0405731201171875
1761315097143307800,5.308307861328125,-0.959686279296875,-0.2444610595703125,0.0433807373046875
1761315097153354800,5.318354736328125,-0.9623260498046875,-0.243927001953125,0.046966552734375
1761315097163402800,5.32840283203125,-0.96270751953125,-0.2419891357421875,0.047119140625
1761315097173450800,5.33845068359375,-0.9658050537109375,-0.2405853271484375,0.04656982421875
1761315097183498500,5.34849853515625,-0.9662628173828125,-0.2388916015625,0.043487548828125
1761315097193546800,5.358546630859375,-0.9673004150390625,-0.2354888916015625,0.0420684814453125
1761315097203593700,5.36859375,-0.9664154052734375,-0.23394775390625,0.0411376953125
1761315097213641700,5.378641845703125,-0.9638519287109375,-0.2327728271484375,0.0413818359375
1761315097223688700,5.388688720703125,-0.96356201171875,-0.2328948974609375,0.04156494140625
1761315097233736700,5.39873681640625,-0.96148681640625,-0.2347412109375,0.0417327880859375
1761315097243784700,5.40878466796875,-0.9568939208984375,-0.2343902587890625,0.0399932861328125
1761315097253831700,5.418831787109375,-0.9559173583984375,-0.2341461181640625,0.04266357421875
1761315097263879700,5.428879638671875,-0.9537200927734375,-0.2350311279296875,0.0456390380859375
1761315097273926700,5.4389267578125,-0.9493560791015625,-0.234283447265625,0.0471343994140625
1761315097283974700,5.448974609375,-0.943817138671875,-0.2344970703125,0.0454254150390625
1761315097294023000,5.45902294921875,-0.945343017578125,-0.2352142333984375,0.0461273193359375
1761315097304069600,5.469069580078125,-0.9483642578125,-0.2363433837890625,0.0442047119140625
1761315097314117600,5.47911767578125,-0.9435577392578125,-0.2360992431640625,0.0420074462890625
1761315097324164600,5.48916455078125,-0.948974609375,-0.2379608154296875,0.0414276123046875
1761315097334214700,5.499214599609375,-0.954681396484375,-0.2418670654296875,0.0420074462890625
1761315097344261600,5.50926171875,-0.951507568359375,-0.2441864013671875,0.0405426025390625
1761315097354310000,5.519309814453125,-0.9504852294921875,-0.2436676025390625,0.0390625
1761315097364357600,5.529357666015625,-0.9529876708984375,-0.2443695068359375,0.0417633056640625
1761315097374404600,5.539404541015625,-0.9591217041015625,-0.245361328125,0.0439605712890625
1761315097384452900,5.549452880859375,-0.9583892822265625,-0.243499755859375,0.04278564453125
1761315097394499800,5.559499755859375,-0.9570159912109375,-0.24005126953125,0.04302978515625
1761315097404547600,5.569547607421875,-0.961761474609375,-0.2367401123046875,0.04473876953125
1761315097414595600,5.579595703125,-0.96600341796875,-0.2339630126953125,0.04669189453125
1761315097424642800,5.589642822265625,-0.963043212890625,-0.23284912109375,0.047821044921875
1761315097434690800,5.59969091796875,-0.957977294921875,-0.2315826416015625,0.0478668212890625
1761315097444737800,5.60973779296875,-0.957183837890625,-0.23187255859375,0.04827880859375
1761315097454785800,5.619785888671875,-0.9584503173828125,-0.2336883544921875,0.0498199462890625
1761315097464832800,5.629832763671875,-0.9642486572265625,-0.2369537353515625,0.05242919921875
1761315097474880800,5.639880859375,-0.964569091796875,-0.2367706298828125,0.0538330078125
1761315097484928500,5.649928466796875,-0.9615631103515625,-0.2332305908203125,0.0513153076171875
1761315097494975700,5.659975830078125,-0.959228515625,-0.2314300537109375,0.0494384765625
1761315097505023700,5.670023681640625,-0.956878662109375,-0.23193359375,0.047576904296875
1761315097515070700,5.68007080078125,-0.9549102783203125,-0.2317962646484375,0.048187255859375
1761315097525118700,5.69011865234375,-0.9559173583984375,-0.230712890625,0.048095703125
1761315097535166700,5.700166748046875,-0.959228515625,-0.23260498046875,0.04693603515625
1761315097545213700,5.710213623046875,-0.958160400390625,-0.2369232177734375,0.044036865234375
1761315097555261700,5.72026171875,-0.954803466796875,-0.2378997802734375,0.0417633056640625
1761315097565309000,5.730308837890625,-0.9569091796875,-0.239654541015625,0.03961181640625
1761315097575356700,5.740356689453125,-0.9546661376953125,-0.2427978515625,0.0396575927734375
1761315097585404700,5.75040478515625,-0.951995849609375,-0.246673583984375,0.039825439453125
1761315097595451600,5.76045166015625,-0.94866943359375,-0.2474517822265625,0.0382232666015625
1761315097605499600,5.770499755859375,-0.9488983154296875,-0.2484130859375,0.040771484375
1761315097615546600,5.780546630859375,-0.949615478515625,-0.248016357421875,0.04327392578125
1761315097625594600,5.7905947265625,-0.95013427734375,-0.24432373046875,0.0460662841796875
1761315097635641900,5.800641845703125,-0.9524383544921875,-0.2393646240234375,0.0448760986328125
1761315097645689600,5.810689697265625,-0.953094482421875,-0.2333831787109375,0.041748046875
1761315097655737600,5.820737548828125,-0.9513702392578125,-0.2305145263671875,0.041748046875
1761315097665784600,5.83078466796875,-0.957611083984375,-0.2299346923828125,0.0465850830078125
1761315097675832800,5.840832763671875,-0.9638214111328125,-0.23211669921875,0.0518341064453125
1761315097685879800,5.8508798828125,-0.9624176025390625,-0.231231689453125,0.0527496337890625
1761315097695927600,5.860927490234375,-0.9589385986328125,-0.23101806640625,0.0497283935546875
1761315097705975800,5.870975830078125,-0.960784912109375,-0.229248046875,0.0512542724609375
1761315097716022800,5.881022705078125,-0.9603271484375,-0.2310791015625,0.0513916015625
1761315097726070500,5.891070556640625,-0.95770263671875,-0.2343292236328125,0.049713134765625
1761315097736117500,5.901117431640625,-0.9577789306640625,-0.2354583740234375,0.048736572265625
1761315097746165800,5.911165771484375,-0.9560546875,-0.2373504638671875,0.048583984375
1761315097756212700,5.921212646484375,-0.95257568359375,-0.2388153076171875,0.046661376953125
1761315097766260700,5.9312607421875,-0.958648681640625,-0.238739013671875,0.045562744140625
1761315097776308700,5.941308837890625,-0.9608917236328125,-0.23883056640625,0.0452423095703125
1761315097786355700,5.951355712890625,-0.9583892822265625,-0.237823486328125,0.0426025390625
1761315097796403700,5.96140380859375,-0.9570465087890625,-0.235260009765625,0.040740966796875
1761315097806450700,5.97145068359375,-0.959991455078125,-0.237091064453125,0.042022705078125
1761315097816498700,5.981498779296875,-0.95892333984375,-0.2371673583984375,0.0432281494140625
1761315097826546700,5.991546630859375,-0.9568634033203125,-0.236846923828125,0.0430755615234375
1761315097836593700,6.00159375,-0.9576263427734375,-0.2357177734375,0.045013427734375
1761315097846641700,6.0116416015625,-0.959716796875,-0.2332000732421875,0.0488128662109375
1761315097856688600,6.021688720703125,-0.964111328125,-0.23193359375,0.0521697998046875
1761315097866736600,6.031736572265625,-0.9608154296875,-0.229827880859375,0.0502166748046875
1761315097876783600,6.04178369140625,-0.9595489501953125,-0.2267303466796875,0.0508270263671875
1761315097886831900,6.051831787109375,-0.9622955322265625,-0.2266693115234375,0.05169677734375
1761315097896879600,6.061879638671875,-0.962890625,-0.2278900146484375,0.050994873046875
1761315097906926600,6.071926513671875,-0.9604644775390625,-0.2285003662109375,0.0492401123046875
1761315097916974800,6.081974853515625,-0.9620513916015625,-0.2285919189453125,0.0491180419921875
1761315097927021800,6.092021728515625,-0.96453857421875,-0.2315216064453125,0.05023193359375
1761315097937069600,6.102069580078125,-0.9599609375,-0.2332916259765625,0.04486083984375
1761315097947117800,6.112117919921875,-0.956390380859375,-0.2330169677734375,0.0447540283203125
1761315097957164800,6.122164794921875,-0.958404541015625,-0.233673095703125,0.0436859130859375
1761315097967212800,6.132212890625,-0.9559326171875,-0.234893798828125,0.0413055419921875
1761315097977259500,6.142259521484375,-0.95050048828125,-0.237274169921875,0.0406494140625
1761315097987307800,6.152307861328125,-0.949188232421875,-0.238250732421875,0.03955078125
1761315097997354800,6.162354736328125,-0.9490203857421875,-0.239959716796875,0.0367584228515625
1761315098007402800,6.17240283203125,-0.949554443359375,-0.2397918701171875,0.0365142822265625
1761315098017450800,6.18245068359375,-0.9513702392578125,-0.2393951416015625,0.0394744873046875
1761315098027497700,6.192497802734375,-0.951416015625,-0.23773193359375,0.0395965576171875
1761315098037545700,6.202545654296875,-0.95245361328125,-0.2359619140625,0.0394287109375
1761315098047592700,6.2125927734375,-0.9537200927734375,-0.2349700927734375,0.041412353515625
1761315098057640700,6.222640625,-0.95843505859375,-0.2315216064453125,0.043182373046875
1761315098067688700,6.232688720703125,-0.9620208740234375,-0.2280120849609375,0.0446624755859375
1761315098077735700,6.242735595703125,-0.9658203125,-0.226043701171875,0.04681396484375
1761315098087784000,6.252783935546875,-0.96563720703125,-0.2250213623046875,0.046661376953125
1761315098097830700,6.26283056640625,-0.965667724609375,-0.2258758544921875,0.045379638671875
1761315098107878700,6.272878662109375,-0.9660797119140625,-0.230072021484375,0.0444488525390625
1761315098117925600,6.282925537109375,-0.9640655517578125,-0.2329864501953125,0.0455169677734375
1761315098127974000,6.292973876953125,-0.9606170654296875,-0.2335052490234375,0.0454864501953125
1761315098138021600,6.303021728515625,-0.9581146240234375,-0.2361602783203125,0.0471954345703125
1761315098148068600,6.313068603515625,-0.957611083984375,-0.2386474609375,0.04705810546875
1761315098158116900,6.323116943359375,-0.954559326171875,-0.2382965087890625,0.0460357666015625
1761315098168163800,6.333163818359375,-0.95245361328125,-0.236724853515625,0.04388427734375
1761315098178211600,6.343211669921875,-0.9518890380859375,-0.236907958984375,0.042938232421875
1761315098188258800,6.3532587890625,-0.9515838623046875,-0.2368621826171875,0.0429229736328125
1761315098198306800,6.363306884765625,-0.9515838623046875,-0.2364959716796875,0.0421905517578125
1761315098208355000,6.37335498046875,-0.9521331787109375,-0.2354736328125,0.0435791015625
1761315098218401800,6.38340185546875,-0.9599761962890625,-0.233917236328125,0.0452880859375
1761315098228449800,6.39344970703125,-0.9590606689453125,-0.231903076171875,0.0448760986328125
1761315098238496800,6.403496826171875,-0.9606781005859375,-0.2306671142578125,0.0444793701171875
1761315098248545000,6.413544921875,-0.961639404296875,-0.228179931640625,0.0463409423828125
1761315098258592800,6.4235927734375,-0.96136474609375,-0.2289276123046875,0.046142578125
1761315098268639700,6.4336396484375,-0.95660400390625,-0.2313995361328125,0.0475921630859375
1761315098278688000,6.44368798828125,-0.9552459716796875,-0.233062744140625,0.049407958984375
1761315098288735000,6.45373486328125,-0.961334228515625,-0.2336273193359375,0.0511932373046875
1761315098298782700,6.46378271484375,-0.9625396728515625,-0.2332305908203125,0.049224853515625
1761315098308829700,6.47382958984375,-0.9589996337890625,-0.2306976318359375,0.04449462890625
1761315098318878000,6.4838779296875,-0.9583282470703125,-0.23004150390625,0.0408477783203125
1761315098328926000,6.493926025390625,-0.9614105224609375,-0.2318878173828125,0.0413818359375
1761315098338973000,6.503972900390625,-0.96014404296875,-0.2340240478515625,0.0427703857421875
1761315098349020700,6.514020751953125,-0.9573822021484375,-0.2352294921875,0.0436553955078125
1761315098359068000,6.52406787109375,-0.9601898193359375,-0.2353668212890625,0.0455322265625
1761315098369116000,6.534115966796875,-0.9561309814453125,-0.2346649169921875,0.043670654296875
1761315098379163600,6.54416357421875,-0.9547271728515625,-0.2328643798828125,0.0413360595703125
1761315098389211000,6.5542109375,-0.9547271728515625,-0.2321624755859375,0.0439910888671875
1761315098399259000,6.5642587890625,-0.9539947509765625,-0.2328948974609375,0.045166015625
1761315098409305900,6.574305908203125,-0.9515838623046875,-0.232940673828125,0.046173095703125
1761315098419353600,6.584353515625,-0.9517669677734375,-0.2318267822265625,0.04608154296875
1761315098429400800,6.59440087890625,-0.9548187255859375,-0.23126220703125,0.0459747314453125
1761315098439448800,6.60444873046875,-0.9581756591796875,-0.23089599609375,0.043914794921875
1761315098449496800,6.614496826171875,-0.955718994140625,-0.229827880859375,0.0430755615234375
1761315098459544000,6.6245439453125,-0.9584197998046875,-0.2302703857421875,0.04669189453125
1761315098469591800,6.634591796875,-0.9593353271484375,-0.23223876953125,0.04864501953125
1761315098479638800,6.644638671875,-0.95654296875,-0.2324981689453125,0.044219970703125
1761315098489686800,6.654686767578125,-0.9538421630859375,-0.2328033447265625,0.0408477783203125
1761315098499734000,6.664734130859375,-0.9550323486328125,-0.2319183349609375,0.0391693115234375
1761315098509781800,6.67478173828125,-0.9579315185546875,-0.2326507568359375,0.0377044677734375
1761315098519829800,6.684829833984375,-0.959716796875,-0.2328948974609375,0.0376739501953125
1761315098529877000,6.694876953125,-0.96453857421875,-0.2360992431640625,0.03765869140625
1761315098539924700,6.7049248046875,-0.9669647216796875,-0.2353668212890625,0.0372314453125
1761315098549971700,6.7149716796875,-0.961029052734375,-0.2335205078125,0.035888671875
1761315098560019700,6.725019775390625,-0.9603424072265625,-0.2350921630859375,0.038787841796875
1761315098570067000,6.73506689453125,-0.9616851806640625,-0.237091064453125,0.04290771484375
1761315098580115000,6.745114990234375,-0.9613037109375,-0.23870849609375,0.0470123291015625
1761315098590162700,6.75516259765625,-0.9557647705078125,-0.2374267578125,0.0465850830078125
1761315098600210000,6.7652099609375,-0.955810546875,-0.234527587890625,0.04510498046875
1761315098610258000,6.7752578125,-0.9583892822265625,-0.2312469482421875,0.0439605712890625
1761315098620305000,6.785304931640625,-0.9578399658203125,-0.2278900146484375,0.041229248046875
1761315098630352600,6.7953525390625,-0.956451416015625,-0.226104736328125,0.0381622314453125
1761315098640400000,6.80539990234375,-0.9571380615234375,-0.2277374267578125,0.0384521484375
1761315098650448000,6.81544775390625,-0.955902099609375,-0.2315521240234375,0.0374908447265625
1761315098660496000,6.825495849609375,-0.9526519775390625,-0.2360382080078125,0.0378570556640625
1761315098670542800,6.83554296875,-0.9508819580078125,-0.23828125,0.038604736328125
1761315098680590800,6.8455908203125,-0.9498138427734375,-0.2403106689453125,0.037750244140625
1761315098690637800,6.855637939453125,-0.9473419189453125,-0.24029541015625,0.035247802734375
1761315098700685800,6.865685791015625,-0.947601318359375,-0.23870849609375,0.0335693359375
1761315098710733800,6.87573388671875,-0.9511871337890625,-0.2382659912109375,0.0322418212890625
1761315098720780800,6.88578076171875,-0.9530487060546875,-0.2371978759765625,0.0312652587890625
1761315098730828800,6.895828857421875,-0.955322265625,-0.2349700927734375,0.0326080322265625
1761315098740875800,6.905875732421875,-0.95733642578125,-0.23345947265625,0.035125732421875
1761315098750923800,6.915923828125,-0.9563751220703125,-0.2330780029296875,0.035308837890625
1761315098760970800,6.925970703125,-0.957183837890625,-0.2323150634765625,0.036529541015625
1761315098771018800,6.936018798828125,-0.9597930908203125,-0.233123779296875,0.0382843017578125
1761315098781067000,6.94606689453125,-0.96209716796875,-0.2329254150390625,0.0400238037109375
1761315098791113700,6.95611376953125,-0.96661376953125,-0.232879638671875,0.0416259765625
1761315098801161700,6.96616162109375,-0.968170166015625,-0.23199462890625,0.04266357421875
1761315098811208700,6.976208740234375,-0.969207763671875,-0.22998046875,0.0414886474609375
1761315098821257000,6.986257080078125,-0.9671783447265625,-0.2296600341796875,0.0425567626953125
1761315098831304000,6.996303955078125,-0.9672393798828125,-0.2302703857421875,0.0453033447265625
1761315098841351700,7.0063515625,-0.9666595458984375,-0.2328338623046875,0.04620361328125
1761315098851400000,7.01639990234375,-0.9644317626953125,-0.2342987060546875,0.0454864501953125
1761315098861447000,7.026447021484375,-0.9621124267578125,-0.2344207763671875,0.0452117919921875
1761315098871494700,7.03649462890625,-0.96014404296875,-0.2328338623046875,0.0443572998046875
1761315098881541600,7.046541748046875,-0.96002197265625,-0.23284912109375,0.0426177978515625
1761315098891590000,7.05658984375,-0.956207275390625,-0.2342376708984375,0.0416107177734375
1761315098901636900,7.066636962890625,-0.9559478759765625,-0.2340087890625,0.04229736328125
1761315098911684900,7.076684814453125,-0.956085205078125,-0.2340545654296875,0.042083740234375
1761315098921732900,7.08673291015625,-0.956268310546875,-0.23370361328125,0.0415802001953125
1761315098931779800,7.09677978515625,-0.9575347900390625,-0.233154296875,0.040802001953125
1761315098941827800,7.106827880859375,-0.9574737548828125,-0.23394775390625,0.04095458984375
1761315098951874800,7.116874755859375,-0.956512451171875,-0.2330169677734375,0.040069580078125
1761315098961922800,7.1269228515625,-0.95367431640625,-0.23199462890625,0.0368194580078125
1761315098971969800,7.1369697265625,-0.953765869140625,-0.23077392578125,0.0375518798828125
1761315098982017800,7.147017822265625,-0.9562225341796875,-0.2322235107421875,0.0380706787109375
1761315098992065800,7.157065673828125,-0.9547882080078125,-0.2333831787109375,0.03802490234375
1761315099002112800,7.16711279296875,-0.952606201171875,-0.232696533203125,0.035980224609375
1761315099012160800,7.177160888671875,-0.9515228271484375,-0.2314605712890625,0.032989501953125
1761315099022207700,7.187207763671875,-0.953216552734375,-0.2328338623046875,0.0342864990234375
1761315099032256000,7.197256103515625,-0.9536285400390625,-0.234161376953125,0.0363006591796875
1761315099042302700,7.207302734375,-0.951812744140625,-0.234130859375,0.0351409912109375
1761315099052350700,7.217350830078125,-0.9555511474609375,-0.233734130859375,0.0354156494140625
1761315099062399000,7.22739892578125,-0.957733154296875,-0.232666015625,0.0369110107421875
1761315099072446000,7.237446044921875,-0.9645843505859375,-0.2317352294921875,0.036102294921875
1761315099082493700,7.24749365234375,-0.9645538330078125,-0.2305450439453125,0.0362701416015625
1761315099092540700,7.257540771484375,-0.963165283203125,-0.2290191650390625,0.03729248046875
1761315099102589000,7.2675888671875,-0.96453857421875,-0.2301177978515625,0.0412139892578125
1761315099112636000,7.277635986328125,-0.962554931640625,-0.2334442138671875,0.043121337890625
1761315099122683600,7.28768359375,-0.9620208740234375,-0.2353668212890625,0.0450439453125
1761315099132732000,7.29773193359375,-0.96368408203125,-0.2350006103515625,0.0457000732421875
1761315099142779000,7.30777880859375,-0.963287353515625,-0.2332763671875,0.0475616455078125
1761315099152827000,7.317826904296875,-0.9617462158203125,-0.229949951171875,0.0477447509765625
1761315099162873900,7.327873779296875,-0.9605560302734375,-0.2266845703125,0.0448455810546875
1761315099172921900,7.337921875,-0.96026611328125,-0.2265167236328125,0.043548583984375
1761315099182967800,7.3479677734375,-0.9593658447265625,-0.2268829345703125,0.0434417724609375
1761315099193016000,7.35801611328125,-0.9598388671875,-0.23065185546875,0.041595458984375
1761315099203064000,7.36806396484375,-0.9567108154296875,-0.2354278564453125,0.037933349609375
1761315099213111000,7.378111083984375,-0.955596923828125,-0.2373809814453125,0.035125732421875
1761315099223159000,7.388158935546875,-0.9556884765625,-0.2380828857421875,0.03228759765625
1761315099233206000,7.3982060546875,-0.95361328125,-0.23828125,0.0294647216796875
1761315099243254000,7.40825390625,-0.95159912109375,-0.239288330078125,0.0267333984375
1761315099253301000,7.418301025390625,-0.949371337890625,-0.23870849609375,0.0267791748046875
1761315099263349000,7.428348876953125,-0.950164794921875,-0.2375335693359375,0.0293731689453125
1761315099273397000,7.43839697265625,-0.956634521484375,-0.2373504638671875,0.032470703125
1761315099283444000,7.44844384765625,-0.96063232421875,-0.2367706298828125,0.034332275390625
1761315099293492000,7.458491943359375,-0.9626007080078125,-0.2316741943359375,0.0328521728515625
1761315099303539000,7.4685390625,-0.9650726318359375,-0.227081298828125,0.0333404541015625
1761315099313587000,7.4785869140625,-0.967041015625,-0.223876953125,0.0344085693359375
1761315099323634000,7.488634033203125,-0.9693756103515625,-0.223297119140625,0.03826904296875
1761315099333682200,7.49868212890625,-0.967254638671875,-0.225799560546875,0.037567138671875
1761315099343730000,7.50872998046875,-0.96051025390625,-0.2288970947265625,0.038848876953125
1761315099353777000,7.51877685546875,-0.9528961181640625,-0.2288360595703125,0.0428619384765625
1761315099363825000,7.528824951171875,-0.956024169921875,-0.23004150390625,0.0496673583984375
1761315099373872000,7.5388720703125,-0.957427978515625,-0.2352294921875,0.0492706298828125
1761315099383919900,7.548919921875,-0.9514007568359375,-0.2373199462890625,0.048553466796875
1761315099393966800,7.558966796875,-0.9574737548828125,-0.236114501953125,0.04962158203125
1761315099404015000,7.56901513671875,-0.9586334228515625,-0.2359619140625,0.0486907958984375
1761315099414062000,7.57906201171875,-0.95550537109375,-0.23809814453125,0.0467529296875
1761315099424109800,7.58910986328125,-0.956695556640625,-0.2398681640625,0.04742431640625
1761315099434157800,7.59915771484375,-0.9566650390625,-0.239776611328125,0.046722412109375
1761315099444205000,7.609205078125,-0.9612274169921875,-0.2403717041015625,0.045318603515625
1761315099454253000,7.619253173828125,-0.9600982666015625,-0.239105224609375,0.0436859130859375
1761315099464300000,7.629300048828125,-0.959228515625,-0.2349395751953125,0.041900634765625
1761315099474348000,7.63934814453125,-0.9591064453125,-0.2321624755859375,0.0421142578125
1761315099484395000,7.64939501953125,-0.960296630859375,-0.23193359375,0.042755126953125
1761315099494443000,7.659443115234375,-0.9586944580078125,-0.2325439453125,0.0416107177734375
1761315099504490800,7.66949072265625,-0.957244873046875,-0.23187255859375,0.0408172607421875
1761315099514538000,7.6795380859375,-0.9565582275390625,-0.2298583984375,0.0397796630859375
1761315099524586000,7.6895859375,-0.9554443359375,-0.22882080078125,0.037139892578125
1761315099534633000,7.699633056640625,-0.9521636962890625,-0.22979736328125,0.03265380859375
1761315099544681000,7.709680908203125,-0.953033447265625,-0.2289886474609375,0.0310516357421875
1761315099554728000,7.71972802734375,-0.953765869140625,-0.2310638427734375,0.0308685302734375
1761315099564776000,7.72977587890625,-0.95477294921875,-0.23406982421875,0.029449462890625
1761315099574824000,7.739823974609375,-0.954193115234375,-0.23602294921875,0.02789306640625
1761315099584871200,7.74987109375,-0.95513916015625,-0.234954833984375,0.02764892578125
1761315099594919000,7.7599189453125,-0.9537811279296875,-0.2343292236328125,0.02777099609375
1761315099604966000,7.7699658203125,-0.9546966552734375,-0.2339324951171875,0.0272369384765625
1761315099615014100,7.78001416015625,-0.9521331787109375,-0.2338714599609375,0.024932861328125
1761315099625061000,7.79006103515625,-0.9516143798828125,-0.2342987060546875,0.0274505615234375
1761315099635108900,7.80010888671875,-0.9556732177734375,-0.2349090576171875,0.032958984375
1761315099645156900,7.810156982421875,-0.9569549560546875,-0.2350616455078125,0.0359649658203125
1761315099655204000,7.8202041015625,-0.9556427001953125,-0.2353668212890625,0.0377655029296875
1761315099665252000,7.830252197265625,-0.95489501953125,-0.235382080078125,0.0382537841796875
1761315099675298800,7.840298828125,-0.9519195556640625,-0.2350006103515625,0.0402679443359375
1761315099685347000,7.85034716796875,-0.95294189453125,-0.235748291015625,0.04296875
1761315099695394000,7.86039404296875,-0.9539031982421875,-0.2368316650390625,0.042724609375
1761315099705442000,7.870442138671875,-0.9542236328125,-0.236419677734375,0.0417633056640625
1761315099715489000,7.880489013671875,-0.9542999267578125,-0.2364501953125,0.04083251953125
1761315099725537000,7.890537109375,-0.9565887451171875,-0.2344512939453125,0.0393829345703125
1761315099735585000,7.9005849609375,-0.95904541015625,-0.2313385009765625,0.0397796630859375
1761315099745632000,7.910632080078125,-0.96197509765625,-0.229278564453125,0.042266845703125
1761315099755679700,7.9206796875,-0.9713287353515625,-0.2281951904296875,0.04052734375
1761315099765727000,7.93072705078125,-0.963165283203125,-0.225189208984375,0.0348052978515625
1761315099775775000,7.94077490234375,-0.960601806640625,-0.2212371826171875,0.0300445556640625
1761315099785822000,7.950822021484375,-0.965576171875,-0.2246246337890625,0.031219482421875
1761315099795870000,7.960869873046875,-0.9640655517578125,-0.23114013671875,0.0324554443359375
1761315099805918000,7.97091796875,-0.960723876953125,-0.2364959716796875,0.0332183837890625
1761315099815965000,7.98096484375,-0.957733154296875,-0.24102783203125,0.0330810546875
1761315099826013000,7.991012939453125,-0.9547576904296875,-0.242828369140625,0.0303497314453125
1761315099836060200,8.00106005859375,-0.9548797607421875,-0.236328125,0.0274658203125
1761315099846108000,8.01110791015625,-0.95843505859375,-0.2330780029296875,0.0303497314453125
1761315099856155000,8.02115478515625,-0.9598236083984375,-0.2360382080078125,0.02880859375
1761315099866203100,8.031203125,-0.95660400390625,-0.229217529296875,0.030548095703125
1761315099876250000,8.04125,-0.955902099609375,-0.2223663330078125,0.038726806640625
1761315099886297900,8.0512978515625,-0.95013427734375,-0.2220458984375,0.047149658203125
1761315099896345900,8.061345947265625,-0.9485626220703125,-0.2219696044921875,0.0531158447265625
1761315099906393000,8.07139306640625,-0.9528961181640625,-0.223175048828125,0.05670166015625
1761315099916441000,8.081441162109375,-0.9524688720703125,-0.2209625244140625,0.056396484375
1761315099926487800,8.09148779296875,-0.954986572265625,-0.2180633544921875,0.056304931640625
1761315099936536000,8.1015361328125,-0.9588165283203125,-0.216705322265625,0.0536651611328125
1761315099946583000,8.1115830078125,-0.9599609375,-0.21746826171875,0.05047607421875
1761315099956631000,8.121631103515625,-0.9629058837890625,-0.2203826904296875,0.0476837158203125
1761315099966678800,8.1316787109375,-0.96234130859375,-0.2246246337890625,0.043304443359375
1761315099976726000,8.14172607421875,-0.96234130859375,-0.2298431396484375,0.0411529541015625
1761315099986774000,8.15177392578125,-0.9658203125,-0.2317352294921875,0.0399932861328125
1761315099996821000,8.161821044921876,-0.96673583984375,-0.232696533203125,0.038970947265625
1761315100006869000,8.171868896484375,-0.962310791015625,-0.233917236328125,0.034698486328125
1761315100016916000,8.181916015625,-0.9626617431640625,-0.230499267578125,0.0386199951171875
1761315100026964000,8.1919638671875,-0.961517333984375,-0.22845458984375,0.03216552734375
1761315100037011000,8.202010986328125,-0.9563751220703125,-0.2306365966796875,0.0267333984375
1761315100047059000,8.212058837890625,-0.953582763671875,-0.2248382568359375,0.03167724609375
1761315100057107000,8.22210693359375,-0.9644622802734375,-0.218505859375,0.045989990234375
1761315100067154000,8.23215380859375,-0.968231201171875,-0.2180938720703125,0.0552520751953125
1761315100077202000,8.242201904296875,-0.959930419921875,-0.2143096923828125,0.0583343505859375
1761315100087249200,8.252249267578126,-0.9569549560546875,-0.209381103515625,0.0577850341796875
1761315100097297000,8.262296875,-0.9582366943359375,-0.2069091796875,0.05670166015625
1761315100107344000,8.27234375,-0.9740447998046875,-0.2132568359375,0.0637359619140625
1761315100117392100,8.28239208984375,-0.9806365966796875,-0.21612548828125,0.0703887939453125
1761315100127439000,8.292439208984375,-0.9716796875,-0.21588134765625,0.070343017578125
1761315100137486800,8.30248681640625,-0.96685791015625,-0.2153472900390625,0.065582275390625
1761315100147534800,8.312534912109374,-0.9663543701171875,-0.21734619140625,0.06268310546875
1761315100157582000,8.32258203125,-0.9630584716796875,-0.2201080322265625,0.0601806640625
1761315100167630000,8.332630126953125,-0.9624176025390625,-0.225677490234375,0.055999755859375
1761315100177676800,8.3426767578125,-0.961151123046875,-0.2299346923828125,0.0555419921875
1761315100187725300,8.352725341796875,-0.9547576904296875,-0.231536865234375,0.053558349609375
1761315100197772300,8.362772216796875,-0.9489898681640625,-0.2298431396484375,0.052703857421875
1761315100207820300,8.3728203125,-0.9453887939453125,-0.2313690185546875,0.0503082275390625
1761315100217867300,8.3828671875,-0.9465484619140625,-0.2314300537109375,0.0499420166015625
1761315100227915300,8.392915283203125,-0.949371337890625,-0.229522705078125,0.0497589111328125
1761315100237963300,8.40296337890625,-0.948455810546875,-0.2258453369140625,0.045806884765625
1761315100248010200,8.41301025390625,-0.94647216796875,-0.2214813232421875,0.042327880859375
1761315100258058200,8.423058349609375,-0.9521942138671875,-0.220367431640625,0.045440673828125
1761315100268105200,8.433105224609376,-0.959869384765625,-0.2197265625,0.04620361328125
1761315100278153200,8.4431533203125,-0.9578094482421875,-0.2186431884765625,0.0445556640625
1761315100288200200,8.4532001953125,-0.958465576171875,-0.2170562744140625,0.041290283203125
1761315100298248200,8.463248291015624,-0.960784912109375,-0.216156005859375,0.0426483154296875
1761315100308295200,8.473295166015625,-0.95758056640625,-0.2159271240234375,0.0445404052734375
1761315100318343200,8.48334326171875,-0.9582366943359375,-0.215789794921875,0.04736328125
1761315100328391400,8.493391357421874,-0.95672607421875,-0.2175750732421875,0.0485076904296875
1761315100338438400,8.5034384765625,-0.9542083740234375,-0.2205047607421875,0.049072265625
1761315100348486100,8.513486083984375,-0.95733642578125,-0.2220611572265625,0.0493927001953125
1761315100358533000,8.523533203125,-0.9652252197265625,-0.2249908447265625,0.047607421875
1761315100368581400,8.533581298828125,-0.961578369140625,-0.2240142822265625,0.0452880859375
1761315100378628400,8.54362841796875,-0.9566802978515625,-0.22039794921875,0.0454864501953125
1761315100388676000,8.553676025390626,-0.9605865478515625,-0.2221832275390625,0.0471343994140625
1761315100398723000,8.56372314453125,-0.961151123046875,-0.225341796875,0.049224853515625
1761315100408771300,8.573771240234375,-0.9571075439453125,-0.2247772216796875,0.0513458251953125
1761315100418819000,8.583819091796874,-0.9572296142578125,-0.2201080322265625,0.0546417236328125
1761315100428866000,8.593865966796875,-0.9592742919921875,-0.219207763671875,0.052642822265625
1761315100438914300,8.603914306640625,-0.964263916015625,-0.2139892578125,0.05084228515625
1761315100448961300,8.613961181640626,-0.968017578125,-0.2049102783203125,0.0538787841796875
1761315100459009300,8.62400927734375,-0.967987060546875,-0.200469970703125,0.0560455322265625
1761315100469056300,8.63405615234375,-0.9736328125,-0.2076263427734375,0.0620574951171875
1761315100479104300,8.644104248046874,-0.965606689453125,-0.2180633544921875,0.063507080078125
1761315100489151200,8.654151123046875,-0.969696044921875,-0.2252349853515625,0.0688629150390625
1761315100499199200,8.66419921875,-0.976531982421875,-0.2303009033203125,0.0725860595703125
1761315100509247200,8.674247314453124,-0.970245361328125,-0.23028564453125,0.0606689453125
1761315100519294200,8.684294189453125,-0.9576873779296875,-0.223663330078125,0.0423736572265625
1761315100529342200,8.69434228515625,-0.9562225341796875,-0.2176971435546875,0.0317230224609375
1761315100539389200,8.70438916015625,-0.9598236083984375,-0.2221527099609375,0.03143310546875
1761315100549437200,8.714437255859375,-0.9575042724609375,-0.2260894775390625,0.033599853515625
1761315100559484200,8.724484130859375,-0.954559326171875,-0.2208099365234375,0.0385589599609375
