time,seconds_elapsed,z,y,x
1761315091898462200,0.063462158203125,-0.003561711637303233,-0.00980362854897976,0.053408894687891006
1761315091908509200,0.07350927734375,-0.0024655545130372047,-0.03212198242545128,0.04533366113901138
1761315091918557400,0.083557373046875,-0.005918342620134354,-0.029395438730716705,0.04680345952510834
1761315091928605400,0.09360546875,-0.016449280083179474,-0.0027353328187018633,0.04562341049313545
1761315091938652200,0.103652099609375,-0.017298296093940735,0.011402856558561325,0.03407035395503044
1761315091948700400,0.113700439453125,-0.01865118183195591,0.010386594571173191,0.01098607201129198
1761315091958748400,0.12374853515625,-0.016938770189881325,-0.009374060668051243,-0.00933011807501316
1761315091968795400,0.13379541015625,-0.012080098502337933,-0.034812044352293015,-0.026573020964860916
1761315091978843400,0.143843505859375,-0.016527311876416206,-0.057082194834947586,-0.029458822682499886
1761315091988890400,0.153890380859375,-0.035902075469493866,-0.047561127692461014,-0.019626697525382042
1761315091998938400,0.1639384765625,-0.05206000432372093,-0.005113269202411175,-0.009350092150270939
1761315092008986000,0.173986083984375,-0.06271398067474365,0.045041244477033615,0.0006540723843500018
1761315092019033300,0.184033447265625,-0.06354701519012451,0.06376592814922333,0.009583118371665478
1761315092029081300,0.194081298828125,-0.058885954320430756,0.051000334322452545,0.014838600531220436
1761315092039128300,0.20412841796875,-0.04843198135495186,0.009459814056754112,0.023035811260342598
1761315092049176600,0.214176513671875,-0.029149895533919334,-0.02797863818705082,0.04490036144852638
1761315092059224300,0.224224365234375,-0.01751667633652687,-0.04856114462018013,0.06689780950546265
1761315092069271300,0.234271240234375,-0.025899507105350494,-0.04416612908244133,0.08664887398481369
1761315092079319300,0.2443193359375,-0.04002518206834793,-0.0023726101499050856,0.10074232518672943
1761315092089366500,0.254366455078125,-0.049918290227651596,0.04591529443860054,0.10261345654726028
1761315092099414300,0.264414306640625,-0.049315083771944046,0.07240016758441925,0.0918702706694603
1761315092109462300,0.274462158203125,-0.03985260799527168,0.0550675131380558,0.07837177067995071
1761315092119509200,0.28450927734375,-0.027048129588365555,0.01810523495078087,0.0701519250869751
1761315092129557200,0.29455712890625,-0.012622850947082043,-0.010782340541481972,0.06924565136432648
1761315092139604200,0.304604248046875,-0.0004290352517273277,-0.03304769843816757,0.06509298086166382
1761315092149652200,0.31465234375,0.006342051550745964,-0.05300915613770485,0.05769072845578194
1761315092159700500,0.324700439453125,0.01041402481496334,-0.05987425148487091,0.05042748898267746
1761315092169747500,0.33474755859375,0.014305702410638332,-0.049791257828474045,0.040829721838235855
1761315092179798300,0.34479833984375,0.013100888580083847,-0.030229274183511734,0.03209029138088226
1761315092189846500,0.354846435546875,0.0148623026907444,-0.026451313868165016,0.02461559697985649
1761315092199893500,0.3648935546875,0.016016516834497452,-0.031854867935180664,0.013005547225475311
1761315092209941500,0.37494140625,0.01404790859669447,-0.03068654052913189,0.005283445119857788
1761315092219988200,0.38498828125,0.014702512882649899,-0.025067802518606186,0.005694371182471514
1761315092230036500,0.395036376953125,0.010663030669093132,-0.021313278004527092,0.00628958735615015
1761315092240084500,0.40508447265625,0.006650712341070175,-0.007791077718138695,0.02014761231839657
1761315092250131500,0.41513134765625,0.005672533065080643,0.007895739749073982,0.03147456794977188
1761315092260179500,0.425179443359375,-0.0021845910232514143,0.016647685319185257,0.042569030076265335
1761315092270226400,0.435226318359375,-0.009289105422794819,0.010248908773064613,0.05646034702658653
1761315092280274400,0.4452744140625,-0.015747005119919777,-0.006864297669380903,0.0663132444024086
1761315092290322400,0.455322509765625,-0.02130209282040596,-0.01936624012887478,0.06591510027647018
1761315092300369400,0.465369384765625,-0.020685836672782898,-0.04426919296383858,0.06133073568344116
1761315092310417400,0.47541748046875,-0.01721201092004776,-0.06393370777368546,0.05185547471046448
1761315092320464400,0.48546435546875,-0.01643436774611473,-0.05355270579457283,0.041241712868213654
1761315092330512600,0.4955126953125,-0.011907259002327919,-0.014667891897261143,0.03723471984267235
1761315092340560400,0.505560302734375,-0.010872621089220047,0.035529233515262604,0.03989069163799286
1761315092350607400,0.515607421875,-0.016155267134308815,0.07083475589752197,0.050382744520902634
1761315092360655600,0.525655517578125,-0.029917685315012932,0.09432251006364822,0.06268681585788727
1761315092370702600,0.53570263671875,-0.04284653440117836,0.11357396841049194,0.07755391299724579
1761315092380750300,0.545750244140625,-0.05831470713019371,0.11619957536458969,0.0837622731924057
1761315092390798600,0.555798583984375,-0.06220505014061928,0.1014813482761383,0.0908990129828453
1761315092400845600,0.565845458984375,-0.04635711386799812,0.07793927192687988,0.09859208762645721
1761315092410893600,0.5758935546875,-0.012318984605371952,0.058270495384931564,0.10632190853357315
1761315092420941300,0.58594140625,0.034989941865205765,0.058095525950193405,0.11328501254320145
1761315092430988500,0.595988525390625,0.07467610388994217,0.06120103970170021,0.11817724257707596
1761315092441036500,0.60603662109375,0.1027306392788887,0.057363156229257584,0.11855301260948181
1761315092451083500,0.61608349609375,0.10668197274208069,0.04535869136452675,0.11697961390018463
1761315092461131500,0.626131591796875,0.09474515169858932,0.03373559191823006,0.11573512107133865
1761315092471179500,0.636179443359375,0.06807225942611694,0.03370070457458496,0.1172962635755539
1761315092481226500,0.6462265625,0.05101444944739342,0.03939960524439812,0.11396332085132599
1761315092491274200,0.656274169921875,0.043116044253110886,0.04605138301849365,0.10336766391992569
1761315092501321500,0.666321533203125,0.04504790157079697,0.04778909310698509,0.08433272689580917
1761315092511369500,0.676369384765625,0.03888801112771034,0.02713574655354023,0.0684397742152214
1761315092521417500,0.68641748046875,0.044853758066892624,0.009794839657843113,0.05113828554749489
1761315092531464700,0.696464599609375,0.056954894214868546,0.006000368390232325,0.03711621090769768
1761315092541512400,0.706512451171875,0.06893565505743027,0.0073255570605397224,0.03062289021909237
1761315092551559400,0.716559326171875,0.0728616863489151,0.00361763802357018,0.04020973667502403
1761315092561607400,0.726607421875,0.07855712622404099,0.0179371889680624,0.049492716789245605
1761315092571655400,0.736655517578125,0.06510390341281891,0.03978469595313072,0.07420019805431366
1761315092581702400,0.746702392578125,0.04590650647878647,0.08875463902950287,0.10222171247005463
1761315092591750400,0.75675048828125,0.029806364327669144,0.1406971961259842,0.12468760460615158
1761315092601797600,0.766797607421875,0.0162359606474638,0.16317187249660492,0.1364542543888092
1761315092611845400,0.776845458984375,0.01986238732933998,0.19588960707187653,0.14630341529846191
1761315092621893400,0.786893310546875,0.021142037585377693,0.13885828852653503,0.1449340134859085
1761315092631940400,0.7969404296875,0.028148813173174858,0.03855937719345093,0.13686969876289368
1761315092641988600,0.806988525390625,0.043659862130880356,-0.005452556069940329,0.12340662628412247
1761315092652035600,0.81703564453125,0.05067223310470581,-0.02346298098564148,0.10120517760515213
1761315092662083300,0.827083251953125,0.047630634158849716,-0.024142887443304062,0.06261677294969559
1761315092672131600,0.837131591796875,0.03026496060192585,-0.031151261180639267,0.018009893596172333
1761315092682178600,0.847178466796875,0.007564176339656115,-0.06055042892694473,-0.027404192835092545
1761315092692226300,0.857226318359375,-0.012883841060101986,-0.11040852963924408,-0.05959169194102287
1761315092702274600,0.867274658203125,-0.03219681978225708,-0.11121733486652374,-0.08493006974458694
1761315092712321500,0.877321533203125,-0.05114467814564705,-0.09991860389709473,-0.10108959674835205
1761315092722369500,0.88736962890625,-0.057260092347860336,-0.10075777024030685,-0.10692698508501053
1761315092732416500,0.89741650390625,-0.04820028692483902,-0.08862867206335068,-0.10297884792089462
1761315092742464500,0.907464599609375,-0.027469174936413765,-0.07515520602464676,-0.10747852176427841
1761315092752512500,0.917512451171875,-0.004747883416712284,-0.06995990872383118,-0.11706244200468063
1761315092762559500,0.9275595703125,0.017786720767617226,-0.06903259456157684,-0.13031139969825745
1761315092772607500,0.937607421875,0.027668379247188568,-0.08027832955121994,-0.13663534820079803
1761315092782654500,0.947654541015625,0.026925090700387955,-0.08949393033981323,-0.1277845948934555
1761315092792702500,0.957702392578125,0.016340358182787895,-0.06774948537349701,-0.11755406111478806
1761315092802750500,0.96775048828125,0.002529470482841134,-0.05302406847476959,-0.10761114954948425
1761315092812797400,0.97779736328125,-0.012899553403258324,-0.03483600914478302,-0.09367216378450394
1761315092822845400,0.987845458984375,-0.01864452473819256,-0.0011733887949958444,-0.08629494160413742
1761315092832892400,0.997892333984375,-0.025944780558347702,0.008016115054488182,-0.08868992328643799
1761315092842940700,1.007940673828125,-0.03202744200825691,-0.01531663816422224,-0.0741053894162178
1761315092852988400,1.017988525390625,-0.035587556660175323,-0.005893042776733637,-0.03394757956266403
1761315092863035400,1.028035400390625,-0.04450887814164162,0.028299547731876373,0.0022357236593961716
1761315092873083400,1.03808349609375,-0.04421060532331467,0.04746738448739052,0.020896758884191513
1761315092883130600,1.048130615234375,-0.04065501689910889,0.042869437485933304,0.02576421946287155
1761315092893178400,1.058178466796875,-0.027938423678278923,0.0008607336785644293,0.011916580609977245
1761315092903226400,1.068226318359375,-0.007216900121420622,-0.05416256934404373,-0.0025036376900970936
1761315092913273600,1.078273681640625,0.00703766942024231,-0.095572330057621,-0.010031328536570072
1761315092923321600,1.088321533203125,0.013198626227676868,-0.1034102812409401,-0.013518472202122211
1761315092933369300,1.098369384765625,0.012811935506761074,-0.09274112433195114,-0.01079911831766367
1761315092943416300,1.108416259765625,0.01577070727944374,-0.05218810215592384,0.0037521275226026773
1761315092953464600,1.118464599609375,0.02281077392399311,-0.006876814644783735,0.0041129859164357185
1761315092963511600,1.128511474609375,0.02178199402987957,0.018558504059910774,0.003251453395932913
1761315092973559300,1.138559326171875,0.025585521012544632,0.014639928936958313,0.0004958806093782187
1761315092983607600,1.148607666015625,0.027649205178022385,0.001014664419926703,-0.013197560794651508
1761315092993654500,1.158654541015625,0.03500565513968468,-0.0264182910323143,-0.02767450548708439
1761315093003702500,1.16870263671875,0.032522790133953094,-0.05384538695216179,-0.026932815089821815
1761315093013749200,1.178749267578125,0.022825421765446663,-0.046061769127845764,-0.02526967041194439
1761315093023797500,1.188797607421875,0.013733921572566032,-0.025955701246857643,-0.02527526207268238
1761315093033845500,1.198845458984375,0.0070251524448394775,-0.02702149748802185,-0.029293173924088478
1761315093043892500,1.208892578125,0.00583791546523571,-0.03551458567380905,-0.032467395067214966
1761315093053940500,1.2189404296875,0.00956660695374012,-0.04393576458096504,-0.0348874107003212
1761315093063987500,1.228987548828125,0.0033902039285749197,-0.026209233328700066,-0.028665998950600624
1761315093074035500,1.239035400390625,-0.0020732709672302008,0.0031843415927141905,-0.014870026148855686
1761315093084083500,1.24908349609375,-0.011306184343993664,0.002796851797029376,0.0006391586503013968
1761315093094130400,1.25913037109375,-0.009782856330275536,-0.004049602895975113,0.02093404345214367
1761315093104178400,1.269178466796875,-0.0038666436448693275,-0.005781989078968763,0.038420625030994415
1761315093114225400,1.279225341796875,0.0006716492353007197,-0.011798069812357426,0.04893398657441139
1761315093124273700,1.289273681640625,0.005518335849046707,-0.016435697674751282,0.059253204613924026
1761315093134321400,1.2993212890625,0.007429953198879957,-0.018558770418167114,0.05560440570116043
1761315093144368400,1.309368408203125,0.006654440425336361,-0.04128246009349823,0.04067126289010048
1761315093154416600,1.319416748046875,0.0028815402183681726,-0.06914045661687851,0.04235438257455826
1761315093164463600,1.329463623046875,0.00672155199572444,-0.04789535328745842,0.05601106956601143
1761315093174507800,1.3395078125,0.011483550071716309,-0.009831857867538929,0.06234326958656311
1761315093184556000,1.34955615234375,0.006114884279668331,0.002454369328916073,0.05242539197206497
1761315093194603000,1.35960302734375,0.0048738508485257626,-0.009138903580605984,0.034685276448726654
1761315093204650800,1.369650634765625,0.0041396175511181355,-0.01555499155074358,0.033251695334911346
1761315093214699000,1.379698974609375,0.00296303303912282,-0.012732040137052536,0.03248204290866852
1761315093224746000,1.38974609375,-0.0015720640076324344,-0.019219234585762024,0.02359507419168949
1761315093234794000,1.3997939453125,0.0018956380663439631,-0.02744520641863346,0.00817963294684887
1761315093244841000,1.409841064453125,0.00458702864125371,-0.03377074748277664,-0.012690494768321514
1761315093254889000,1.419888916015625,0.010289122350513935,-0.0385814793407917,-0.033073797821998596
1761315093264937000,1.42993701171875,0.014602644369006157,-0.05013001337647438,-0.043778106570243835
1761315093274984000,1.43998388671875,0.01684502698481083,-0.05002002418041229,-0.03329350799322128
1761315093285032000,1.450031982421875,0.013658554293215275,-0.03215261176228523,-0.014683605171740055
1761315093295079000,1.460078857421875,0.01038393098860979,-0.007193730678409338,0.003451456781476736
1761315093305127000,1.470126953125,0.008920790627598763,0.005261873826384544,0.011417504400014877
1761315093315175200,1.480175048828125,0.009168997406959534,0.006648847833275795,0.01467827893793583
1761315093325222000,1.490221923828125,0.012153602205216885,-0.010850517079234123,0.015198926441371441
1761315093335270000,1.500269775390625,0.012223376892507076,-0.02748834900557995,0.019884224981069565
1761315093345316900,1.51031689453125,0.018093517050147057,-0.03948269411921501,0.021887721493840218
1761315093355365000,1.520365234375,0.011965050362050533,-0.041729070246219635,0.027515247464179993
1761315093365412900,1.530412841796875,0.001603755634278059,-0.026320820674300194,0.033917754888534546
1761315093375459800,1.5404599609375,-0.01284602377563715,-0.007909055799245834,0.03452308848500252
1761315093385508000,1.550508056640625,-0.02238599956035614,0.0019382486352697015,0.027590082958340645
1761315093395555000,1.56055517578125,-0.030795462429523468,0.0002460760879330337,0.015140336938202381
1761315093405602800,1.570602783203125,-0.035048529505729675,-0.009267534129321575,0.0001531317684566602
1761315093415650800,1.58065087890625,-0.0396033339202404,-0.022913837805390358,-0.014374411664903164
1761315093425698000,1.590697998046875,-0.038186799734830856,-0.03593270108103752,-0.02466326765716076
1761315093435746000,1.60074609375,-0.03578756004571915,-0.04127393662929535,-0.028119519352912903
1761315093445793000,1.61079296875,-0.03449219837784767,-0.035406727343797684,-0.026522153988480568
1761315093455841000,1.620841064453125,-0.03712606430053711,-0.03254276141524315,-0.021702099591493607
1761315093465889000,1.630888916015625,-0.033312417566776276,-0.03099440038204193,-0.016320915892720222
1761315093475936000,1.64093603515625,-0.028619660064578056,-0.026035595685243607,-0.010546650737524033
1761315093485983700,1.650983642578125,-0.02491440437734127,-0.02678314410150051,-0.011664912104606628
1761315093496032000,1.661031982421875,-0.02335379272699356,-0.024533838033676147,-0.010931210592389107
1761315093506079000,1.671078857421875,-0.024595890194177628,-0.021935125812888145,-0.013688648119568825
1761315093516127000,1.681126953125,-0.028438832610845566,-0.015354455448687077,-0.013673733919858932
1761315093526174000,1.691174072265625,-0.03126950562000275,-0.03205567225813866,-0.020787836983799934
1761315093536222000,1.701221923828125,-0.03563416004180908,-0.04030987247824669,-0.01455763727426529
1761315093546270000,1.71127001953125,-0.039800144731998444,-0.03598995879292488,-0.005736448802053928
1761315093556317000,1.72131689453125,-0.03482562303543091,-0.03803766146302223,0.004006459377706051
1761315093566365000,1.731364990234375,-0.02786358818411827,-0.048894304782152176,0.015911322087049484
1761315093576412000,1.741411865234375,-0.029883330687880516,-0.05230341851711273,0.035640817135572433
1761315093586460000,1.7514599609375,-0.02791392244398594,-0.04289234057068825,0.057374075055122375
1761315093596508000,1.7615078125,-0.028248149901628494,-0.03720356151461601,0.07758160680532455
1761315093606555000,1.771554931640625,-0.027418574318289757,-0.03001835197210312,0.09051737934350967
1761315093616603000,1.781602783203125,-0.030644727870821953,-0.03134940192103386,0.08982842415571213
1761315093626649900,1.79164990234375,-0.02924976497888565,-0.027160514146089554,0.08972269296646118
1761315093636698000,1.801697998046875,-0.027169834822416306,-0.02129250578582287,0.0792628675699234
1761315093646745900,1.811745849609375,-0.022343387827277184,-0.030588269233703613,0.0637800469994545
1761315093656792800,1.821792724609375,-0.02520575374364853,-0.04216236621141434,0.05248291417956352
1761315093666841000,1.831841064453125,-0.03098667785525322,-0.04567614197731018,0.04020174965262413
1761315093676888000,1.84188818359375,-0.025674203410744667,-0.04940297082066536,0.029501965269446373
1761315093686935800,1.851935791015625,-0.016651947051286697,-0.04982641339302063,0.011603659018874168
1761315093696984000,1.861984130859375,-0.014280135743319988,-0.057130131870508194,-0.008807339705526829
1761315093707031000,1.872031005859375,-0.0162359606474638,-0.062312111258506775,-0.023518642410635948
1761315093717079000,1.8820791015625,-0.021584387868642807,-0.06601203978061676,-0.033428262919187546
1761315093727127000,1.892126953125,-0.026876620948314667,-0.05940580368041992,-0.03489327058196068
1761315093737174000,1.902174072265625,-0.028808211907744408,-0.0414142869412899,-0.04139937087893486
1761315093747222000,1.912221923828125,-0.029894782230257988,-0.03067615255713463,-0.054852597415447235
1761315093757269000,1.92226904296875,-0.02834029495716095,-0.03205540403723717,-0.07106192409992218
1761315093767317000,1.93231689453125,-0.035785429179668427,-0.04113465175032616,-0.08555085211992264
1761315093777365000,1.942364990234375,-0.035286884754896164,-0.03545599430799484,-0.09165588766336441
1761315093787412000,1.952411865234375,-0.04008643329143524,-0.03341548144817352,-0.09461172670125961
1761315093797460000,1.9624599609375,-0.03936365246772766,-0.02965429797768593,-0.0844978392124176
1761315093807507000,1.9725068359375,-0.03784804791212082,-0.009313606657087803,-0.05986998975276947
1761315093817555000,1.982554931640625,-0.044559478759765625,0.006323942448943853,-0.031066572293639183
1761315093827603000,1.99260302734375,-0.0456167533993721,0.00350472005084157,-0.006403304636478424
1761315093837650200,2.002650146484375,-0.043166112154722214,0.008758338168263435,0.012522449716925621
1761315093847698000,2.012697998046875,-0.03893221914768219,0.010979946702718735,0.016867130994796753
1761315093857745000,2.022744873046875,-0.029739519581198692,-0.0022658174857497215,0.00933118350803852
1761315093867793000,2.03279296875,-0.019242936745285988,-0.013451892882585526,0.0037353497464209795
1761315093877841000,2.0428408203125,-0.007774033583700657,-0.018510833382606506,-0.007232879288494587
1761315093887888000,2.052887939453125,0.0016343819443136454,-0.025435319170355797,-0.01744716800749302
1761315093897936000,2.062935791015625,0.010635334067046642,-0.03146791085600853,-0.022044049575924873
1761315093907983000,2.072983154296875,0.02239239029586315,-0.028069451451301575,-0.02184990420937538
1761315093918031000,2.083031005859375,0.027111778035759926,-0.018624816089868546,-0.01563941314816475
1761315093928078800,2.093078857421875,0.034326814115047455,-0.017851967364549637,-0.011196461506187916
1761315093938125800,2.103125732421875,0.0345209576189518,-0.014070811681449413,-0.0025220136158168316
1761315093948174000,2.113174072265625,0.029651369899511337,-0.012689962051808834,0.007766842842102051
1761315093958221000,2.123220947265625,0.02492026425898075,-0.007345530670136213,0.018806178122758865
1761315093968268800,2.133268798828125,0.01661066897213459,0.001791242160834372,0.018281536176800728
1761315093978317000,2.143317138671875,0.01582956314086914,0.012315521948039532,0.011503790505230427
1761315093988364000,2.153364013671875,0.023863254114985466,0.016138490289449692,-0.004238953348249197
1761315093998411800,2.163411865234375,0.031317442655563354,0.009393235668540001,-0.0222613625228405
1761315094008460000,2.1734599609375,0.028961077332496643,-0.010573548264801502,-0.03826349973678589
1761315094018507000,2.183507080078125,0.028200479224324226,-0.026822825893759727,-0.04829908907413483
1761315094028555000,2.193554931640625,0.026859045028686523,-0.04467106610536575,-0.05077236518263817
1761315094038602000,2.20360205078125,0.03320775553584099,-0.04837392270565033,-0.04416026920080185
1761315094048650000,2.21364990234375,0.03579847887158394,-0.028792500495910645,-0.02803456410765648
1761315094058698000,2.223697998046875,0.0353420116007328,-0.013917147181928158,-0.015856195241212845
1761315094068745000,2.233744873046875,0.03244262933731079,0.006256564520299435,-0.006966030225157738
1761315094078793000,2.24379296875,0.03056829608976841,0.015173093415796757,-0.002576342085376382
1761315094088840000,2.25383984375,0.02641323208808899,0.01031735260039568,0.0052363071590662
1761315094098888000,2.263887939453125,0.026813238859176636,0.007649930194020271,0.015335813164710999
1761315094108936200,2.273936279296875,0.030406108126044273,0.0034163030795753,0.023368971422314644
1761315094118983000,2.28398291015625,0.03621792420744896,-0.012236692942678928,0.02522466331720352
1761315094129031000,2.294031005859375,0.04171042889356613,-0.012565859593451023,0.030836742371320724
1761315094139078000,2.304077880859375,0.04658055305480957,-0.009366603568196297,0.030109699815511703
1761315094149126100,2.314126220703125,0.044871602207422256,-0.002005360322073102,0.019529493525624275
1761315094159174000,2.324173828125,0.04109364002943039,-0.005484247580170631,0.0112209627404809
1761315094169220900,2.334220947265625,0.04054849222302437,-0.016532104462385178,-0.00004340952364145778
1761315094179269000,2.34426904296875,0.041188716888427734,-0.020722588524222374,-0.004540423396974802
1761315094189316000,2.354316162109375,0.03996792063117027,-0.01763145811855793,-0.0007480819476768374
1761315094199363800,2.36436376953125,0.04216716066002846,-0.005988117773085833,0.001306014135479927
1761315094209412000,2.374412109375,0.044446561485528946,0.01107289083302021,0.0010178601369261742
1761315094219459000,2.384458984375,0.03543202579021454,0.012689430266618729,-0.007131678983569145
1761315094229507000,2.394507080078125,0.029573338106274605,-0.0036101811565458775,-0.019328957423567772
1761315094239554000,2.404553955078125,0.028329109773039818,-0.025177525356411934,-0.02768196165561676
1761315094249602000,2.41460205078125,0.02678420953452587,-0.044912081211805344,-0.019102055579423904
1761315094259650000,2.424650146484375,0.027964789420366287,-0.029441511258482933,-0.0003933488915208727
1761315094269697000,2.434697021484375,0.027578631415963173,0.0027353328187018633,0.015079083852469921
1761315094279745000,2.4447451171875,0.03283943980932236,0.016079101711511612,0.013471334241330624
1761315094289793000,2.45479296875,0.03837908059358597,0.019751068204641342,-0.0015928366919979453
1761315094299840000,2.464840087890625,0.04381698742508888,-0.000577107013668865,-0.008464857004582882
1761315094309888000,2.474887939453125,0.03971092775464058,-0.01569667086005211,-0.00407623453065753
1761315094319935000,2.48493505859375,0.038837410509586334,-0.011032943613827229,0.013081713579595089
1761315094329983000,2.49498291015625,0.03081650286912918,-0.004093811381608248,0.030305974185466766
1761315094340031000,2.505031005859375,0.028178641572594643,0.0009917612187564373,0.04255172237753868
1761315094350078200,2.515078125,0.026078738272190094,-0.002226402750238776,0.04144144803285599
1761315094360126000,2.5251259765625,0.025743447244167328,-0.005255748517811298,0.027163710445165634
1761315094370173000,2.5351728515625,0.020487964153289795,-0.013539777137339115,0.011149323545396328
1761315094380221000,2.545220947265625,0.021142037585377693,-0.030825557187199593,-0.004376638680696487
1761315094390269000,2.55526904296875,0.016925720497965813,-0.03199281916022301,-0.012165586464107037
1761315094400316000,2.56531591796875,0.009217733517289162,-0.020905282348394394,-0.012948821298778057
1761315094410364000,2.575364013671875,-0.004287689458578825,-0.006999586243182421,-0.016201872378587723
1761315094420411100,2.5854111328125,-0.015861520543694496,0.007387608755379915,-0.023917850106954575
1761315094430459100,2.595459228515625,-0.020125774666666985,0.00472444761544466,-0.0299600288271904
1761315094440507000,2.6055068359375,-0.02101100981235504,-0.00993199273943901,-0.027665715664625168
1761315094450553900,2.615553955078125,-0.01859205961227417,-0.021917017176747322,-0.016713999211788177
1761315094460602000,2.62560205078125,-0.014610634185373783,-0.011826831847429276,-0.006244580261409283
1761315094470649000,2.635649169921875,-0.014060957357287407,-0.001969940261915326,0.01122016366571188
1761315094480696800,2.64569677734375,-0.016166718676686287,0.0070576430298388,0.017248494550585747
1761315094490745000,2.6557451171875,-0.013818077743053436,0.010936005041003227,0.012161591090261936
1761315094500792000,2.6657919921875,-0.014359232038259506,0.008870457299053669,0.004181961994618177
1761315094510840000,2.675840087890625,-0.008375908248126507,0.004767591133713722,0.0008210525847971439
1761315094520888000,2.68588818359375,-0.000559530162718147,-0.0055151404812932014,0.0019656792283058167
1761315094530935000,2.69593505859375,0.006770820822566748,-0.01435310672968626,0.007115167565643787
1761315094540983000,2.705983154296875,0.015382418408989906,-0.020687434822320938,0.019050389528274536
1761315094551030000,2.716030029296875,0.017903100699186325,-0.019101256504654884,0.02863856963813305
1761315094561078000,2.726078125,0.018874621018767357,-0.01429478358477354,0.02852565050125122
1761315094571125000,2.736125,0.01968209259212017,-0.0028786107432097197,0.032097481191158295
1761315094581173000,2.746173095703125,0.016582971438765526,0.011737083084881306,0.030355775728821754
1761315094591221000,2.756220947265625,0.012506204657256603,0.005479720421135426,0.021924739703536034
1761315094601268000,2.76626806640625,0.013733122497797012,-0.006741259712725878,0.01593688875436783
1761315094611316000,2.77631591796875,0.020957212895154953,-0.014399179257452488,0.009496299549937248
1761315094621363000,2.786363037109375,0.029437251389026642,-0.016808807849884033,-0.0011140003334730864
1761315094631411200,2.7964111328125,0.028803952038288116,-0.014388526789844036,-0.00634977500885725
1761315094641459000,2.806458984375,0.025548502802848816,-0.007471764925867319,-0.002831739140674472
1761315094651506000,2.816505859375,0.013636716641485691,-0.0014375743921846151,-0.005562278442084789
1761315094661554200,2.82655419921875,0.007059241179376841,0.0014018879737704992,-0.0149800144135952
1761315094671602000,2.836601806640625,0.00006897587445564568,0.0022152173332870007,-0.018100440502166748
1761315094681649000,2.84664892578125,-0.00287434970960021,0.0046568033285439014,-0.014603976160287857
1761315094691697200,2.856697265625,-0.0035049861762672663,0.00475560687482357,0.001499625970609486
1761315094701744000,2.866744140625,0.0038000645581632853,0.00589517317712307,0.018311629071831703
1761315094711791900,2.8767919921875,0.01101510040462017,0.013563479296863079,0.02520655281841755
1761315094721839900,2.88683984375,0.01792627014219761,0.015341672115027905,0.02478497475385666
1761315094731887000,2.89688720703125,0.017772872000932693,0.0089365029707551,0.026880882680416107
1761315094741935000,2.90693505859375,0.013704893179237843,-0.008113053627312183,0.019641878083348274
1761315094751982000,2.916982177734375,0.011757856234908104,-0.011173292063176632,0.012428706511855125
1761315094762029800,2.92702978515625,0.007458715233951807,-0.008464058861136436,0.0059963734820485115
1761315094772078000,2.937078125,0.004196343012154102,0.0011464908020570874,-0.005635248962789774
1761315094782125000,2.947125,0.004790227860212326,0.0011582087026908994,-0.018920427188277245
1761315094792172800,2.9571728515625,0.011654525063931942,-0.007244064472615719,-0.035472504794597626
1761315094802220000,2.967219970703125,0.016938503831624985,-0.019765183329582214,-0.04321618005633354
1761315094812268000,2.97726806640625,0.025139441713690758,-0.020142287015914917,-0.044073451310396194
1761315094822316000,2.98731591796875,0.030251912772655487,-0.006973220966756344,-0.03483095020055771
1761315094832363000,2.997363037109375,0.030052972957491875,0.004365986213088036,-0.023245135322213173
1761315094842411000,3.007410888671875,0.024746358394622803,0.008352738805115223,-0.013908358290791512
1761315094852458000,3.0174580078125,0.020592093467712402,0.011411645449697971,-0.010732272639870644
1761315094862506000,3.027506103515625,0.02070581167936325,0.004548412747681141,-0.012565060518682003
1761315094872554000,3.037553955078125,0.02112792246043682,-0.0027052389923483133,-0.02093564160168171
1761315094882601000,3.04760107421875,0.019421635195612907,-0.00794367678463459,-0.031097199767827988
1761315094892649000,3.05764892578125,0.014753912575542927,-0.009573531337082386,-0.03128175809979439
1761315094902696000,3.067696044921875,0.006981743033975363,-0.013124590739607811,-0.041860099881887436
1761315094912744000,3.077743896484375,0.001278849900700152,-0.02725665457546711,-0.0464593768119812
1761315094922792000,3.0877919921875,0.0046538738533854485,-0.045691587030887604,-0.05632186308503151
1761315094932839000,3.0978388671875,0.008393218740820885,-0.05225361883640289,-0.05718446150422096
1761315094942887200,3.10788720703125,0.014873487874865532,-0.053457364439964294,-0.054252054542303085
1761315094952934100,3.11793408203125,0.015899870544672012,-0.04505855590105057,-0.0453198105096817
1761315094962982000,3.12798193359375,0.018605642020702362,-0.027998611330986023,-0.0398976132273674
1761315094973030100,3.138030029296875,0.023959128186106682,-0.010726147331297398,-0.030774157494306564
1761315094983077000,3.1480771484375,0.023982830345630646,-0.00993279181420803,-0.023737287148833275
1761315094993124900,3.158124755859375,0.023016368970274925,-0.006107693538069725,-0.016353406012058258
1761315095003171800,3.168171875,0.026918699964880943,-0.004870122764259577,-0.007244064472615719
1761315095013220000,3.17822021484375,0.028148014098405838,-0.008925317786633968,0.0015731292078271508
1761315095023268000,3.18826806640625,0.02714240550994873,-0.008105331100523472,0.006184658966958523
1761315095033314800,3.198314697265625,0.025352494791150093,-0.011488344520330429,0.010431335307657719
1761315095043363000,3.208363037109375,0.02353648468852043,-0.014993330463767052,0.01079592201858759
1761315095053410000,3.21841015625,0.01985972560942173,-0.0185832716524601,0.006929811555892229
1761315095063458000,3.2284580078125,0.013877199962735176,-0.013680658303201199,-0.0016048208344727755
1761315095073506000,3.238506103515625,0.007691475562751293,-0.006857373286038637,-0.005559614859521389
1761315095083553000,3.248552978515625,0.0036013927310705185,-0.0052107409574091434,-0.006491721607744694
1761315095093601000,3.25860107421875,0.00458729499951005,-0.0015161376213654876,-0.003578489413484931
1761315095103649000,3.26864892578125,-0.000006924218723725062,-0.0038874163292348385,-0.0008426241693086922
1761315095113696000,3.278696044921875,0.001151018193922937,-0.011884355917572975,0.001915878034196794
1761315095123744000,3.288743896484375,0.003908189013600349,-0.007382282521575689,0.005017395596951246
1761315095133791000,3.298791015625,0.0070760189555585384,0.0009776464430615306,0.0015478292480111122
1761315095143839200,3.308839111328125,0.007585481740534306,0.0011345066595822573,-0.0023342606145888567
1761315095153887000,3.318886962890625,0.010499779134988785,0.003590473672375083,-0.0005842975224368274
1761315095163934000,3.328933837890625,0.015606390312314034,-0.002070873975753784,-0.0004599279200192541
1761315095173982000,3.33898193359375,0.018374480307102203,-0.012048141099512577,0.002089516259729862
1761315095184028400,3.3490283203125,0.01930791698396206,-0.01581891067326069,0.004232029430568218
1761315095194076400,3.359076416015625,0.02046213112771511,-0.014423147775232792,0.006421680096536875
1761315095204124400,3.36912451171875,0.01612570695579052,-0.004157194402068853,0.005541771650314331
1761315095214171400,3.37917138671875,0.005985986907035112,-0.002372077666223049,0.0036693033762276173
1761315095224219600,3.3892197265625,-0.0034445326309651136,-0.004309793468564749,-0.0033507891930639744
1761315095234266600,3.3992666015625,-0.007505853194743395,-0.01050084363669157,-0.008015582337975502
1761315095244314400,3.409314453125,-0.01238982379436493,-0.009303486905992031,-0.006491987966001034
1761315095254362400,3.4193623046875,-0.020848557353019714,0.011412976309657097,-0.0024927188642323017
1761315095264409600,3.42940966796875,-0.032890040427446365,0.026446787640452385,0.0006183860241435468
1761315095274457300,3.439457275390625,-0.04285905137658119,0.03273184597492218,0.0033012544736266136
1761315095284504300,3.44950439453125,-0.0484282523393631,0.02972540445625782,0.0024924525059759617
1761315095294552600,3.459552490234375,-0.05030737817287445,0.025768212974071503,-0.005022721830755472
1761315095304600600,3.4696005859375,-0.04464177042245865,0.011681689880788326,-0.011648666113615036
1761315095314647600,3.4796474609375,-0.03834366053342819,-0.003934554290026426,-0.008696818724274635
1761315095324695300,3.4896953125,-0.03224395588040352,-0.019040536135435104,-0.0020714066922664642
1761315095334742500,3.499742431640625,-0.027589017525315285,-0.021704496815800667,0.0057383133098483086
1761315095344790500,3.50979052734375,-0.022054968401789665,-0.012602610513567924,0.006875749211758375
1761315095354838300,3.51983837890625,-0.014546185731887817,-0.007616640534251928,0.00866352953016758
1761315095364885500,3.529885498046875,-0.011916047893464565,-0.006651777308434248,0.015913452953100204
1761315095374933500,3.53993359375,-0.01495471503585577,-0.0032599754631519318,0.02893977239727974
1761315095384980500,3.54998046875,-0.014137656427919865,-0.007451790850609541,0.039137281477451324
1761315095395028500,3.560028564453125,-0.0142343295738101,-0.011695272289216518,0.04638374224305153
1761315095405076500,3.570076416015625,-0.017308149486780167,-0.0117940753698349,0.04259806126356125
1761315095415123500,3.58012353515625,-0.012891030870378017,-0.006154032424092293,0.038971368223428726
1761315095425171500,3.59017138671875,-0.012251339852809906,0.0035984632559120655,0.030878553166985512
1761315095435218700,3.60021875,-0.01564660482108593,0.006232862360775471,0.018032796680927277
1761315095445266400,3.610266357421875,-0.020913004875183105,0.006724481470882893,0.007763647008687258
1761315095455314400,3.620314453125,-0.029143771156668663,0.0014682007022202015,0.0027601001784205437
1761315095465361400,3.630361328125,-0.03575506806373596,-0.0054672034457325935,0.0019747340120375156
1761315095475409400,3.640409423828125,-0.03826563060283661,-0.009882990270853043,0.000696150294970721
1761315095485456400,3.650456298828125,-0.03773672506213188,-0.014169881120324135,-0.00009720538218971342
1761315095495504400,3.66050439453125,-0.03388126939535141,-0.019169166684150696,0.004415787290781736
1761315095505552600,3.670552734375,-0.02942713163793087,-0.01852947659790516,0.012824452482163906
1761315095515599600,3.680599609375,-0.02893710881471634,-0.01986078917980194,0.02286856435239315
1761315095525647400,3.6906474609375,-0.028426315635442734,-0.013317403383553028,0.03506504371762276
1761315095535694300,3.7006943359375,-0.02834641933441162,0.0008261125767603517,0.04369768127799034
1761315095545742600,3.71074267578125,-0.025542911142110825,0.005622731987386942,0.043237220495939255
1761315095555790300,3.720790283203125,-0.02359534054994583,-0.0006924218614585698,0.04807937890291214
1761315095565837300,3.73083740234375,-0.019756659865379333,0.0020415792241692543,0.04613660275936127
1761315095575885600,3.740885498046875,-0.008434764109551907,0.00034967303508892655,0.04080894961953163
1761315095585932500,3.7509326171875,-0.009198824875056744,-0.014319551177322865,0.03296913579106331
1761315095595980300,3.760980224609375,-0.006645918358117342,-0.02996642142534256,0.02184457890689373
1761315095606028500,3.771028564453125,-0.0016607472207397223,-0.025964755564928055,0.016213057562708855
1761315095616075500,3.781075439453125,-0.006933539640158415,-0.006059224251657724,0.0014764565275982022
1761315095626123500,3.79112353515625,-0.0123043367639184,-0.008673649281263351,-0.012455071322619915
1761315095636170500,3.80117041015625,-0.016569122672080994,-0.018375013023614883,-0.011490740813314915
1761315095646218500,3.811218505859375,-0.013934457674622536,-0.013051353394985199,-0.0033989925868809223
1761315095656266500,3.8212666015625,-0.010457701049745083,0.0006538060260936618,0.011547200381755829
1761315095666313500,3.8313134765625,-0.010896855965256691,0.0007677893154323101,0.01769164577126503
1761315095676361500,3.841361572265625,0.00035473305615596473,-0.009436111897230148,0.01889672502875328
1761315095686408400,3.851408447265625,0.013005547225475311,-0.014653777703642845,0.014700116589665413
1761315095696456400,3.86145654296875,0.022704247385263443,-0.02245470881462097,0.005363872740417719
1761315095706504400,3.87150439453125,0.022853383794426918,-0.02779434621334076,0.005315136630088091
1761315095716551400,3.881551513671875,0.02345845475792885,-0.022528478875756264,0.006736199837177992
1761315095726599400,3.891599365234375,0.02274472638964653,-0.007158576976507902,0.00392869533970952
1761315095736646400,3.901646484375,0.0184040404856205,0.0007811051327735186,0.005166798830032349
1761315095746694700,3.911694580078125,0.010334663093090057,0.0032959282398223877,0.005262938793748617
1761315095756742400,3.921742431640625,0.006899984087795019,-0.0005675196298398077,0.005138036794960499
1761315095766789400,3.931789306640625,0.009635317139327526,-0.016344351693987846,0.006499178241938353
1761315095776837400,3.94183740234375,0.018569955602288246,-0.016261527314782143,0.005518602207303047
1761315095786884600,3.951884521484375,0.027063041925430298,-0.005514874123036861,0.005886651109904051
1761315095796932400,3.961932373046875,0.02887985110282898,0.0033635725267231464,-0.0013795174891129136
1761315095806980400,3.97198046875,0.02461186982691288,0.0029640982393175364,-0.009967412799596786
1761315095817027600,3.982027587890625,0.01738032139837742,-0.013482253067195415,-0.031139543280005455
1761315095827075600,3.99207568359375,0.008694687858223915,-0.03712259978055954,-0.05607631802558899
1761315095837122600,4.00212255859375,0.00914476253092289,-0.05245601758360863,-0.0721796527504921
1761315095847170300,4.01217041015625,0.011929097585380077,-0.05171193182468414,-0.07713659852743149
1761315095857218600,4.022218505859375,0.018087390810251236,-0.04417544975876808,-0.07238604873418808
1761315095867265500,4.032265625,0.020437363535165787,-0.030063094571232796,-0.06372811645269394
1761315095877313300,4.042313232421875,0.020542027428746223,-0.02774321474134922,-0.051657069474458694
1761315095887360500,4.052360595703125,0.02743535302579403,-0.019149459898471832,-0.040230508893728256
1761315095897408500,4.062408447265625,0.027176493778824806,-0.007489341776818037,-0.028612203896045685
1761315095907456500,4.07245654296875,0.029930735006928444,0.0014556838432326913,-0.02082405611872673
1761315095917503200,4.082503173828125,0.025351162999868393,-0.0010910971323028207,-0.011890481226146221
1761315095927551500,4.092551513671875,0.020307401195168495,-0.007728493306785822,-0.0007246461464092135
1761315095937598500,4.102598388671875,0.018576880916953087,-0.009045959450304508,0.01372513361275196
1761315095947646500,4.112646484375,0.010836401954293251,0.0015028218040242791,0.02887718752026558
1761315095957694500,4.122694580078125,0.01007713470607996,0.011987154372036457,0.03469859063625336
1761315095967741400,4.132741455078125,0.0013017531018704176,0.00424401368945837,0.03166844695806503
1761315095977789400,4.14278955078125,-0.001954493811354041,-0.000015180017726379447,0.029563484713435173
1761315095987836400,4.15283642578125,0.0009547432418912649,-0.00015419702685903758,0.02130741998553276
1761315095997884400,4.162884521484375,-0.002082591876387596,0.0004902879591099918,0.0157757680863142
1761315096007932400,4.172932373046875,-0.0007510114228352904,-0.004863731097429991,0.012063320726156235
1761315096017979400,4.1829794921875,0.00213665422052145,0.0003283677506260574,0.01799524575471878
1761315096028027600,4.193027587890625,0.0023574302904307842,0.007333812769502401,0.02159583941102028
1761315096038074400,4.203074462890625,0.003971305675804615,0.008889365009963512,0.02628912776708603
1761315096048122400,4.213122314453125,0.004376638680696487,0.0021875204984098673,0.02129570208489895
1761315096058170600,4.223170654296875,0.008321313187479973,-0.017842913046479225,0.014146178960800171
1761315096068217600,4.233217529296875,0.015854597091674805,-0.036438968032598495,0.005844573490321636
1761315096078265300,4.243265380859375,0.016229037195444107,-0.04104623571038246,-0.0001930791768245399
1761315096088312300,4.253312255859375,0.01398452464491129,-0.027219636365771294,-0.0037673076149076223
1761315096098360600,4.263360595703125,0.01121989730745554,-0.015360580757260323,-0.011538944207131863
1761315096108408600,4.27340869140625,0.005952964071184397,-0.0031824775505810976,-0.014554974623024464
1761315096118455300,4.283455322265625,-0.0011659319279715419,0.002326271263882518,-0.019228555262088776
1761315096128503600,4.293503662109375,-0.007956726476550102,0.003718571737408638,-0.017494570463895798
1761315096138550500,4.303550537109375,-0.009535448625683784,0.004200603812932968,-0.009089901112020016
1761315096148598500,4.3135986328125,-0.01215493306517601,-0.011797004379332066,-0.003637611633166671
1761315096158646300,4.323646240234375,0.00012223910016473383,-0.04638054966926575,0.00047164582065306604
1761315096168693500,4.333693603515625,0.006903179921209812,-0.07931958884000778,0.007495732977986336
1761315096178741800,4.34374169921875,0.019225891679525375,-0.08884145319461823,0.016652746126055717
1761315096188788700,4.353788818359375,0.020613133907318115,-0.07938963174819946,0.02148904651403427
1761315096198836700,4.363836669921875,0.020591827109456062,-0.062375757843256,0.021832861006259918
1761315096208883700,4.3738837890625,0.01516750082373619,-0.0428348146378994,0.018397117033600807
1761315096218931700,4.383931640625,0.011425493285059929,-0.015898272395133972,0.019230686128139496
1761315096228979700,4.393979736328125,0.007791077718138695,0.0059724049642682076,0.02165336348116398
1761315096239026700,4.404026611328125,0.0028535770252346992,0.009977266192436218,0.02293381094932556
1761315096249074700,4.41407470703125,0.0044176517985761166,0.00863343570381403,0.02924070879817009
1761315096259121700,4.42412158203125,0.008117049001157284,0.006985205225646496,0.03158748894929886
1761315096269170000,4.434169921875,0.008558334782719612,-0.006336991675198078,0.03518382087349892
1761315096279217700,4.4442177734375,0.01290381420403719,-0.020498350262641907,0.033847179263830185
1761315096289264600,4.4542646484375,0.012485165148973465,-0.02899356745183468,0.026023345068097115
1761315096299313000,4.46431298828125,0.01149739883840084,-0.03013446554541588,0.017978999763727188
1761315096309359900,4.47435986328125,-0.000824248360004276,-0.02485501579940319,0.013340306468307972
1761315096319407600,4.48440771484375,-0.013764814473688602,-0.018148643895983696,0.011140269227325916
1761315096329455600,4.49445556640625,-0.021133514121174812,-0.006617689039558172,0.006409962195903063
1761315096339502800,4.5045029296875,-0.020135361701250076,0.017680726945400238,0.0022860574536025524
1761315096349550800,4.51455078125,-0.020782509818673134,0.03190866485238075,-0.0013451626291498542
1761315096359597600,4.52459765625,-0.017005082219839096,0.027337614446878433,-0.004766259342432022
1761315096369645600,4.5346455078125,-0.015873504802584648,0.011050254106521606,-0.014373346231877804
1761315096379693800,4.54469384765625,-0.008154332637786865,-0.013865215703845024,-0.022582806646823883
1761315096389740800,4.55474072265625,-0.002670884132385254,-0.0426047183573246,-0.02984018623828888
1761315096399788500,4.56478857421875,0.004764128942042589,-0.054553788155317307,-0.02581615000963211
1761315096409835800,4.574835693359375,0.009031311608850956,-0.04259486496448517,-0.024947160854935646
1761315096419883800,4.5848837890625,0.00857085082679987,-0.025192437693476677,-0.020255737006664276
1761315096429931500,4.594931640625,0.007552458439022303,-0.004833370912820101,-0.020566526800394058
1761315096439978500,4.604978515625,0.005882390309125185,0.019527362659573555,-0.020260263234376907
1761315096450026800,4.61502685546875,0.00839801225811243,0.03421842306852341,-0.023812122642993927
1761315096460073700,4.62507373046875,0.00666322885081172,0.03603683039546013,-0.023373765870928764
1761315096470121700,4.635121826171875,0.011711783707141876,0.02797144651412964,-0.018938537687063217
1761315096480169700,4.645169677734375,0.01504126749932766,0.0012711267918348312,-0.008625179529190063
1761315096490216700,4.655216796875,0.016894029453396797,-0.01389877125620842,0.0034261567052453756
1761315096500264700,4.6652646484375,0.02002883516252041,-0.020979583263397217,0.019956663250923157
1761315096510311700,4.675311767578125,0.018491659313440323,-0.01649322360754013,0.02424861490726471
1761315096520359700,4.685359619140625,0.020376645028591156,-0.007984689436852932,0.013582920655608177
1761315096530407700,4.69540771484375,0.013006079941987991,-0.0021049624774605036,0.001942509668879211
1761315096540454700,4.70545458984375,0.006106362212449312,0.006864031311124563,-0.0028911277186125517
1761315096550502700,4.715502685546875,-0.004524177871644497,0.018556639552116394,-0.011401524767279625
1761315096560549600,4.725549560546875,-0.00932372733950615,0.013203419744968414,-0.013793043792247772
1761315096570597600,4.73559765625,-0.01471742708235979,0.01173228956758976,-0.013704893179237843
1761315096580646000,4.74564599609375,-0.011691543273627758,0.013857492245733738,-0.006654440425336361
1761315096590692900,4.75569287109375,-0.0018908443162217736,0.012802081182599068,-0.000734766130335629
1761315096600740600,4.76574072265625,0.005631520412862301,0.010773818008601665,0.011602327227592468
1761315096610787600,4.77578759765625,0.010044111870229244,0.010072607547044754,0.020387563854455948
1761315096620835800,4.7858359375,0.012563196010887623,0.00458596320822835,0.021673070266842842
1761315096630882800,4.7958828125,0.010792993009090424,-0.003096457337960601,0.017006946727633476
1761315096640930600,4.8059306640625,0.008547947742044926,-0.017735054716467857,0.007195861078798771
1761315096650978800,4.815978759765625,0.008947954513132572,-0.026552781462669373,0.0011078750248998404
1761315096661025800,4.82602587890625,0.012065717950463295,-0.01774384267628193,-0.005592105444520712
1761315096671073800,4.83607373046875,0.01564154401421547,-0.010747719556093216,-0.017560617998242378
1761315096681120500,4.84612060546875,0.009214803576469421,-0.002070873975753784,-0.016355270519852638
1761315096691168800,4.856168701171875,0.006170011591166258,0.008917062543332577,-0.010901383124291897
1761315096701216800,4.866216796875,0.0007861651247367263,0.019463179633021355,-0.006843524985015392
1761315096711263700,4.876263671875,-0.0011193265672773123,0.015680959448218346,-0.002546248259022832
1761315096721311700,4.886311767578125,-0.0028570392169058323,0.0029142971616238356,0.0010958907660096884
1761315096731356700,4.896356689453125,-0.0007121292874217033,-0.0031494542490690947,0.0008655273704789579
1761315096741404000,4.90640380859375,0.0009896307019516826,-0.0065292720682919025,0.0022053637076169252
1761315096751451600,4.91645166015625,0.0019435749854892492,-0.008872853592038155,-0.0030804784037172794
1761315096761498600,4.92649853515625,-0.0014008227735757828,-0.010894992388784885,-0.0046669235453009605
1761315096771546600,4.936546630859375,-0.0034043188206851482,0.00030306773260235786,-0.005167597904801369
1761315096781593900,4.94659375,-0.005340436939150095,0.012107528746128082,-0.0022778017446398735
1761315096791641600,4.9566416015625,-0.008674714714288712,0.008381234481930733,-0.004736165516078472
1761315096801689600,4.966689697265625,-0.0011241203173995018,0.004751878324896097,-0.005016596522182226
1761315096811736800,4.97673681640625,0.006652842741459608,-0.00041305628838017583,-0.002427471335977316
1761315096821784800,4.986784912109375,0.009277920238673687,0.00526586826890707,0.0029736857395619154
1761315096831831800,4.996831787109375,0.009181514382362366,-0.0009962886106222868,0.0014114753575995564
1761315096841879600,5.006879638671875,0.007493868935853243,-0.006335393991321325,-0.008501076139509678
1761315096851927800,5.016927734375,0.006353237200528383,-0.0057167415507137775,-0.013284912332892418
1761315096861974800,5.026974853515625,0.005533515941351652,-0.011605789884924889,-0.01877501979470253
1761315096872022500,5.0370224609375,0.0016594156622886658,-0.013338974677026272,-0.01727432757616043
1761315096882069800,5.04706982421875,0.0003328951424919069,-0.010484065860509872,-0.019163042306900024
1761315096892117800,5.05711767578125,0.0032804817892611027,-0.007056844420731068,-0.023731429129838943
1761315096902165800,5.067165771484375,0.004548945464193821,0.0024738102219998837,-0.031387750059366226
1761315096912212700,5.077212646484375,0.0006689860601909459,-0.0010466222884133458,-0.03690022602677345
1761315096922260700,5.0872607421875,-0.011504056863486767,-0.01859712041914463,-0.047983504831790924
1761315096932307700,5.0973076171875,-0.02394687756896019,-0.02846786007285118,-0.04246943071484566
1761315096942355700,5.107355712890625,-0.03382507339119911,-0.02646489627659321,-0.04108937829732895
1761315096952403700,5.11740380859375,-0.033917754888534546,-0.014458834193646908,-0.03560619801282883
1761315096962450700,5.12745068359375,-0.03182024881243706,0.00532419141381979,-0.028418591246008873
1761315096972498700,5.137498779296875,-0.028880650177598,0.02436419576406479,-0.022587068378925323
1761315096982545700,5.147545654296875,-0.03062022663652897,0.03411056473851204,-0.014742194674909115
1761315096992593700,5.15759375,-0.023839818313717842,0.03272279351949692,-0.012573315761983395
1761315097002641700,5.1676416015625,-0.019762519747018814,0.021677331998944283,-0.007870174013078213
1761315097012688600,5.177688720703125,-0.0162386242300272,0.009956227615475655,-0.0006072007236070931
1761315097022737000,5.18773681640625,-0.005872536450624466,0.0023552996572107077,0.0019060244085267186
1761315097032784000,5.197783935546875,0.00574843306094408,-0.009577259421348572,0.009607086889445782
1761315097042831600,5.20783154296875,0.01555152889341116,-0.011364773847162724,0.010455570183694363
1761315097052878600,5.217878662109375,0.022800387814641,-0.004797152243554592,0.007102117873728275
1761315097062926800,5.2279267578125,0.02346324734389782,0.0012753878254443407,-0.007382815238088369
1761315097072974600,5.237974609375,0.02317402884364128,0.0007004113867878914,-0.020441358909010887
1761315097083021600,5.248021484375,0.020358268171548843,0.010239588096737862,-0.026668362319469452
1761315097093069800,5.25806982421875,0.014796788804233074,0.015276957303285599,-0.030977623537182808
1761315097103116800,5.26811669921875,0.007165767718106508,0.02521374449133873,-0.03262851759791374
1761315097113164500,5.27816455078125,0.0020642161834985018,0.03363492712378502,-0.031125694513320923
1761315097123212800,5.288212890625,-0.0030985879711806774,0.03809944912791252,-0.03569541126489639
1761315097133259800,5.298259765625,-0.0016588830621913075,0.028874792158603668,-0.037460025399923325
1761315097143307800,5.308307861328125,0.0025302693247795105,0.005772934295237064,-0.024951156228780746
1761315097153354800,5.318354736328125,0.0062914518639445305,-0.010746387764811516,-0.01594461128115654
1761315097163402800,5.32840283203125,0.008253934793174267,-0.024689633399248123,-0.0097423754632473
1761315097173450800,5.33845068359375,0.012405270710587502,-0.029760025441646576,-0.006603574380278587
1761315097183498500,5.34849853515625,0.01079565566033125,-0.01606924831867218,0.0027457191608846188
1761315097193546800,5.358546630859375,0.012031362392008305,-0.006220878101885319,0.016693226993083954
1761315097203593700,5.36859375,0.012675315141677856,0.008992962539196014,0.0267125703394413
1761315097213641700,5.378641845703125,0.011195396073162556,0.01781095564365387,0.03238537162542343
1761315097223688700,5.388688720703125,0.010276073589920998,0.021326594054698944,0.0341063030064106
1761315097233736700,5.39873681640625,0.007932491600513458,0.021578263491392136,0.03927496820688248
1761315097243784700,5.40878466796875,0.008521316573023796,0.01955053210258484,0.03984648361802101
1761315097253831700,5.418831787109375,0.00726563623175025,0.006951116491109133,0.03894872963428497
1761315097263879700,5.428879638671875,0.012202603742480278,-0.005293565336614847,0.03304769843816757
1761315097273926700,5.4389267578125,0.018510567024350166,-0.00902784988284111,0.01751134917140007
1761315097283974700,5.448974609375,0.020925521850585938,-0.010728810913860798,-0.0029438582714647055
1761315097294023000,5.45902294921875,0.023031283169984818,-0.020540429279208183,-0.017185645177960396
1761315097304069600,5.469069580078125,0.02166827768087387,-0.013934724032878876,-0.018786204978823662
1761315097314117600,5.47911767578125,0.016926785930991173,-0.007933290675282478,-0.026150643825531006
1761315097324164600,5.48916455078125,0.009342901408672333,-0.011993013322353363,-0.028540298342704773
1761315097334214700,5.499214599609375,0.006851514335721731,-0.012859872542321682,-0.027355724945664406
1761315097344261600,5.50926171875,0.0058656120672822,-0.006639793049544096,-0.029321936890482903
1761315097354310000,5.519309814453125,0.004261590540409088,-0.00743181724101305,-0.03549620881676674
1761315097364357600,5.529357666015625,0.0005688511882908642,-0.01745622232556343,-0.04226037114858627
1761315097374404600,5.539404541015625,0.0020149475894868374,-0.02949530817568302,-0.03771675378084183
1761315097384452900,5.549452880859375,0.007202785462141037,-0.023938355967402458,-0.028135497123003006
1761315097394499800,5.559499755859375,0.006098638754338026,-0.024085894227027893,-0.023422501981258392
1761315097404547600,5.569547607421875,-0.0021904499735683203,-0.029174929484725,-0.019954001531004906
1761315097414595600,5.579595703125,-0.005376389715820551,-0.025710955262184143,-0.00863103847950697
1761315097424642800,5.589642822265625,-0.003335609333589673,-0.010599114932119846,-0.0017923073610290885
1761315097434690800,5.59969091796875,-0.0012799152173101902,0.007889348082244396,0.005920207127928734
1761315097444737800,5.60973779296875,-0.0034405377227813005,0.007529821712523699,-0.002204298507422209
1761315097454785800,5.619785888671875,0.0001603222917765379,-0.0010902981739491224,-0.01010776124894619
1761315097464832800,5.629832763671875,0.003882089862599969,-0.02124669961631298,-0.011575163342058659
1761315097474880800,5.639880859375,0.009260077029466629,-0.03747919946908951,0.0013283847365528345
1761315097484928500,5.649928466796875,0.01593662239611149,-0.03555399924516678,0.005233111325651407
1761315097494975700,5.659975830078125,0.02099796012043953,-0.030119553208351135,0.012375443242490292
1761315097505023700,5.670023681640625,0.026396986097097397,-0.01823173463344574,0.010546118021011353
1761315097515070700,5.68007080078125,0.027833495289087296,-0.018453575670719147,0.007990015670657158
1761315097525118700,5.69011865234375,0.025903236120939255,-0.0270148403942585,0.009070194326341152
1761315097535166700,5.700166748046875,0.02520602010190487,-0.02889183536171913,0.0143493777140975
1761315097545213700,5.710213623046875,0.0267152339220047,-0.013333382084965706,0.02015240676701069
1761315097555261700,5.72026171875,0.02684146724641323,0.0008258462767116725,0.026429209858179092
1761315097565309000,5.730308837890625,0.021270401775836945,0.011484615504741669,0.027909662574529648
1761315097575356700,5.740356689453125,0.018275409936904907,0.014830878004431725,0.026143720373511314
1761315097585404700,5.75040478515625,0.0129924975335598,0.011840946972370148,0.021161478012800217
1761315097595451600,5.76045166015625,0.004924451000988483,0.0012357067316770554,0.006430734880268574
1761315097605499600,5.770499755859375,0.0007033408619463444,-0.023877369239926338,-0.009986854158341885
1761315097615546600,5.780546630859375,-0.0007677893154323101,-0.04218500480055809,-0.023299196735024452
1761315097625594600,5.7905947265625,0.00032091091270558536,-0.04306517913937569,-0.03009824827313423
1761315097635641900,5.800641845703125,-0.00037523938226513565,-0.029868682846426964,-0.032827988266944885
1761315097645689600,5.810689697265625,-0.00044022052315995097,-0.0016218650853261352,-0.0339217483997345
1761315097655737600,5.820737548828125,-0.00640676636248827,0.015340606682002544,-0.031686022877693176
1761315097665784600,5.83078466796875,-0.011415107175707817,0.00732422573491931,-0.02816053107380867
1761315097675832800,5.840832763671875,-0.013409548439085484,0.0011861718958243728,-0.024346351623535156
1761315097685879800,5.8508798828125,-0.005094361025840044,-0.000696150294970721,-0.019810723140835762
1761315097695927600,5.860927490234375,0.0016732640797272325,-0.0001675128296483308,-0.0139554962515831
1761315097705975800,5.870975830078125,0.012131497263908386,-0.006237655878067017,-0.005736715160310268
1761315097716022800,5.881022705078125,0.009768474847078323,-0.009946906939148903,-0.002532133599743247
1761315097726070500,5.891070556640625,0.011462511494755745,-0.01429345179349184,-0.0028551749419420958
1761315097736117500,5.901117431640625,0.008540225215256214,-0.014092116616666317,-0.008813465014100075
1761315097746165800,5.911165771484375,0.006084524095058441,-0.009459814056754112,-0.013670538552105427
1761315097756212700,5.921212646484375,0.0059926449321210384,-0.009826265275478363,-0.026615099981427193
1761315097766260700,5.9312607421875,0.007901332341134548,-0.01266865711659193,-0.025417208671569824
1761315097776308700,5.941308837890625,0.010096842423081398,-0.0062552327290177345,-0.02022271417081356
1761315097786355700,5.951355712890625,0.011742143891751766,0.003555319970473647,-0.007152718026190996
1761315097796403700,5.96140380859375,0.008258729241788387,0.006150304339826107,-0.003849332919344306
1761315097806450700,5.97145068359375,0.002810966456308961,0.0017233315156772733,0.0001603222917765379
1761315097816498700,5.981498779296875,-0.0004830974212381989,0.003721767570823431,0.00020293287525419146
1761315097826546700,5.991546630859375,-0.004690092988312244,0.0064776064828038216,-0.001341966912150383
1761315097836593700,6.00159375,-0.006960171274840832,0.0009898969437927008,-0.0027244137600064278
1761315097846641700,6.0116416015625,-0.010431335307657719,-0.012735769152641296,-0.004827778320759535
1761315097856688600,6.021688720703125,-0.0018184063956141472,-0.012211126275360584,-0.0015776565996930003
1761315097866736600,6.031736572265625,0.008460063487291336,-0.0008258462767116725,-0.0021608888637274504
1761315097876783600,6.04178369140625,0.01581438258290291,-0.0014689996605738997,-0.0013110742438584566
1761315097886831900,6.051831787109375,0.023964188992977142,-0.006809968966990709,0.004764928016811609
1761315097896879600,6.061879638671875,0.027630828320980072,-0.009888849221169949,0.013924337923526764
1761315097906926600,6.071926513671875,0.02911500819027424,-0.00706829596310854,0.023514380678534508
1761315097916974800,6.081974853515625,0.028536036610603333,-0.02557859756052494,0.028436701744794846
1761315097927021800,6.092021728515625,0.032341428101062775,-0.027528297156095505,0.025560220703482628
1761315097937069600,6.102069580078125,0.03491111099720001,-0.019895676523447037,0.028148813173174858
1761315097947117800,6.112117919921875,0.026812439784407616,-0.016986973583698273,0.02526993677020073
1761315097957164800,6.122164794921875,0.02364487573504448,-0.015261244960129261,0.027966920286417007
1761315097967212800,6.132212890625,0.02201661840081215,-0.011808988638222218,0.023427028208971024
1761315097977259500,6.142259521484375,0.023240873590111732,-0.004095675423741341,0.01852494850754738
1761315097987307800,6.152307861328125,0.02618180215358734,-0.0049039446748793125,0.010441189631819725
1761315097997354800,6.162354736328125,0.021797440946102142,-0.00740198977291584,0.00803049560636282
1761315098007402800,6.17240283203125,0.012500079348683357,-0.017245566472411156,0.0006117281154729426
1761315098017450800,6.18245068359375,-0.0012988236267119646,-0.024960743263363838,-0.0031340080313384533
1761315098027497700,6.192497802734375,-0.013196495361626148,-0.025141306221485138,-0.01287425309419632
1761315098037545700,6.202545654296875,-0.017012538388371468,-0.019277557730674744,-0.029255356639623642
1761315098047592700,6.2125927734375,-0.01756780780851841,-0.011979164555668831,-0.03521843999624252
1761315098057640700,6.222640625,-0.015230618417263031,-0.01618802547454834,-0.031182419508695602
1761315098067688700,6.232688720703125,-0.010771687142550945,-0.018033063039183617,-0.02755040116608143
1761315098077735700,6.242735595703125,-0.004771319217979908,-0.016112923622131348,-0.015916915610432625
1761315098087784000,6.252783935546875,-0.000060453756304923445,-0.00788482092320919,-0.00395612558349967
1761315098097830700,6.26283056640625,0.00574869941920042,0.001047687605023384,0.002828809665516019
1761315098107878700,6.272878662109375,0.008107727393507957,0.011264106258749962,0.01787913218140602
1761315098117925600,6.282925537109375,0.004803809802979231,0.012996491976082325,0.023910658434033394
1761315098127974000,6.292973876953125,0.007036071736365557,0.0008423578692600131,0.025897111743688583
1761315098138021600,6.303021728515625,0.008758071810007095,-0.012064652517437935,0.024566330015659332
1761315098148068600,6.313068603515625,0.01504046842455864,-0.023844080045819283,0.023962324485182762
1761315098158116900,6.323116943359375,0.018510300666093826,-0.025846244767308235,0.020894629880785942
1761315098168163800,6.333163818359375,0.016942763701081276,-0.02104935795068741,0.008890963159501553
1761315098178211600,6.343211669921875,0.013034042902290821,-0.019771041348576546,0.000969923275988549
1761315098188258800,6.3532587890625,0.004515655804425478,-0.014068148098886013,-0.010221478529274464
1761315098198306800,6.363306884765625,0.0005006743012927473,-0.008636364713311195,-0.02208506129682064
1761315098208355000,6.37335498046875,-0.010468353517353535,-0.010304302908480167,-0.026389796286821365
1761315098218401800,6.38340185546875,-0.011657455004751682,-0.013654559850692749,-0.021466143429279327
1761315098228449800,6.39344970703125,-0.007327155210077763,-0.007771636825054884,-0.012148541398346424
1761315098238496800,6.403496826171875,-0.0035052525345236063,-0.0015845808666199446,-0.0020847225096076727
1761315098248545000,6.413544921875,0.002121474128216505,0.002002697205170989,0.0021547635551542044
1761315098258592800,6.4235927734375,0.007248059380799532,0.004815794061869383,0.0037646444980055094
1761315098268639700,6.4336396484375,0.009219330735504627,0.002338788006454706,0.0034671693574637175
1761315098278688000,6.44368798828125,0.010785802267491817,-0.012605274096131325,-0.0019688750617206097
1761315098288735000,6.45373486328125,0.01666180044412613,-0.03292279690504074,-0.006524212192744017
1761315098298782700,6.46378271484375,0.018068483099341393,-0.031510788947343826,-0.0005613943794742227
1761315098308829700,6.47382958984375,0.021997444331645966,-0.023144999518990517,0.00552392890676856
1761315098318878000,6.4838779296875,0.02040220983326435,-0.005196892656385899,0.011720838025212288
1761315098328926000,6.493926025390625,0.019884757697582245,-0.00024501082953065634,0.011728295125067234
1761315098338973000,6.503972900390625,0.01782400533556938,0.0012785836588591337,0.0135054225102067
1761315098349020700,6.514020751953125,0.015425561927258968,-0.010313090868294239,0.011993013322353363
1761315098359068000,6.52406787109375,0.014044445939362049,-0.014874819666147232,0.012227637693285942
1761315098369116000,6.534115966796875,0.013069729320704937,-0.015569105744361877,0.00917565543204546
1761315098379163600,6.54416357421875,0.013306218199431896,-0.017198162153363228,0.003966778516769409
1761315098389211000,6.5542109375,0.015019696205854416,-0.019519638270139694,0.0021486382465809584
1761315098399259000,6.5642587890625,0.012433500029146671,-0.018851984292268753,-0.005936718545854092
1761315098409305900,6.574305908203125,0.012074772268533707,-0.015874303877353668,-0.015416773036122322
1761315098419353600,6.584353515625,0.014055364765226841,-0.011737083084881306,-0.0209518875926733
1761315098429400800,6.59440087890625,0.014573882333934307,-0.013019927777349949,-0.024353543296456337
1761315098439448800,6.60444873046875,0.015119298361241817,-0.01041322574019432,-0.019099658355116844
1761315098449496800,6.614496826171875,0.020564131438732147,-0.016711601987481117,-0.01913481205701828
1761315098459544000,6.6245439453125,0.02947906218469143,-0.03206552565097809,-0.013850567862391472
1761315098469591800,6.634591796875,0.03828853368759155,-0.04122280329465866,-0.011380752548575401
1761315098479638800,6.644638671875,0.04309047758579254,-0.04141481593251228,-0.012501942925155163
1761315098489686800,6.654686767578125,0.03952876850962639,-0.03728904947638512,-0.013369867578148842
1761315098499734000,6.664734130859375,0.029462018981575966,-0.030784543603658676,-0.01679442636668682
1761315098509781800,6.67478173828125,0.020485300570726395,-0.02538711577653885,-0.02040966786444187
1761315098519829800,6.684829833984375,0.020010992884635925,-0.01932070031762123,-0.015449530445039272
1761315098529877000,6.694876953125,0.020441092550754547,-0.011389008723199368,-0.005109274294227362
1761315098539924700,6.7049248046875,0.018669025972485542,0.005599828902631998,0.00902571901679039
1761315098549971700,6.7149716796875,0.01840723678469658,0.019588882103562355,0.02377563714981079
1761315098560019700,6.725019775390625,0.01136770285665989,0.014156565070152283,0.027902737259864807
1761315098570067000,6.73506689453125,0.009276854805648327,-0.008657936938107014,0.026222815737128258
1761315098580115000,6.745114990234375,0.014566692523658276,-0.031193340197205544,0.018445586785674095
1761315098590162700,6.75516259765625,0.02004667930305004,-0.03683977201581001,0.0098419776186347
1761315098600210000,6.7652099609375,0.023751402273774147,-0.03904487192630768,0.005564142484217882
1761315098610258000,6.7752578125,0.026573553681373596,-0.032768864184617996,0.005152417812496424
1761315098620305000,6.785304931640625,0.024510135874152184,-0.0153150400146842,0.011110175400972366
1761315098630352600,6.7953525390625,0.021014736965298653,0.0013670006301254034,0.015149657614529133
1761315098640400000,6.80539990234375,0.020190488547086716,0.01654728502035141,0.017290839925408363
1761315098650448000,6.81544775390625,0.019633356481790543,0.021983595564961433,0.014109693467617035
1761315098660496000,6.825495849609375,0.023572437465190887,0.01360209472477436,0.007322094868868589
1761315098670542800,6.83554296875,0.023074692115187645,0.00005965480886516161,0.0013049489352852106
1761315098680590800,6.8455908203125,0.02232501283288002,-0.013570403680205345,-0.008915997110307217
1761315098690637800,6.855637939453125,0.01798086427152157,-0.020853616297245026,-0.016570188105106354
1761315098700685800,6.865685791015625,0.008070443756878376,-0.02533438429236412,-0.028376780450344086
1761315098710733800,6.87573388671875,0.0020959076937288046,-0.026189526543021202,-0.036192625761032104
1761315098720780800,6.88578076171875,-0.0026812704745680094,-0.022765500470995903,-0.03949308022856712
1761315098730828800,6.895828857421875,-0.013950969092547894,-0.02130768448114395,-0.04375919699668884
1761315098740875800,6.905875732421875,-0.019936423748731613,-0.011739213950932026,-0.047571513801813126
1761315098750923800,6.915923828125,-0.023319438099861145,-0.0033505228348076344,-0.05152790620923042
1761315098760970800,6.925970703125,-0.02707342989742756,0.006676544900983572,-0.055873919278383255
1761315098771018800,6.936018798828125,-0.029228724539279938,0.005151618737727404,-0.05619589611887932
1761315098781067000,6.94606689453125,-0.023740483447909355,-0.0009528790251351893,-0.04852066561579704
1761315098791113700,6.95611376953125,-0.021258151158690453,-0.0037854171823710203,-0.0357193797826767
1761315098801161700,6.96616162109375,-0.01733904331922531,-0.0024804682470858097,-0.01810763031244278
1761315098811208700,6.976208740234375,-0.011216169223189354,0.0018660769565030932,-0.001335575245320797
1761315098821257000,6.986257080078125,-0.001743571599945426,0.002176867797970772,0.015976302325725555
1761315098831304000,6.996303955078125,0.0014868428697809577,-0.0051870387978851795,0.024440893903374672
1761315098841351700,7.0063515625,0.00854368694126606,-0.010204700753092766,0.024940770119428635
1761315098851400000,7.01639990234375,0.010330667719244957,-0.014505972154438496,0.0247812457382679
1761315098861447000,7.026447021484375,0.011214837431907654,-0.01864985004067421,0.02582600526511669
1761315098871494700,7.03649462890625,0.00845473725348711,-0.021530592814087868,0.02996215969324112
1761315098881541600,7.046541748046875,0.007894407957792282,-0.016716130077838898,0.03027241863310337
1761315098891590000,7.05658984375,0.008681639097630978,-0.008028632029891014,0.02551867626607418
1761315098901636900,7.066636962890625,0.010550378821790218,-0.010400975123047829,0.022533537819981575
1761315098911684900,7.076684814453125,0.008364190347492695,-0.010112554766237736,0.018980881199240685
1761315098921732900,7.08673291015625,0.011011372320353985,-0.013487046584486961,0.01714729517698288
1761315098931779800,7.09677978515625,0.010964767076075077,-0.018142251297831535,0.016410931944847107
1761315098941827800,7.106827880859375,0.006311425473541021,-0.0210080798715353,0.015536881983280182
1761315098951874800,7.116874755859375,0.007585481740534306,-0.01786475069820881,0.01703411154448986
1761315098961922800,7.1269228515625,0.010976751334965229,-0.015087872743606567,0.01889166608452797
1761315098971969800,7.1369697265625,0.008506935089826584,-0.01672838069498539,0.018193917348980904
1761315098982017800,7.147017822265625,0.006925550289452076,-0.017653295770287514,0.010696586221456528
1761315098992065800,7.157065673828125,0.011140269227325916,-0.016567258164286613,-0.0013310478534549475
1761315099002112800,7.16711279296875,0.00672208471223712,-0.011247328482568264,-0.0029294772539287806
1761315099012160800,7.177160888671875,0.0012607404496520758,-0.008448345586657524,-0.009334379807114601
1761315099022207700,7.187207763671875,-0.0040794298984110355,-0.014615694060921669,-0.014594655483961105
1761315099032256000,7.197256103515625,-0.003722033929079771,-0.022235265001654625,-0.022548452019691467
1761315099042302700,7.207302734375,-0.010030795820057392,-0.025358885526657104,-0.035345740616321564
1761315099052350700,7.217350830078125,-0.014254303649067879,-0.030039126053452492,-0.03928695246577263
1761315099062399000,7.22739892578125,-0.02051379717886448,-0.030134201049804688,-0.03387807309627533
1761315099072446000,7.237446044921875,-0.018264757469296455,-0.022998793050646782,-0.02154470607638359
1761315099082493700,7.24749365234375,-0.0167387668043375,-0.0023097596131265163,-0.008339955471456051
1761315099092540700,7.257540771484375,-0.009371397085487843,0.009080047719180584,0.0010396981379017234
1761315099102589000,7.2675888671875,-0.00495188171043992,0.012689962051808834,0.007148456759750843
1761315099112636000,7.277635986328125,-0.003875698195770383,0.0008245146600529552,0.010690727271139622
1761315099122683600,7.28768359375,-0.0008857673965394497,-0.02189784124493599,0.010719222947955132
1761315099132732000,7.29773193359375,-0.006310892757028341,-0.042627885937690735,0.015895076096057892
1761315099142779000,7.30777880859375,-0.0031933963764458895,-0.054547131061553955,0.021939121186733246
1761315099152827000,7.317826904296875,0.005283445119857788,-0.040948498994112015,0.025889387354254723
1761315099162873900,7.327873779296875,0.010722951963543892,-0.027244403958320618,0.02823030576109886
1761315099172921900,7.337921875,0.01714836061000824,-0.013252954930067062,0.030719563364982605
1761315099182967800,7.3479677734375,0.026933878660202026,-0.009799900464713573,0.028204739093780518
1761315099193016000,7.35801611328125,0.032769396901130676,-0.005336175672709942,0.020494889467954636
1761315099203064000,7.36806396484375,0.038903724402189255,-0.0000977380113909021,0.01714250072836876
1761315099213111000,7.378111083984375,0.037626735866069794,-0.006057359743863344,0.01763465441763401
1761315099223159000,7.388158935546875,0.029355226084589958,-0.011710718274116516,0.01823812536895275
1761315099233206000,7.3982060546875,0.020447485148906708,-0.010690194554626942,0.02310212329030037
1761315099243254000,7.40825390625,0.012792760506272316,-0.007197991944849491,0.015499331057071686
1761315099253301000,7.418301025390625,0.0052320463582873344,-0.0037505298387259245,0.0049497513100504875
1761315099263349000,7.428348876953125,-0.000050600061513250694,-0.014040185138583183,-0.014418087899684906
1761315099273397000,7.43839697265625,-0.008270712569355965,-0.028490230441093445,-0.025913355872035027
1761315099283444000,7.44844384765625,-0.007833422161638737,-0.03170120343565941,-0.0322524793446064
1761315099293492000,7.458491943359375,-0.005281581077724695,-0.024475781247019768,-0.027636421844363213
1761315099303539000,7.4685390625,-0.005810484755784273,-0.0075785573571920395,-0.011565842665731907
1761315099313587000,7.4785869140625,-0.009999903850257397,0.0031550468411296606,0.006143113598227501
1761315099323634000,7.488634033203125,-0.01034504920244217,0.012891297228634357,0.018446385860443115
1761315099333682200,7.49868212890625,-0.01264229230582714,0.02706863544881344,0.02545742318034172
1761315099343730000,7.50872998046875,-0.013127253390848637,0.036317527294158936,0.030644994229078293
1761315099353777000,7.51877685546875,-0.013099823147058487,0.035230956971645355,0.028320055454969406
1761315099363825000,7.528824951171875,-0.0067902617156505585,0.009758887812495232,0.011650796979665756
1761315099373872000,7.5388720703125,0.003215500619262457,-0.002311623888090253,0.0017086841398850083
1761315099383919900,7.548919921875,0.00830799713730812,-0.007873103022575378,-0.004834702704101801
1761315099393966800,7.558966796875,0.013519004918634892,-0.014089453965425491,-0.005949501879513264
1761315099404015000,7.56901513671875,0.016770191490650177,-0.008842493407428265,-0.0022213426418602467
1761315099414062000,7.57906201171875,0.02207440882921219,-0.006283728405833244,-0.0014500912511721253
1761315099424109800,7.58910986328125,0.023244336247444153,-0.002796585438773036,-0.001532116555608809
1761315099434157800,7.59915771484375,0.02677915059030056,-0.01167210191488266,-0.0009329052991233766
1761315099444205000,7.609205078125,0.030669495463371277,-0.013977601192891598,0.003909786697477102
1761315099454253000,7.619253173828125,0.03418593481183052,-0.014066018164157867,0.015272962860763073
1761315099464300000,7.629300048828125,0.033971283584833145,-0.010518686845898628,0.024836640805006027
1761315099474348000,7.63934814453125,0.03471031039953232,-0.007501858286559582,0.03219841793179512
1761315099484395000,7.64939501953125,0.03918655216693878,-0.00848749466240406,0.028379177674651146
1761315099494443000,7.659443115234375,0.04844929277896881,-0.009592706337571144,0.023335682228207588
1761315099504490800,7.66949072265625,0.04476933553814888,-0.011375426314771175,0.017977401614189148
1761315099514538000,7.6795380859375,0.04879896342754364,-0.011742675676941872,0.012881976552307606
1761315099524586000,7.6895859375,0.05168396607041359,-0.011951201595366001,0.009495500475168228
1761315099534633000,7.699633056640625,0.0489792600274086,-0.005732454359531403,0.009610549546778202
1761315099544681000,7.709680908203125,0.04725486412644386,-0.00028762139845639467,0.009016131982207298
1761315099554728000,7.71972802734375,0.04426759481430054,-0.004514058120548725,0.005008873529732227
1761315099564776000,7.72977587890625,0.04048377647995949,-0.012660933658480644,0.0019462381023913622
1761315099574824000,7.739823974609375,0.03813353553414345,-0.02034495212137699,-0.00242161238566041
1761315099584871200,7.74987109375,0.03537024185061455,-0.021689316257834435,-0.0073476615361869335
1761315099594919000,7.7599189453125,0.024876054376363754,-0.0176229365170002,-0.01128301490098238
1761315099604966000,7.7699658203125,0.015894277021288872,-0.007501059677451849,-0.018204303458333015
1761315099615014100,7.78001416015625,0.007812915369868279,0.011767975986003876,-0.025782860815525055
1761315099625061000,7.79006103515625,-0.0010319749126210809,0.014041783288121223,-0.029037510976195335
1761315099635108900,7.80010888671875,-0.004080761689692736,0.00538357999175787,-0.0356818325817585
1761315099645156900,7.810156982421875,-0.0025041704066097736,0.0015909724170342088,-0.03207750990986824
1761315099655204000,7.8202041015625,0.0036828855518251657,-0.0011084076249971986,-0.02695172280073166
1761315099665252000,7.830252197265625,0.008097874000668526,-0.004772118292748928,-0.024385767057538033
1761315099675298800,7.840298828125,0.013003416359424591,-0.006032059900462627,-0.026730148121714592
1761315099685347000,7.85034716796875,0.011783954687416553,-0.018813101574778557,-0.0329694002866745
1761315099695394000,7.86039404296875,0.010595119558274746,-0.029258286580443382,-0.0415695458650589
1761315099705442000,7.870442138671875,0.016706274822354317,-0.030302777886390686,-0.049917224794626236
1761315099715489000,7.880489013671875,0.015858856961131096,-0.02154630422592163,-0.05511464923620224
1761315099725537000,7.890537109375,0.016675915569067,-0.01423672679811716,-0.06205485016107559
1761315099735585000,7.9005849609375,0.015447399578988552,-0.005020857788622379,-0.06853938102722168
1761315099745632000,7.910632080078125,0.014675615355372429,-0.02190050482749939,-0.07324039191007614
1761315099755679700,7.9206796875,0.02274099923670292,-0.0186447910964489,-0.06535769999027252
1761315099765727000,7.93072705078125,0.029256954789161682,0.009733321145176888,-0.038736741989851
1761315099775775000,7.94077490234375,0.022787071764469147,0.02959464304149151,-0.009710151702165604
1761315099785822000,7.950822021484375,0.012316587381064892,0.035954006016254425,0.014393586665391922
1761315099795870000,7.960869873046875,0.002234125742688775,0.042754922062158585,0.025961825624108315
1761315099805918000,7.97091796875,-0.001460743835195899,0.035770513117313385,0.016056997701525688
1761315099815965000,7.98096484375,-0.0015795208746567369,0.03279896080493927,0.0014346449170261621
1761315099826013000,7.991012939453125,-0.01008086372166872,0.033956900238990784,-0.018062356859445572
1761315099836060200,8.00106005859375,-0.02069941908121109,0.0238195788115263,-0.027690216898918152
1761315099846108000,8.01110791015625,-0.038000646978616714,0.022011293098330498,-0.030126476660370827
1761315099856155000,8.02115478515625,-0.04573339968919754,0.04367344453930855,-0.02947613224387169
1761315099866203100,8.031203125,-0.05620840936899185,0.05841031298041344,-0.02509283646941185
1761315099876250000,8.04125,-0.060922473669052124,0.0652029737830162,-0.02473677136003971
1761315099886297900,8.0512978515625,-0.04945090785622597,0.05934108793735504,-0.037219006568193436
1761315099896345900,8.061345947265625,-0.03184341639280319,0.03375956043601036,-0.05679403990507126
1761315099906393000,8.07139306640625,-0.013262275606393814,-0.0013198626693338156,-0.06317710131406784
1761315099916441000,8.081441162109375,0.0030099046416580677,-0.02611602284014225,-0.05651387572288513
1761315099926487800,8.09148779296875,0.011750399135053158,-0.04388383403420448,-0.04471740499138832
1761315099936536000,8.1015361328125,0.012954946607351303,-0.04095648601651192,-0.03381149470806122
1761315099946583000,8.1115830078125,0.013591175898909569,-0.026277409866452217,-0.031000260263681412
1761315099956631000,8.121631103515625,0.01452834252268076,-0.006196110509335995,-0.03676946461200714
1761315099966678800,8.1316787109375,0.012720055878162384,0.014157630503177643,-0.039920251816511154
1761315099976726000,8.14172607421875,0.00971574429422617,0.015132879838347435,-0.03990480676293373
1761315099986774000,8.15177392578125,-0.0017568873008713126,0.01050643716007471,-0.03537237271666527
1761315099996821000,8.161821044921876,-0.008349542506039143,0.009829461574554443,-0.03063593991100788
1761315100006869000,8.171868896484375,-0.01649109274148941,0.016766728833317757,-0.019275160506367683
1761315100016916000,8.181916015625,-0.035177428275346756,0.025606293231248856,-0.018062889575958252
1761315100026964000,8.1919638671875,-0.04932200908660889,0.06458006054162979,-0.015970177948474884
1761315100037011000,8.202010986328125,-0.07704924792051315,0.1193961650133133,-0.01834731549024582
1761315100047059000,8.212058837890625,-0.10203155875205994,0.14356862008571625,-0.029414614662528038
1761315100057107000,8.22210693359375,-0.11591248959302902,0.12759603559970856,-0.04686151444911957
1761315100067154000,8.23215380859375,-0.10226698219776154,0.11733754724264145,-0.05612745136022568
1761315100077202000,8.242201904296875,-0.07084860652685165,0.10093779861927032,-0.05064986273646355
1761315100087249200,8.252249267578126,-0.048532914370298386,0.09224417805671692,-0.03272705525159836
1761315100097297000,8.262296875,-0.032163530588150024,0.059067849069833755,-0.010259561240673065
1761315100107344000,8.27234375,-0.007189469411969185,-0.006776946131139994,0.022480541840195656
1761315100117392100,8.28239208984375,0.0182863287627697,-0.05187411606311798,0.055635832250118256
1761315100127439000,8.292439208984375,0.04140656068921089,-0.05590880662202835,0.07638878375291824
1761315100137486800,8.30248681640625,0.05705183371901512,-0.04968073591589928,0.07662766426801682
1761315100147534800,8.312534912109374,0.05903935059905052,-0.03121970407664776,0.07427183538675308
1761315100157582000,8.32258203125,0.05714957416057587,-0.01378079317510128,0.06725786626338959
1761315100167630000,8.332630126953125,0.04990444332361221,-0.010615093633532524,0.057371679693460464
1761315100177676800,8.3426767578125,0.04578373208642006,-0.014210627414286137,0.05537857115268707
1761315100187725300,8.352725341796875,0.04248514398932457,-0.01824078895151615,0.04620983824133873
1761315100197772300,8.362772216796875,0.033608295023441315,-0.025467010214924812,0.02899356745183468
1761315100207820300,8.3728203125,0.0315435454249382,-0.03656493499875069,0.005081844050437212
1761315100217867300,8.3828671875,0.02948092669248581,-0.045821815729141235,-0.007151652593165636
1761315100227915300,8.392915283203125,0.03056829608976841,-0.04855421930551529,-0.015796806663274765
1761315100237963300,8.40296337890625,0.029337115585803986,-0.03983156755566597,-0.01393126230686903
1761315100248010200,8.41301025390625,0.02665318176150322,-0.030973095446825027,-0.01495125237852335
1761315100258058200,8.423058349609375,0.021631525829434395,-0.04494350776076317,-0.015543805435299873
1761315100268105200,8.433105224609376,0.01356481108814478,-0.048159271478652954,-0.009191367775201797
1761315100278153200,8.4431533203125,0.0036397422663867474,-0.029647374525666237,-0.012693424709141254
1761315100288200200,8.4532001953125,-0.005914614535868168,-0.010823619551956654,-0.020082099363207817
1761315100298248200,8.463248291015624,-0.014188789762556553,0.01064891554415226,-0.020833376795053482
1761315100308295200,8.473295166015625,-0.014271614141762257,0.019037073478102684,-0.02742842771112919
1761315100318343200,8.48334326171875,-0.010062487795948982,0.017237575724720955,-0.035836294293403625
1761315100328391400,8.493391357421874,-0.002436792477965355,0.007399060297757387,-0.04357011243700981
1761315100338438400,8.5034384765625,0.00387356779538095,0.0015326491557061672,-0.05265362560749054
1761315100348486100,8.513486083984375,0.009161540307104588,-0.013896108604967594,-0.05031882971525192
1761315100358533000,8.523533203125,0.008560464717447758,-0.024624120444059372,-0.039560992270708084
1761315100368581400,8.533581298828125,0.002680205274373293,-0.014025005511939526,-0.018907111138105392
1761315100378628400,8.54362841796875,-0.010656372644007206,-0.009471531957387924,-0.020261595025658607
1761315100388676000,8.553676025390626,-0.016744891181588173,-0.00672315014526248,-0.03045537695288658
1761315100398723000,8.56372314453125,-0.01500877644866705,-0.0012394351651892066,-0.04081880301237106
1761315100408771300,8.573771240234375,-0.0116737000644207,0.0054389736615121365,-0.04700718820095062
1761315100418819000,8.583819091796874,-0.010290187783539295,0.009485647082328796,-0.05492503568530083
1761315100428866000,8.593865966796875,-0.009751963429152966,0.019405389204621315,-0.051970791071653366
1761315100438914300,8.603914306640625,-0.007216900121420622,0.029678532853722572,-0.025720544159412384
1761315100448961300,8.613961181640626,-0.014704111032187939,0.0405503548681736,0.02004268392920494
1761315100459009300,8.62400927734375,-0.017558753490447998,0.02418842725455761,0.06004070118069649
1761315100469056300,8.63405615234375,-0.007539675105363131,-0.0012354403734207153,0.07586440443992615
1761315100479104300,8.644104248046874,0.01732040010392666,-0.030980287119746208,0.07082889974117279
1761315100489151200,8.654151123046875,0.045089978724718094,-0.08686645328998566,0.0405716598033905
1761315100499199200,8.66419921875,0.06975031644105911,-0.11615537106990814,0.01679202914237976
1761315100509247200,8.674247314453124,0.07625056058168411,-0.07445825636386871,-0.008405469357967377
1761315100519294200,8.684294189453125,0.05976293236017227,0.00535428524017334,-0.03536784276366234
1761315100529342200,8.69434228515625,0.031621575355529785,0.06010381877422333,-0.05883774906396866
1761315100539389200,8.70438916015625,0.004450940992683172,0.0906396210193634,-0.07254637032747269
1761315100549437200,8.714437255859375,-0.014105699025094509,0.0942508652806282,-0.0664282888174057
1761315100559484200,8.724484130859375,-0.033430129289627075,0.06621310859918594,-0.03548156097531319
