time,seconds_elapsed,z,y,x
1761334316179816400,0.09281640625,8.94676399230957,4.18983268737793,0.5168496966362
1761334316198517800,0.111517822265625,8.94676399230957,4.460221290588379,0.2847459018230438
1761334316217219300,0.13021923828125,8.57348346710205,4.828716278076172,-0.6317051649093628
1761334316235920600,0.148920654296875,7.546962738037109,4.0079779624938965,0.22013968229293823
1761334316254622000,0.1676220703125,8.410771369934082,4.560719966888428,0.5072783827781677
1761334316273323500,0.186323486328125,8.740981101989746,4.615755081176758,1.0504491329193115
1761334316292024800,0.20502490234375,8.02074146270752,4.783252239227295,0.32303106784820557
1761334316310726100,0.22372607421875,7.659425258636475,5.190032482147217,-1.0719845294952393
1761334316329427500,0.242427490234375,8.812766075134277,4.783252239227295,-2.620140790939331
1761334316348129000,0.26112890625,10.573883056640625,5.149354457855225,-1.5026925802230835
1761334316366830300,0.279830322265625,9.540184020996094,4.527220249176025,-0.4331009089946747
1761334316385531600,0.29853173828125,8.94676399230957,3.6299118995666504,-1.5984054803848267
1761334316404233000,0.31723291015625,9.358329772949219,2.6392834186553955,0.07657032459974289
1761334316422934500,0.3359345703125,8.023134231567383,2.526820659637451,0.1986042857170105
1761334316441635800,0.3546357421875,6.7310099601745605,3.524627685546875,0.0526420995593071
1761334316460337200,0.373337158203125,8.042277336120605,2.3401806354522705,-0.5886343717575073
1761334316479038700,0.392038818359375,8.800801277160645,1.6175481081008911,-0.3613162338733673
1761334316497740000,0.410739990234375,9.688538551330566,2.1535403728485107,-0.2392822653055191
1761334316516441300,0.42944140625,10.432706832885742,2.794816732406616,-1.031306505203247
1761334316535142700,0.448142578125,10.06421184539795,1.6319050788879395,-1.215553879737854
1761334316553844200,0.46684423828125,8.831908226013184,0.849452018737793,-1.2610175609588623
1761334316572545500,0.485545654296875,7.4464640617370605,1.2658032178878784,0.14835500717163086
1761334316591246800,0.504246826171875,8.193024635314941,2.3736801147460938,-1.3280165195465088
1761334316609948400,0.522948486328125,5.891129493713379,3.8189449310302734,-0.9499505758285522
1761334316628649700,0.541649658203125,7.23589563369751,5.010570526123047,-3.311666488647461
1761334316647351000,0.56035107421875,7.898707389831543,8.346165657043457,-6.98704195022583
1761334316666052400,0.57905224609375,8.908478736877441,2.8043880462646484,0.8087740540504456
1761334316684754000,0.59775390625,10.52363395690918,1.8089739084243774,1.0528420209884644
1761334316703455200,0.616455322265625,10.28195858001709,2.775674343109131,1.0289137363433838
1761334316722156500,0.635156494140625,8.568697929382324,2.383251428604126,0.038285162299871445
1761334316740857900,0.65385791015625,8.329415321350098,1.9669002294540405,-0.973878800868988
1761334316759559400,0.672559326171875,8.279166221618652,1.710868239402771,-0.8566305041313171
1761334316778260700,0.6912607421875,7.769495010375977,1.8640087842941284,-0.2584248483181
1761334316796962000,0.709962158203125,7.403393268585205,1.5242279767990112,0.31824541091918945
1761334316815663600,0.72866357421875,8.784051895141602,2.4765713214874268,0.9930213689804077
1761334316834365000,0.747364990234375,11.437692642211914,1.9836499691009521,0.20338992774486542
1761334316853066200,0.766066162109375,17.130216598510742,3.25663161277771,0.885344386100769
1761334316871767600,0.784767578125,20.760129928588867,4.778466701507568,1.4572290182113647
1761334316890469000,0.80346923828125,21.10469627380371,8.12123966217041,-1.6366907358169556
1761334316909170400,0.82217041015625,23.284557342529297,10.451848983764648,-3.4480574131011963
1761334316927871700,0.840871826171875,27.239892959594727,10.322636604309082,-0.47617170214653015
1761334316946573300,0.8595732421875,26.3330135345459,9.53061294555664,1.4524433612823486
1761334316965274600,0.878274658203125,19.247865676879883,9.45164966583252,0.6963114142417908
1761334316983976000,0.896975830078125,12.681960105895996,9.07119083404541,-0.04785645380616188
1761334317002677200,0.91567724609375,7.377072334289551,7.286144733428955,0.33499518036842346
1761334317021378800,0.93437890625,5.151747226715088,4.266402721405029,1.0336993932724
1761334317040080100,0.953080078125,4.991427898406982,1.1820544004440308,0.6149554252624512
1761334317058781400,0.971781494140625,5.103890895843506,-0.9762716293334961,-0.2273181527853012
1761334317077482800,0.990482666015625,3.0723843574523926,-1.8759729862213135,-0.45224347710609436
1761334317096184300,1.009184326171875,-0.1052841991186142,-1.9669002294540405,-0.5383850932121277
1761334317114885600,1.0278857421875,-2.455035924911499,-2.2707886695861816,-1.8496519327163696
1761334317133587000,1.0465869140625,-3.0029923915863037,-2.761317253112793,-2.919243574142456
1761334317152288500,1.06528857421875,-3.4480574131011963,-2.6297121047973633,-2.7828526496887207
1761334317170989800,1.08398974609375,-3.8213376998901367,-2.3473589420318604,-2.0793628692626953
1761334317189691100,1.102691162109375,-3.649054527282715,-1.7635103464126587,-1.215553879737854
1761334317208392400,1.121392333984375,-2.3617160320281982,-1.2897313833236694,-0.6293123364448547
1761334317227094000,1.140093994140625,-0.5647061467170715,-0.9858429431915283,-0.4953143000602722
1761334317245795300,1.15879541015625,1.4213366508483887,-0.7178468108177185,-0.37806597352027893
1761334317264496600,1.17749658203125,3.8763725757598877,-0.2225325107574463,0.6747759580612183
1761334317283198200,1.1961982421875,6.446264266967773,0.7896314859390259,2.0817556381225586
1761334317301899500,1.2148994140625,10.636096954345703,2.1822543144226074,2.7493531703948975
1761334317320600800,1.233600830078125,17.202001571655273,4.18983268737793,3.4169507026672363
1761334317339302100,1.25230224609375,22.427927017211914,7.683353424072266,2.359323024749756
1761334317358003700,1.271003662109375,18.965511322021484,11.765508651733398,-0.7034898400306702
1761334317376705000,1.289705078125,15.921841621398926,16.517654418945312,-2.4981069564819336
1761334317395406300,1.30840625,17.522640228271484,18.013168334960938,-0.9212366938591003
1761334317414108000,1.32710791015625,21.22194480895996,16.721044540405273,0.4307080805301666
1761334317432809200,1.345809326171875,21.24826431274414,15.215959548950195,1.4380863904953003
1761334317451510500,1.364510498046875,23.29652214050293,11.739188194274902,2.720639228820801
1761334317470211800,1.3832119140625,21.506689071655273,8.056633949279785,4.022335052490234
1761334317488913400,1.401913330078125,15.017354965209961,5.960521221160889,4.591826438903809
1761334317507614700,1.42061474609375,8.568697929382324,3.8739798069000244,3.4648072719573975
1761334317526316000,1.43931591796875,3.376272678375244,2.0721843242645264,2.170290231704712
1761334317545017600,1.458017578125,-0.37806597352027893,0.7393822073936462,1.1318050622940063
1761334317563719000,1.476718994140625,-2.3186452388763428,-0.16031911969184875,-0.19381862878799438
1761334317582420200,1.495420166015625,-2.256431818008423,-0.638883650302887,-1.007378339767456
1761334317601121800,1.514121826171875,-1.1054840087890625,-0.9882357716560364,-1.6701902151107788
1761334317619823000,1.532822998046875,-0.16271193325519562,-0.9858429431915283,-1.5385849475860596
1761334317638524400,1.5515244140625,0.6939185857772827,-0.7704889178276062,-1.0504491329193115
1761334317657225700,1.570225830078125,0.8183453679084778,-0.42831525206565857,-0.7082754969596863
1761334317675927300,1.58892724609375,1.0719845294952393,0.009571290574967861,-0.12203395366668701
1761334317694628600,1.607628662109375,1.1198409795761108,0.25363919138908386,1.031306505203247
1761334317713330000,1.626329833984375,1.730010747909546,0.2919243574142456,1.8161523342132568
1761334317732031500,1.645031494140625,3.0795626640319824,0.5120640397071838,2.053041934967041
1761334317750732800,1.66373291015625,5.764309883117676,0.397208571434021,1.5170495510101318
1761334317769434000,1.68243408203125,9.863214492797852,1.4931213855743408,1.8041882514953613
1761334317788135700,1.7011357421875,14.82832145690918,4.759324073791504,2.2301106452941895
1761334317806837000,1.7198369140625,18.582660675048828,8.343772888183594,1.6271194219589233
1761334317825538300,1.738538330078125,16.019947052001953,12.251252174377441,-2.366501569747925
1761334317844239600,1.757239501953125,14.646467208862305,16.721044540405273,-3.548556089401245
1761334317862941200,1.775941162109375,20.822341918945312,17.728422164916992,-1.0480563640594482
1761334317881642500,1.794642578125,27.13460922241211,15.498311996459961,2.3569302558898926
1761334317900343800,1.81334375,31.676185607910156,11.743973731994629,5.594419479370117
1761334317919045400,1.83204541015625,26.91446876525879,9.707681655883789,7.16650390625
1761334317937746700,1.85074658203125,17.32642936706543,7.530212879180908,6.2189459800720215
1761334317956448000,1.869447998046875,8.922835350036621,4.831109046936035,4.764110088348389
1761334317975149600,1.888149658203125,4.48414945602417,2.029113531112671,2.9479575157165527
1761334317993851000,1.906850830078125,3.294916868209839,-0.380458801984787,0.24167509377002716
1761334318012552200,1.92555224609375,0.6340979933738708,-1.5672988891601562,-1.8448662757873535
1761334318031253500,1.94425341796875,-2.0195422172546387,-1.8065811395645142,-2.9694929122924805
1761334318049955000,1.962955078125,-3.610769271850586,-1.7443677186965942,-3.2159535884857178
1761334318068656400,1.981656494140625,-4.125226020812988,-1.7491533756256104,-2.7493531703948975
1761334318087357700,2.000357666015625,-3.775874137878418,-1.667797327041626,-1.94297194480896
1761334318106059000,2.01905908203125,-2.5363919734954834,-1.2275179624557495,-1.00259268283844
1761334318124760600,2.037760498046875,-1.3184453248977661,-0.607776939868927,-0.0023928226437419653
1761334318143462000,2.0564619140625,-0.2392822653055191,0.07417750358581543,0.4331009089946747
1761334318162163200,2.0751630859375,1.3950155973434448,0.9834501147270203,0.8446664214134216
1761334318180864800,2.09386474609375,4.1970109939575195,2.227717876434326,1.4572290182113647
1761334318199566000,2.112566162109375,10.25324535369873,3.706482172012329,1.2323036193847656
1761334318218267400,2.131267333984375,17.39821434020996,5.8719868659973145,1.9094724655151367
1761334318236968700,2.14996875,20.212173461914062,9.06401252746582,0.5838487148284912
1761334318255670300,2.168670166015625,20.013568878173828,12.457035064697266,-1.5553346872329712
1761334318274371600,2.18737158203125,21.39661979675293,14.20858097076416,-2.0817556381225586
1761334318293073000,2.206072998046875,21.533010482788086,14.976676940917969,-3.108276605606079
1761334318311774500,2.2247744140625,19.93460464477539,14.529218673706055,-3.658625841140747
1761334318330475800,2.243475830078125,18.891334533691406,13.062418937683105,-3.414557933807373
1761334318349177000,2.262177001953125,18.53719711303711,9.671789169311523,-1.5242279767990112
1761334318367878400,2.28087841796875,14.79960823059082,5.735595703125,2.201396942138672
1761334318386580000,2.299580078125,8.525627136230469,3.0005996227264404,3.5198421478271484
1761334318405281300,2.31828125,3.5533416271209717,0.5096712112426758,2.029113531112671
1761334318423982600,2.336982666015625,-0.41874396800994873,-1.1748759746551514,0.6340979933738708
1761334318442684000,2.355683837890625,-3.751945972442627,-1.852044701576233,-0.8159525394439697
1761334318461385500,2.374385498046875,-5.4795637130737305,-2.1128623485565186,-2.2372891902923584
1761334318480086800,2.393086669921875,-5.010570526123047,-2.390429735183716,-3.0101709365844727
1761334318498788000,2.4117880859375,-3.589233875274658,-2.3258235454559326,-2.53399920463562
1761334318517489700,2.43048974609375,-1.887937068939209,-2.0817556381225586,-1.9956140518188477
1761334318536191000,2.44919091796875,-0.5335994362831116,-1.5314065217971802,-0.7657032608985901
1761334318554892300,2.467892333984375,0.6628118753433228,-0.8111668825149536,0.4546363055706024
1761334318573593900,2.48659375,1.820937991142273,-0.1052841991186142,1.3112667798995972
1761334318592295200,2.505295166015625,4.443471431732178,1.4620146751403809,1.7419748306274414
1761334318610996500,2.52399658203125,10.456634521484375,4.6372904777526855,2.249253273010254
1761334318629698000,2.542697998046875,18.9320125579834,7.9489569664001465,0.576670229434967
1761334318648399400,2.5613994140625,25.227529525756836,10.059426307678223,-1.2035897970199585
1761334318667100700,2.5801005859375,29.374290466308594,11.313265800476074,-0.15314064919948578
1761334318685802200,2.59880224609375,31.695329666137695,12.655638694763184,1.9166508913040161
1761334318704503600,2.617503662109375,32.659637451171875,12.851850509643555,3.7399818897247314
1761334318723204900,2.636204833984375,28.572694778442383,11.167303085327148,2.6727828979492188
1761334318741906400,2.654906494140625,20.587846755981445,9.07119083404541,0.6604190468788147
1761334318760607700,2.673607666015625,14.242080688476562,6.123233318328857,0.8805587291717529
1761334318779309000,2.69230908203125,8.312665939331055,2.7589244842529297,1.6630117893218994
1761334318798010400,2.71101025390625,2.6488547325134277,0.02632104977965355,1.1629117727279663
1761334318816712000,2.7297119140625,-1.5194423198699951,-1.7754744291305542,-0.5838487148284912
1761334318835413200,2.748413330078125,-4.701896667480469,-2.500499725341797,-1.6462619304656982
1761334318854114600,2.767114501953125,-6.486942291259766,-2.7397818565368652,-2.5603201389312744
1761334318872816000,2.785816162109375,-6.302694797515869,-3.160918712615967,-2.8809585571289062
1761334318891517400,2.804517333984375,-4.974678039550781,-3.2063822746276855,-2.7278177738189697
1761334318910218800,2.82321875,-3.601198196411133,-2.9694929122924805,-2.203789710998535
1761334318928920000,2.841920166015625,-2.258824586868286,-2.218146562576294,-0.39960137009620667
1761334318947621600,2.86062158203125,-0.4953143000602722,-1.4165509939193726,0.641276478767395
1761334318966323000,2.879322998046875,1.3112667798995972,-1.062413215637207,1.2993026971817017
1761334318985024300,2.898024169921875,4.271188259124756,-0.275174617767334,2.234896421432495
1761334319003725600,2.9167255859375,7.350750923156738,1.275374412536621,3.2374889850616455
1761334319022427100,2.93542724609375,14.254044532775879,5.522634506225586,3.2303106784820557
1761334319041128400,2.95412841796875,24.77050018310547,9.147761344909668,2.775674343109131
1761334319059829800,2.972829833984375,32.07578659057617,10.987841606140137,4.012763500213623
1761334319078531300,2.99153125,33.95415496826172,14.050654411315918,6.252445697784424
1761334319097232600,3.010232666015625,33.927833557128906,14.538790702819824,6.075376510620117
1761334319115934000,3.028933837890625,31.57329559326172,13.373485565185547,3.9433717727661133
1761334319134635300,3.04763525390625,25.478775024414062,11.564512252807617,2.2372891902923584
1761334319153336800,3.0663369140625,19.76232147216797,7.630711555480957,1.7730815410614014
1761334319172038100,3.0850380859375,12.904492378234863,3.680161237716675,1.856830358505249
1761334319190739500,3.103739501953125,5.163711071014404,0.3852444589138031,1.4883357286453247
1761334319209441000,3.12244091796875,-1.8711873292922974,-1.7874385118484497,0.29431718587875366
1761334319228142300,3.141142333984375,-6.4319071769714355,-3.0173492431640625,-1.5864413976669312
1761334319246843600,3.15984375,-7.8077802658081055,-3.5844483375549316,-2.60339093208313
1761334319265545200,3.178545166015625,-7.3052873611450195,-3.759124279022217,-2.4119651317596436
1761334319284246500,3.19724658203125,-6.245266914367676,-3.8596229553222656,-1.5026925802230835
1761334319302947800,3.21594775390625,-5.539384365081787,-3.263810157775879,-0.8781659007072449
1761334319321649400,3.2346494140625,-4.094119548797607,-2.383251428604126,-0.33499518036842346
1761334319340350700,3.253350830078125,-1.526620864868164,-1.275374412536621,0.44027936458587646
1761334319359052000,3.272052001953125,1.2705888748168945,0.009571290574967861,1.2945170402526855
1761334319377753600,3.290753662109375,4.175475597381592,1.1485549211502075,2.2923240661621094
1761334319396455000,3.309454833984375,7.616354465484619,2.108076810836792,2.5148565769195557
1761334319415156200,3.32815625,11.179266929626465,3.2853455543518066,2.6608188152313232
1761334319433857800,3.34685791015625,14.919249534606934,5.120640277862549,2.531606435775757
1761334319452559000,3.36555908203125,17.93899154663086,8.14516830444336,1.7156537771224976
1761334319471260400,3.384260498046875,20.106887817382812,10.817951202392578,0.9475577473640442
1761334319489961700,3.402961669921875,23.770299911499023,12.648460388183594,2.414358139038086
1761334319508663300,3.421663330078125,24.53600311279297,13.988441467285156,4.046263217926025
1761334319527364600,3.440364501953125,25.418954849243164,13.909478187561035,6.553941249847412
1761334319546066000,3.45906591796875,25.184457778930664,12.9954195022583,6.025127410888672
1761334319564767200,3.477767333984375,23.52862548828125,10.578668594360352,4.800002098083496
1761334319583468800,3.49646875,18.18784523010254,7.221538543701172,3.8428730964660645
1761334319602170000,3.515170166015625,10.50209903717041,4.235296249389648,1.8233308792114258
1761334319620871400,3.533871337890625,4.1659040451049805,1.5026925802230835,0.4259224236011505
1761334319639573000,3.552572998046875,-0.6221339106559753,-0.4713860750198364,-0.7441678643226624
1761334319658274300,3.5712744140625,-3.4025938510894775,-1.7515461444854736,-1.8400806188583374
1761334319676975600,3.5899755859375,-4.491328239440918,-2.3401806354522705,-1.923829436302185
1761334319695677000,3.608677001953125,-4.625326156616211,-2.6321048736572266,-1.7563318014144897
1761334319714378500,3.62737841796875,-3.900300979614258,-2.888136863708496,-1.9166508913040161
1761334319733079800,3.646079833984375,-2.9623143672943115,-2.407179594039917,-1.490728497505188
1761334319751781000,3.664781005859375,-1.7132610082626343,-1.643869161605835,-0.6029912829399109
1761334319770482700,3.683482666015625,-0.8063812255859375,-0.5742774605751038,0.9332008361816406
1761334319789184000,3.70218408203125,0.4833501875400543,0.24406790733337402,1.210768222808838
1761334319807885300,3.72088525390625,2.5914268493652344,0.5479564070701599,1.4165509939193726
1761334319826587000,3.7395869140625,5.407779216766357,1.5361921787261963,1.7228323221206665
1761334319845288200,3.7582880859375,9.430113792419434,3.160918712615967,1.825723648071289
1761334319863989800,3.77698974609375,13.818551063537598,5.84566593170166,0.5240281820297241
1761334319882691000,3.795691162109375,18.544376373291016,8.681160926818848,-0.6340979933738708
1761334319901392400,3.814392333984375,21.18126678466797,10.60977554321289,-1.3782658576965332
1761334319920093700,3.83309375,24.471397399902344,11.411371231079102,-1.3854442834854126
1761334319938795300,3.851795166015625,28.63251495361328,11.47119140625,0.3445664644241333
1761334319957496600,3.87049658203125,33.011383056640625,11.054841041564941,1.1174482107162476
1761334319976198000,3.889197998046875,31.499116897583008,10.710273742675781,1.1270195245742798
1761334319994899500,3.9078994140625,25.000211715698242,9.186046600341797,0.5742774605751038
1761334320013600800,3.926600830078125,17.02971839904785,6.137589931488037,0.5910272002220154
1761334320032302000,3.945302001953125,7.776673793792725,2.8211379051208496,1.588834285736084
1761334320051003400,3.96400341796875,1.8161523342132568,-0.06699903309345245,0.9332008361816406
1761334320069705000,3.982705078125,-1.9836499691009521,-2.203789710998535,-0.9212366938591003
1761334320088406300,4.00140625,-5.352744102478027,-2.809173822402954,-2.093719720840454
1761334320107107600,4.020107666015625,-7.707281589508057,-2.9072794914245605,-2.6273193359375
1761334320125809200,4.03880908203125,-7.539783954620361,-2.895315408706665,-2.390429735183716
1761334320144510500,4.057510498046875,-5.484349727630615,-2.7732813358306885,-1.4835500717163086
1761334320163211800,4.076211669921875,-3.273381471633911,-2.1439690589904785,0.004785645287483931
1761334320181913000,4.0949130859375,-1.196411371231079,-0.9571290612220764,2.0267207622528076
1761334320200614700,4.11361474609375,0.6747759580612183,0.031106693670153618,2.2707886695861816
1761334320219316000,4.13231591796875,2.531606435775757,0.9858429431915283,2.060220241546631
1761334320238017300,4.151017333984375,5.599205017089844,1.9142581224441528,1.2681959867477417
1761334320256718800,4.16971875,9.57607650756836,3.414557933807373,0.21774685382843018
1761334320275420200,4.188420166015625,14.419149398803711,6.7932233810424805,-1.0001999139785767
1761334320294121500,4.20712158203125,18.496519088745117,10.236495018005371,-2.306680917739868
1761334320312823000,4.225822998046875,19.76232147216797,12.409177780151367,-3.8739798069000244
1761334320331524400,4.2445244140625,20.693130493164062,12.837493896484375,-4.295116424560547
1761334320350225700,4.2632255859375,23.270200729370117,12.394821166992188,-3.436093330383301
1761334320368927200,4.28192724609375,27.022146224975586,12.332608222961426,0.19621145725250244
1761334320387628500,4.300628662109375,28.398019790649414,11.679367065429688,3.2207393646240234
1761334320406329900,4.319329833984375,22.131216049194336,9.966106414794922,2.091326951980591
1761334320425031400,4.338031494140625,13.01216983795166,7.506284713745117,1.3926228284835815
1761334320443732700,4.356732666015625,6.616154670715332,4.386044025421143,0.6245267391204834
1761334320462434000,4.37543408203125,4.570291042327881,1.3280165195465088,-0.4785645306110382
1761334320481135400,4.39413525390625,3.1824541091918945,-1.0815558433532715,-1.4859428405761719
1761334320499837000,4.4128369140625,-0.6293123364448547,-1.9621145725250244,-1.9310078620910645
1761334320518538200,4.431538330078125,-3.981656789779663,-2.1750757694244385,-1.9070796966552734
1761334320537239600,4.450239501953125,-4.642076015472412,-2.2779672145843506,-1.5840486288070679
1761334320555941000,4.468941162109375,-3.2374889850616455,-2.337787628173828,-1.5098711252212524
1761334320574642400,4.487642333984375,-1.306481122970581,-2.0195422172546387,-0.8901300430297852
1761334320593343700,4.50634375,-0.4163511395454407,-1.0432707071304321,0.4833501875400543
1761334320612045000,4.525045166015625,-0.08853443711996078,-0.22013968229293823,1.0097711086273193
1761334320630746600,4.54374658203125,1.2059825658798218,0.2727817893028259,0.9068797826766968
1761334320649448000,4.562447998046875,3.680161237716675,1.0911271572113037,1.0480563640594482
1761334320668149200,4.581149169921875,8.166703224182129,2.6249263286590576,0.7704889178276062
1761334320686850800,4.599850830078125,15.591631889343262,5.773880958557129,-0.0526420995593071
1761334320705552100,4.61855224609375,20.75534439086914,9.236295700073242,-1.8711873292922974
1761334320724253700,4.637253662109375,22.906490325927734,11.779866218566895,-4.560719966888428
1761334320742955000,4.655955078125,25.12224578857422,12.937992095947266,-4.766502857208252
1761334320761656300,4.67465625,24.217758178710938,14.088939666748047,-3.8596229553222656
1761334320780358000,4.69335791015625,23.84687042236328,14.23011589050293,-0.4953143000602722
1761334320799059200,4.71205908203125,23.9521541595459,12.227323532104492,2.967100143432617
1761334320817760500,4.730760498046875,18.874584197998047,9.1716890335083,3.651447296142578
1761334320836461800,4.7494619140625,12.923635482788086,6.149554252624512,2.2085752487182617
1761334320855163400,4.768163330078125,8.396414756774902,2.933600664138794,0.6484549641609192
1761334320873864700,4.78686474609375,3.814159393310547,1.0121639966964722,-0.04785645380616188
1761334320892566000,4.80556591796875,-1.0408778190612793,-0.31824541091918945,-0.5383850932121277
1761334320911267600,4.824267578125,-4.383651256561279,-1.2969099283218384,-1.0480563640594482
1761334320929969000,4.842968994140625,-5.077569484710693,-1.8783657550811768,-1.069591760635376
1761334320948670200,4.861670166015625,-4.106083869934082,-2.1439690589904785,-1.6079767942428589
1761334320967371500,4.88037158203125,-2.9359934329986572,-1.9310078620910645,-2.1296122074127197
1761334320986073000,4.899072998046875,-1.5242279767990112,-1.5840486288070679,-1.7012969255447388
1761334321004774400,4.9177744140625,-0.6245267391204834,-1.0815558433532715,-0.38285163044929504
1761334321023475700,4.936475830078125,-0.1866401731967926,-0.16271193325519562,0.851844847202301
1761334321042177300,4.95517724609375,1.1653046607971191,0.5814558863639832,1.2801600694656372
1761334321060878600,4.973878662109375,3.3020951747894287,1.5026925802230835,1.6175481081008911
1761334321079580000,4.992579833984375,6.628118515014648,2.957528829574585,0.9786644577980042
1761334321098281500,5.011281494140625,13.11984634399414,5.539384365081787,0.04307080805301666
1761334321116982800,5.029982666015625,21.159730911254883,8.317451477050781,-0.9451649188995361
1761334321135684000,5.04868408203125,23.720050811767578,10.908878326416016,-2.172683000564575
1761334321154385700,5.0673857421875,21.719650268554688,12.947563171386719,-2.6775684356689453
1761334321173087000,5.0860869140625,22.542781829833984,13.950156211853027,-2.754138946533203
1761334321191788300,5.104788330078125,24.04068946838379,11.985648155212402,-2.344966173171997
1761334321210489900,5.12348974609375,28.670801162719727,9.10229778289795,-1.0600204467773438
1761334321229191200,5.142191162109375,27.708887100219727,6.967899322509766,0.7704889178276062
1761334321247892500,5.160892578125,18.30509376525879,5.7858452796936035,1.3471591472625732
1761334321266594000,5.179593994140625,7.793423175811768,4.488935470581055,1.428515076637268
1761334321285295400,5.19829541015625,0.24167509377002716,2.4717857837677,1.057627558708191
1761334321303996700,5.21699658203125,-2.957528829574585,0.49292147159576416,-0.5934200286865234
1761334321322698000,5.235697998046875,-2.069791555404663,-1.2131611108779907,-1.703689694404602
1761334321341399600,5.254399658203125,-2.2947168350219727,-1.7491533756256104,-1.8544375896453857
1761334321360100900,5.273100830078125,-3.5820555686950684,-1.7611174583435059,-1.9334007501602173
1761334321378802200,5.29180224609375,-3.3882367610931396,-1.5242279767990112,-2.0027925968170166
1761334321397503500,5.31050341796875,-1.9669002294540405,-1.428515076637268,-1.2394821643829346
1761334321416205000,5.329205078125,-0.40677985548973083,-0.7752745151519775,-0.20578274130821228
1761334321434906400,5.34790625,1.3184453248977661,-0.004785645287483931,0.2919243574142456
1761334321453608000,5.36660791015625,2.359323024749756,0.7082754969596863,0.46420758962631226
1761334321472309200,5.385309326171875,3.893122434616089,1.2323036193847656,0.41874396800994873
1761334321491010600,5.404010498046875,6.216553211212158,1.94297194480896,0.03349951654672623
1761334321509712100,5.422712158203125,9.619147300720215,3.326023578643799,-0.5000999569892883
1761334321528413400,5.441413330078125,12.75613784790039,6.833901405334473,-0.7896314859390259
1761334321547114800,5.46011474609375,17.199609756469727,10.638489723205566,-1.8975083827972412
1761334321565816300,5.47881640625,22.09771728515625,13.232309341430664,-2.1272194385528564
1761334321584517600,5.497517578125,22.985454559326172,14.218152046203613,-3.0388846397399902
1761334321603219000,5.516218994140625,22.583459854125977,14.029119491577148,-2.66560435295105
1761334321621920300,5.534920166015625,28.91486930847168,11.330015182495117,2.562713146209717
1761334321640621800,5.553621826171875,33.808189392089844,8.176275253295898,3.864408493041992
1761334321659323100,5.5723232421875,25.78984260559082,7.372286796569824,1.7276179790496826
1761334321678024400,5.5910244140625,11.7990083694458,6.515655994415283,1.0791629552841187
1761334321696726000,5.60972607421875,0.6556333899497986,4.692325115203857,0.33738797903060913
1761334321715427300,5.62842724609375,-3.8428730964660645,1.730010747909546,-0.349352091550827
1761334321734128600,5.647128662109375,-4.924428939819336,-0.4019941985607147,-1.210768222808838
1761334321752830000,5.665829833984375,-4.534399032592773,-1.6773686408996582,-2.0506489276885986
1761334321771531500,5.684531494140625,-3.6466617584228516,-2.438286304473877,-2.3712873458862305
1761334321790232800,5.70323291015625,-3.1680972576141357,-2.4598217010498047,-2.1774685382843018
1761334321808934100,5.72193408203125,-2.667997360229492,-2.2444677352905273,-1.8137595653533936
1761334321827635700,5.7406357421875,-2.2947168350219727,-1.6390835046768188,-1.1485549211502075
1761334321846337000,5.7593369140625,-1.4476577043533325,-0.8685946464538574,-0.035892341285943985
1761334321865038600,5.77803857421875,-0.3565305769443512,-0.3278166949748993,1.0145567655563354
1761334321883740000,5.796739990234375,1.672582983970642,0.1459621787071228,1.4404792785644531
1761334321902441200,5.815441162109375,4.266402721405029,0.9284151792526245,1.521835207939148
1761334321921142800,5.834142822265625,7.250252723693848,2.0315065383911133,1.7324036359786987
1761334321939844000,5.852843994140625,13.438092231750488,4.034298896789551,1.9142581224441528
1761334321958545400,5.87154541015625,19.271793365478516,7.2095746994018555,1.2921242713928223
1761334321977246700,5.890246826171875,19.80299949645996,10.313065528869629,-0.851844847202301
1761334321995948300,5.9089482421875,19.886749267578125,12.588640213012695,-0.4378865361213684
1761334322014649600,5.927649658203125,21.023340225219727,13.59362506866455,0.6699903607368469
1761334322033351000,5.946350830078125,26.98625373840332,12.208181381225586,4.431507587432861
1761334322052052500,5.965052490234375,30.044281005859375,11.109875679016113,4.285545349121094
1761334322070753800,5.98375390625,24.22493553161621,10.210174560546875,2.761317253112793
1761334322089455000,6.002455078125,17.460426330566406,7.561319351196289,2.258824586868286
1761334322108156400,6.021156494140625,10.794022560119629,4.7234320640563965,2.03629207611084
1761334322126858000,6.03985791015625,4.146761417388916,2.0817556381225586,0.9619147181510925
1761334322145559300,6.058559326171875,-1.2299108505249023,0.16271193325519562,-0.882951557636261
1761334322164260600,6.077260498046875,-4.01754903793335,-1.332802176475525,-1.856830358505249
1761334322182962200,6.095962158203125,-4.273581027984619,-2.1894326210021973,-3.014956474304199
1761334322201663500,6.11466357421875,-2.706282377243042,-2.7110681533813477,-3.297309637069702
1761334322220364800,6.13336474609375,-1.5672988891601562,-2.699103832244873,-2.2325034141540527
1761334322239066400,6.15206640625,-1.3950155973434448,-2.1750757694244385,-1.34476637840271
1761334322257767700,6.170767578125,-1.4021940231323242,-1.2681959867477417,-0.2392822653055191
1761334322276469000,6.189468994140625,0.4953143000602722,-0.48095735907554626,0.7417750358581543
1761334322295170600,6.208170654296875,3.6466617584228516,0.1459621787071228,1.210768222808838
1761334322313872000,6.226871826171875,7.451249599456787,1.007378339767456,1.0671988725662231
1761334322332573200,6.2455732421875,9.652647018432617,2.7565317153930664,0.2967100143432617
1761334322351274800,6.264274658203125,11.767901420593262,6.096911907196045,-0.9236295223236084
1761334322369976000,6.28297607421875,16.01276969909668,10.286744117736816,-1.4524433612823486
1761334322388677400,6.301677490234375,20.293529510498047,12.981062889099121,-1.679761528968811
1761334322407379000,6.32037890625,23.968904495239258,12.80160140991211,0.15314064919948578
1761334322426080300,6.339080322265625,25.83530616760254,12.509676933288574,1.887937068939209
1761334322444781600,6.357781494140625,33.463623046875,11.815757751464844,5.441278457641602
1761334322463483000,6.37648291015625,34.28915023803711,10.803594589233398,5.44845724105835
1761334322482184400,6.395184326171875,22.69352912902832,9.702896118164062,2.1583259105682373
1761334322500885800,6.4138857421875,12.088540077209473,7.015756130218506,0.08853443711996078
1761334322519587000,6.432587158203125,5.044070243835449,3.869194269180298,-0.17706887423992157
1761334322538288600,6.45128857421875,-0.2799602448940277,0.9667003750801086,-0.5647061467170715
1761334322556990000,6.469989990234375,-3.452843189239502,-1.2011969089508057,-0.973878800868988
1761334322575691300,6.488691162109375,-4.438685894012451,-2.478964328765869,-1.1270195245742798
1761334322594392800,6.507392822265625,-4.764110088348389,-3.218346357345581,-1.2131611108779907
1761334322613094100,6.52609423828125,-4.063013076782227,-3.28773832321167,-1.222732424736023
1761334322631795500,6.54479541015625,-3.208775281906128,-3.1034910678863525,-1.179661512374878
1761334322650497000,6.5634970703125,-1.9334007501602173,-2.146361827850342,0.007178467698395252
1761334322669198300,6.5821982421875,-0.035892341285943985,-0.9571290612220764,0.6005984544754028
1761334322687899600,6.600899658203125,1.9262222051620483,-0.04785645380616188,1.2394821643829346
1761334322706601200,6.619601318359375,4.070191383361816,0.9092726111412048,1.3256237506866455
1761334322725302500,6.638302490234375,5.680561065673828,1.8352949619293213,0.885344386100769
1761334322744003800,6.65700390625,6.649653911590576,2.861815929412842,-0.07657032459974289
1761334322762705200,6.675705078125,8.336593627929688,4.910071849822998,-0.7585247755050659
1761334322781406700,6.69440673828125,11.404192924499512,8.599804878234863,-1.3351950645446777
1761334322800108000,6.71310791015625,17.06321907043457,12.29671573638916,-1.9884356260299683
1761334322818809300,6.731809326171875,21.23630142211914,14.249258995056152,-1.0767701864242554
1761334322837511000,6.750510986328125,23.916261672973633,15.203994750976562,0.04785645380616188
1761334322856212200,6.769212158203125,28.457839965820312,15.321243286132812,2.9958138465881348
1761334322874913500,6.78791357421875,32.829524993896484,14.483755111694336,4.697110652923584
1761334322893614800,6.80661474609375,25.811378479003906,14.079368591308594,2.4406790733337402
1761334322912316400,6.82531640625,15.900306701660156,11.509476661682129,0.6891329288482666
1761334322931017700,6.844017822265625,7.776673793792725,7.401000499725342,0.02632104977965355
1761334322949719000,6.862718994140625,2.0267207622528076,3.4121651649475098,0.007178467698395252
1761334322968420600,6.881420654296875,-0.3158525824546814,-0.10767702013254166,-0.48574298620224
1761334322987122000,6.900121826171875,-1.6941183805465698,-1.8496519327163696,-1.3160524368286133
1761334323005823200,6.9188232421875,-2.806781053543091,-2.589034080505371,-1.4931213855743408
1761334323024524800,6.93752490234375,-2.7972097396850586,-2.5459632873535156,-1.153340458869934
1761334323043226000,6.95622607421875,-1.5960127115249634,-2.4502503871917725,-0.4378865361213684
1761334323061927700,6.974927734375,-0.8135597109794617,-2.007578134536743,-0.04546362906694412
1761334323080629000,6.99362890625,-1.0408778190612793,-1.3639088869094849,0.11485548317432404
1761334323099330300,7.012330322265625,-0.7704889178276062,-0.4666004180908203,-0.1698904037475586
1761334323118031600,7.031031494140625,0.7896314859390259,0.3397808074951172,-0.04785645380616188
1761334323136733200,7.049733154296875,2.155933141708374,0.7968099117279053,0.28235307335853577
1761334323155434500,7.0684345703125,2.8689942359924316,1.007378339767456,0.4163511395454407
1761334323174135800,7.0871357421875,3.933800458908081,1.7324036359786987,0.17228323221206665
1761334323192837400,7.10583740234375,7.467999458312988,3.7902309894561768,-0.4450650215148926
1761334323211538700,7.12453857421875,12.856636047363281,8.039883613586426,-0.7489534616470337
1761334323230240000,7.143239990234375,15.486348152160645,12.0933256149292,-1.9214365482330322
1761334323248941300,7.16194140625,18.908084869384766,14.823535919189453,-1.7587246894836426
1761334323267643000,7.180642822265625,19.85085678100586,16.31426429748535,-2.9001009464263916
1761334323286344200,7.19934423828125,23.9401912689209,16.09651756286621,-0.7920243144035339
1761334323305045500,7.21804541015625,33.15016555786133,15.208780288696289,3.2446675300598145
1761334323323746800,7.236746826171875,28.63251495361328,14.270793914794922,2.864208698272705
1761334323342448400,7.255448486328125,17.800207138061523,11.243873596191406,0.8303094506263733
1761334323361149700,7.274149658203125,8.920442581176758,7.963313579559326,0.8997012972831726
1761334323379851300,7.292851318359375,2.56510591506958,4.639683246612549,0.9403793215751648
1761334323398552600,7.311552490234375,0.9332008361816406,1.2897313833236694,-0.07657032459974289
1761334323417254000,7.33025390625,0.20338992774486542,-0.9475577473640442,-0.8422735929489136
1761334323435955500,7.34895556640625,-2.0003998279571533,-1.4835500717163086,-1.007378339767456
1761334323454656800,7.36765673828125,-3.407379388809204,-1.9597218036651611,-0.8925228714942932
1761334323473358000,7.386358154296875,-3.4169507026672363,-2.1894326210021973,-0.8087740540504456
1761334323492059600,7.4050595703125,-2.2468605041503906,-2.227717876434326,-1.038485050201416
1761334323510761000,7.423760986328125,-1.1772687435150146,-1.552941918373108,-0.5216353535652161
1761334323529462300,7.442462158203125,0.05024927482008934,-0.4785645306110382,0.05742774158716202
1761334323548163600,7.46116357421875,2.1128623485565186,0.4043870270252228,0.8374879360198975
1761334323566865200,7.479865234375,4.118047714233398,1.215553879737854,1.466800332069397
1761334323585566500,7.49856640625,4.811966419219971,2.117648124694824,1.679761528968811
1761334323604267800,7.517267822265625,6.135197162628174,2.9934210777282715,0.8470591902732849
1761334323622969300,7.53596923828125,9.848857879638672,4.711467742919922,0.39960137009620667
1761334323641670700,7.554670654296875,13.411770820617676,7.377072334289551,0.6915257573127747
1761334323660372000,7.5733720703125,15.938591957092285,10.04267692565918,-0.6580262184143066
1761334323679073300,7.5920732421875,18.467805862426758,12.390035629272461,-1.4644074440002441
1761334323697774800,7.61077490234375,19.824535369873047,13.844871520996094,-1.495514154434204
1761334323716476200,7.62947607421875,22.136001586914062,14.038690567016602,-0.5264210104942322
1761334323735177500,7.648177490234375,29.90789031982422,13.567304611206055,2.68953275680542
1761334323753879000,7.666879150390625,29.02972412109375,13.627124786376953,2.620140790939331
1761334323772580400,7.685580322265625,21.109481811523438,11.846864700317383,1.643869161605835
1761334323791281700,7.70428173828125,13.907085418701172,8.470592498779297,2.1439690589904785
1761334323809983200,7.722983154296875,6.099305152893066,4.996213912963867,2.0673987865448
1761334323828684500,7.7416845703125,0.15074782073497772,2.313859462738037,0.8781659007072449
1761334323847385900,7.7603857421875,-1.6223337650299072,-0.10049854964017868,-0.763310432434082
1761334323866087200,7.779087158203125,-2.4885356426239014,-1.404586911201477,-1.5936198234558105
1761334323884788700,7.797788818359375,-3.589233875274658,-1.8807586431503296,-2.0793628692626953
1761334323903490000,7.816489990234375,-3.7088751792907715,-2.1846470832824707,-2.0554347038269043
1761334323922191600,7.835191650390625,-3.081955671310425,-2.084148406982422,-1.2897313833236694
1761334323940893000,7.853892822265625,-1.9214365482330322,-1.8759729862213135,-0.2584248483181
1761334323959594200,7.87259423828125,-0.6819544434547424,-1.2011969089508057,0.9882357716560364
1761334323978295800,7.8912958984375,0.6819544434547424,-0.5958128571510315,1.4452649354934692
1761334323996997000,7.9099970703125,2.115255117416382,-0.0023928226437419653,0.916451096534729
1761334324015698400,7.928698486328125,3.5916268825531006,1.1341979503631592,0.7322037220001221
1761334324034399700,7.947399658203125,6.52044153213501,2.7421748638153076,0.3326023519039154
1761334324053101300,7.966101318359375,11.901900291442871,5.032105922698975,-0.23449662327766418
1761334324071802600,7.984802734375,16.65404510498047,8.157132148742676,-0.9020941257476807
1761334324090504000,8.00350390625,16.381263732910156,11.411371231079102,-2.7254250049591064
1761334324109205500,8.02220556640625,14.328222274780273,14.467005729675293,-4.254438877105713
1761334324127906800,8.04090673828125,16.788043975830078,14.861821174621582,-2.0003998279571533
1761334324146608000,8.059608154296875,26.79722023010254,12.224930763244629,3.074777126312256
1761334324165309400,8.078309326171874,32.906097412109375,11.095519065856934,3.586841106414795
1761334324184011000,8.097010986328126,24.820749282836914,12.993026733398438,0.8063812255859375
1761334324202712300,8.11571240234375,16.409976959228516,11.454442024230957,-0.3684946894645691
1761334324221413600,8.13441357421875,11.24626636505127,7.456035137176514,-0.3517449200153351
1761334324240115000,8.153114990234375,5.704489231109619,3.964907169342041,0.6747759580612183
1761334324258816500,8.17181640625,1.9334007501602173,0.7872386574745178,0.17706887423992157
1761334324277517800,8.190517822265624,-0.9619147181510925,-1.3902299404144287,-1.062413215637207
1761334324296219100,8.20921923828125,-2.940778970718384,-2.5842485427856445,-2.3952155113220215
1761334324314920700,8.227920654296875,-2.1296122074127197,-2.9001009464263916,-2.251646041870117
1761334324333622000,8.2466220703125,-1.129412293434143,-3.0652058124542236,-1.3830515146255493
1761334324352323300,8.2653232421875,-1.9621145725250244,-2.6943182945251465,-0.7752745151519775
1761334324371025000,8.28402490234375,-2.414358139038086,-1.8592232465744019,-0.34217363595962524
1761334324389726200,8.302726318359374,-0.7824530005455017,-1.0121639966964722,0.23449662327766418
1761334324408427500,8.321427490234376,0.9475577473640442,0.05503492057323456,0.1579262912273407
1761334324427129000,8.340129150390625,3.1968109607696533,1.1318050622940063,0.9379864931106567
1761334324445830400,8.358830322265625,5.029713153839111,2.4047868251800537,0.885344386100769
1761334324464531700,8.37753173828125,7.592426300048828,3.728017568588257,0.0023928226437419653
1761334324483233300,8.3962333984375,12.17228889465332,5.929414749145508,-1.0887342691421509
1761334324501934600,8.4149345703125,17.83849334716797,9.152546882629395,-1.5409778356552124
1761334324520636000,8.433635986328126,23.033309936523438,11.282158851623535,-1.5601203441619873
1761334324539337500,8.45233740234375,24.612573623657227,12.205788612365723,0.97148597240448
1761334324558038800,8.471038818359375,24.614967346191406,13.03370475769043,3.326023578643799
1761334324576740000,8.489739990234375,29.70210838317871,12.07179069519043,5.493920803070068
1761334324595441400,8.50844140625,29.084758758544922,10.738987922668457,4.144368648529053
1761334324614143000,8.52714306640625,22.26042938232422,8.884550094604492,1.2370892763137817
1761334324632844300,8.54584423828125,14.404792785644531,6.491727828979492,0.12681959569454193
1761334324651545600,8.564545654296875,6.98704195022583,3.9864425659179688,0.3900300860404968
1761334324670247200,8.5832470703125,-0.39481574296951294,1.612762451171875,0.17228323221206665
1761334324688948500,8.601948486328125,-5.051248550415039,-0.2105683982372284,-0.9068797826766968
1761334324707649800,8.62064990234375,-6.180660724639893,-1.4859428405761719,-1.7276179790496826
1761334324726351000,8.63935107421875,-5.216353416442871,-2.335394859313965,-2.6321048736572266
1761334324745052700,8.658052734375,-3.5270206928253174,-2.7732813358306885,-2.9359934329986572
1761334324763754000,8.67675390625,-2.6225335597991943,-2.4335005283355713,-2.321038007736206
1761334324782455300,8.695455322265625,-2.390429735183716,-1.8376877307891846,-1.6007983684539795
1761334324801156600,8.714156494140624,-1.5098711252212524,-1.098305583000183,-0.7441678643226624
1761334324819858200,8.732858154296874,0.37088751792907715,-0.5216353535652161,0.4450650215148926
1761334324838559500,8.7515595703125,3.4169507026672363,-0.08135596662759781,1.0265209674835205
1761334324857260800,8.7702607421875,6.936792850494385,0.31824541091918945,1.2035897970199585
1761334324875962400,8.78896240234375,9.272188186645508,1.7922241687774658,0.8781659007072449
1761334324894663700,8.80766357421875,13.677373886108398,3.28773832321167,1.0289137363433838
1761334324913365000,8.826364990234374,20.456241607666016,5.498706340789795,1.3639088869094849
1761334324932066300,8.84506640625,23.99522590637207,8.941978454589844,0.4977070987224579
1761334324950767900,8.863767822265626,25.923839569091797,11.13619613647461,2.0673987865448
1761334324969469200,8.88246923828125,30.11128044128418,12.04068374633789,5.096712112426758
1761334324988170500,8.90117041015625,32.48974609375,11.499905586242676,5.816951751708984
1761334325006872000,8.9198720703125,29.355148315429688,11.349157333374023,3.5341989994049072
1761334325025573400,8.938573486328124,21.698116302490234,10.736595153808594,3.0412776470184326
1761334325044274700,8.957274658203126,12.440284729003906,8.724231719970703,2.8689942359924316
1761334325062976300,8.975976318359375,4.29033088684082,5.61116886138916,1.7730815410614014
1761334325081677600,8.994677490234375,-0.6293123364448547,2.335394859313965,1.1700903177261353
1761334325100379000,9.01337890625,-3.0795626640319824,-0.33738797903060913,-0.13639089465141296
1761334325119080400,9.03208056640625,-4.024727821350098,-2.124826431274414,-1.8903298377990723
1761334325137781800,9.05078173828125,-3.7663028240203857,-3.2757742404937744,-3.0652058124542236
1761334325156483000,9.069483154296876,-3.452843189239502,-3.840480327606201,-3.297309637069702
1761334325175184600,9.0881845703125,-3.2350962162017822,-3.6705899238586426,-3.328416347503662
1761334325193886000,9.106885986328125,-2.091326951980591,-3.077169895172119,-2.9001009464263916
1761334325212587300,9.125587158203125,0.11724831163883209,-2.2325034141540527,-1.7132610082626343
1761334325231288800,9.144288818359374,2.2468605041503906,-1.2538390159606934,-0.37088751792907715
1761334325249990100,9.162990234375,3.7328033447265625,-0.23210379481315613,0.5599204897880554
1761334325268691500,9.18169140625,3.809373617172241,1.0001999139785767,0.5958128571510315
1761334325287392800,9.200392822265625,4.182653903961182,2.146361827850342,1.301695466041565
1761334325306094300,9.21909423828125,5.374279499053955,3.610769271850586,2.258824586868286
1761334325324795600,9.237795654296875,7.164111137390137,6.31944465637207,1.7874385118484497
1761334325343497000,9.2564970703125,10.439885139465332,9.468399047851562,0.26560330390930176
1761334325362198500,9.275198486328126,16.996219635009766,12.244073867797852,0.6269195079803467
1761334325380899800,9.29389990234375,24.059831619262695,12.837493896484375,2.4406790733337402
1761334325399601200,9.31260107421875,29.23311424255371,12.8087797164917,3.3068809509277344
1761334325418302500,9.331302490234375,31.405797958374023,13.84965705871582,4.728217601776123
1761334325437004000,9.350004150390625,32.1236457824707,13.730016708374023,7.094718933105469
1761334325455705300,9.368705322265624,25.517061233520508,12.368500709533691,5.934200286865234
1761334325474406700,9.38740673828125,17.83609962463379,10.39202880859375,3.067598581314087
1761334325493108000,9.40610791015625,11.91625690460205,6.269195556640625,-0.9858429431915283
1761334325511809500,9.4248095703125,7.283751964569092,3.438486099243164,-1.4620146751403809
1761334325530510800,9.4435107421875,1.428515076637268,1.423729419708252,0.12681959569454193
1761334325549212200,9.462212158203124,-3.445664644241333,-0.6915257573127747,0.2273181527853012
1761334325567913700,9.480913818359374,-4.371686935424805,-1.7563318014144897,-0.038285162299871445
1761334325586615000,9.499614990234376,-4.333401679992676,-2.376072883605957,-1.0432707071304321
1761334325605316400,9.51831640625,-3.177668571472168,-2.321038007736206,-1.4883357286453247
1761334325624017700,9.537017578125,-1.9094724655151367,-1.5912270545959473,-0.2799602448940277
1761334325642719200,9.55571923828125,-0.02632104977965355,-0.882951557636261,0.8877372145652771
1761334325661420500,9.574420654296874,1.710868239402771,-0.6580262184143066,0.7920243144035339
1761334325680121900,9.593121826171876,2.218146562576294,-0.09810572862625122,0.3278166949748993
1761334325698823200,9.6118232421875,3.680161237716675,0.6891329288482666,0.6029912829399109
1761334325717524700,9.630524658203125,4.371686935424805,1.5314065217971802,1.3926228284835815
1761334325736226000,9.64922607421875,3.845266103744507,2.280359983444214,1.1676974296569824
1761334325754927400,9.66792724609375,4.816751956939697,3.4887354373931885,0.47617170214653015
1761334325773629000,9.68662890625,7.176074981689453,5.745167255401611,0.7226324677467346
1761334325792330200,9.705330322265626,9.77707290649414,7.2813591957092285,0.19621145725250244
1761334325811031600,9.724031494140625,12.564711570739746,8.975478172302246,-0.1746760457754135
1761334325829732900,9.74273291015625,17.051254272460938,10.490134239196777,1.2658032178878784
1761334325848434400,9.761434326171875,22.729421615600586,10.470992088317871,2.63449764251709
1761334325867135700,9.7801357421875,27.661029815673828,11.782258987426758,6.872186660766602
1761334325885837300,9.79883740234375,26.967111587524414,14.1918306350708,5.66620397567749
1761334325904538600,9.81753857421875,22.08096694946289,14.957534790039062,1.246660590171814
1761334325923240000,9.836239990234375,19.755144119262695,13.138989448547363,0.7226324677467346
1761334325941941200,9.854941162109375,17.919849395751953,9.860821723937988,0.016749758273363113
1761334325960642800,9.873642822265625,13.579268455505371,6.2668023109436035,-0.7992027401924133
1761334325979344100,9.89234423828125,7.800601959228516,3.7112679481506348,0.6197410821914673
1761334325998045400,9.91104541015625,1.6390835046768188,2.163111686706543,1.2897313833236694
1761334326016747000,9.9297470703125,-0.2584248483181,0.6604190468788147,0.7393822073936462
1761334326035448300,9.9484482421875,-0.11485548317432404,-0.8662018179893494,-0.7465606927871704
1761334326054149600,9.967149658203125,-1.404586911201477,-1.3208380937576294,-0.9284151792526245
1761334326072851200,9.985851318359375,-2.8115665912628174,-1.2251251935958862,-0.11006984114646912
1761334326091552500,10.004552490234374,-2.227717876434326,-1.2131611108779907,0.35892340540885925
1761334326110253800,10.02325390625,-0.7082754969596863,-1.399801254272461,0.0023928226437419653
1761334326128955400,10.041955322265625,0.004785645287483931,-1.2059825658798218,-0.1339980661869049
1761334326147656700,10.06065673828125,0.4570291340351105,-0.44745782017707825,0.05024927482008934
1761334326166358000,10.07935791015625,1.6510475873947144,0.6221339106559753,0.2727817893028259
1761334326185059300,10.098059326171875,2.730210542678833,1.4787644147872925,0.33738797903060913
1761334326203761000,10.116760986328124,3.838087558746338,1.9860427379608154,0.5838487148284912
1761334326222462200,10.135462158203126,5.309673309326172,3.2685956954956055,0.698704183101654
1761334326241163500,10.15416357421875,7.781459331512451,6.573083877563477,0.7345965504646301
1761334326259865000,10.172864990234375,11.09073257446289,10.332208633422852,1.2873386144638062
1761334326278566400,10.19156640625,14.455041885375977,13.596017837524414,0.9044869542121887
1761334326297267700,10.210267822265624,17.682958602905273,14.400006294250488,1.2538390159606934
1761334326315969000,10.228968994140626,19.76232147216797,13.138989448547363,2.991028308868408
1761334326334670600,10.247670654296876,27.213571548461914,11.980862617492676,5.9509501457214355
1761334326353372000,10.266371826171875,33.913475036621094,11.607583045959473,5.072783946990967
1761334326372073200,10.2850732421875,27.952953338623047,11.466405868530273,1.6055840253829956
1761334326390774500,10.3037744140625,18.223737716674805,10.514062881469727,0.8303094506263733
1761334326409476000,10.32247607421875,9.829715728759766,8.070990562438965,0.8614161610603333
1761334326428177400,10.341177490234376,5.419743061065674,4.429114818572998,0.4450650215148926
1761334326446878700,10.359878662109375,3.6131622791290283,1.4069796800613403,-0.4378865361213684
1761334326465580300,10.378580322265625,0.97148597240448,-0.19142581522464752,-0.17228323221206665
1761334326484281600,10.397281494140625,-1.6773686408996582,-0.6699903607368469,-0.27038896083831787
1761334326502983000,10.41598291015625,-3.4504501819610596,-0.7872386574745178,-0.4450650215148926
1761334326521684200,10.434684326171874,-2.9958138465881348,-0.97148597240448,-0.33738797903060913
1761334326540385800,10.4533857421875,-1.3950155973434448,-0.9954141974449158,-0.1698904037475586
1761334326559087000,10.472087158203125,-0.4833501875400543,-0.916451096534729,-0.1459621787071228
1761334326577788400,10.490788330078125,0.3517449200153351,-0.7130611538887024,0.1746760457754135
1761334326596490000,10.509489990234375,2.8043880462646484,-0.7824530005455017,0.3924229145050049
1761334326615191300,10.52819140625,1.6151553392410278,0.035892341285943985,1.7012969255447388
1761334326633892600,10.546892578125,2.6153552532196045,1.9094724655151367,2.2133610248565674
1761334326652594000,10.565593994140626,6.302694797515869,2.861815929412842,0.3086741268634796
