time,seconds_elapsed,z,y,x
1761334316169374700,0.082374755859375,-0.3970620930194855,-0.14538581669330597,0.2767217457294464
1761334316188076000,0.101075927734375,-0.4453204274177551,-0.164322629570961,0.25900667905807495
1761334316206777600,0.119777587890625,-0.4770853817462921,-0.19364413619041443,0.32620179653167725
1761334316225479000,0.13847900390625,-0.3805687427520752,-0.31031930446624756,0.21868959069252014
1761334316244180200,0.15718017578125,-0.19364413619041443,0.04825831577181816,-0.033597562462091446
1761334316262881800,0.1758818359375,0.031154103577136993,0.5925388336181641,-0.09040798991918564
1761334316281583000,0.1945830078125,0.29077163338661194,0.9297361969947815,0.07757982611656189
1761334316300284400,0.213284423828125,0.3652971386909485,1.0861176252365112,0.007941242307424545
1761334316318985700,0.23198583984375,-0.02871064469218254,0.7385355234146118,-0.481361448764801
1761334316337687300,0.250687255859375,-0.001832594396546483,0.5290089249610901,-0.5430588126182556
1761334316356388600,0.269388671875,0.16737695038318634,0.3750709891319275,-0.13072505593299866
1761334316375090000,0.28808984375,-0.001221729558892548,0.6230821013450623,-0.021380268037319183
1761334316393791500,0.30679150390625,-0.18875721096992493,0.40378162264823914,-0.3689623177051544
1761334316412492800,0.325492919921875,-0.31154105067253113,-0.17226386070251465,-0.24923282861709595
1761334316431194000,0.344194091796875,-0.3249800503253937,0.13255766034126282,-0.4673115611076355
1761334316449895400,0.3628955078125,-0.3964512348175049,0.4935787320137024,-1.2412772178649902
1761334316468597000,0.381596923828125,-0.4422661066055298,0.3451386094093323,-1.740964651107788
1761334316487298300,0.40029833984375,-0.35185810923576355,0.3811796307563782,-1.9480477571487427
1761334316505999600,0.41899951171875,-0.28527384996414185,0.1380554437637329,-1.6890411376953125
1761334316524701200,0.437701171875,-0.2919933497905731,-0.13133592903614044,-1.1588104963302612
1761334316543402500,0.456402587890625,-0.21991132199764252,-0.14049890637397766,-0.5577195286750793
1761334316562103800,0.475103759765625,-0.25350889563560486,-0.235793799161911,-0.09651663154363632
1761334316580805000,0.49380517578125,-0.4673115611076355,-0.3280344009399414,0.20891575515270233
1761334316599506700,0.512506591796875,-0.43371400237083435,0.25473061203956604,-0.07330377399921417
1761334316618208000,0.5312080078125,-0.4477638900279999,-0.8894191384315491,-0.7287616729736328
1761334316636909300,0.549909423828125,-0.3084867000579834,-0.9498947262763977,-1.0983349084854126
1761334316655610600,0.568610595703125,0.4819723069667816,-0.10934479534626007,-1.147204041481018
1761334316674312200,0.587312255859375,0.4984656572341919,0.018325943499803543,-0.9657772183418274
1761334316693013500,0.606013427734375,0.3127627670764923,0.19792018830776215,-0.5784889459609985
1761334316711714800,0.62471484375,0.031154103577136993,0.3225366175174713,-0.2211330533027649
1761334316730416400,0.64341650390625,-0.16554436087608337,0.17653992772102356,-0.22907429933547974
1761334316749117700,0.66211767578125,-0.0818558782339096,-0.034208428114652634,-0.11178825795650482
1761334316767819000,0.680819091796875,-0.047036588191986084,-0.1337793916463852,0.16798780858516693
1761334316786520300,0.699520263671875,-0.07757982611656189,-0.4764745235443115,0.43004879355430603
1761334316805222000,0.718221923828125,-0.004886918235570192,-1.1496474742889404,0.6579013466835022
1761334316823923200,0.736923095703125,-0.29993459582328796,-1.0231984853744507,0.9260709881782532
1761334316842624500,0.75562451171875,-0.3744601011276245,-1.3481786251068115,1.1801908016204834
1761334316861325800,0.774325927734375,-0.26022839546203613,-0.8717040419578552,1.5961896181106567
1761334316880027400,0.79302734375,-0.37201663851737976,0.2205221801996231,2.1355831623077393
1761334316898728700,0.811728759765625,-0.4404335021972656,0.43004879355430603,2.03723406791687
1761334316917430000,0.830429931640625,-0.22479823231697083,-0.26022839546203613,1.655443549156189
1761334316936131600,0.849131591796875,-0.20952661335468292,-0.9847140312194824,1.8466442823410034
1761334316954833000,0.8678330078125,-0.3543015718460083,-0.9107993841171265,2.254701852798462
1761334316973534200,0.8865341796875,-0.3029889166355133,-0.546113133430481,1.8753548860549927
1761334316992235500,0.905235595703125,-0.27855435013771057,-0.564439058303833,1.0903936624526978
1761334317010937000,0.92393701171875,-0.5143481492996216,-1.0989457368850708,0.2516762912273407
1761334317029638400,0.942638427734375,-0.7385355234146118,-1.3713914155960083,-0.3536907136440277
1761334317048339700,0.961339599609375,-0.721431314945221,-0.9566142559051514,-0.5681042671203613
1761334317067041300,0.980041259765625,-0.5406153202056885,-0.22479823231697083,-0.25961753726005554
1761334317085742600,0.99874267578125,-0.48991355299949646,0.13439024984836578,0.23335035145282745
1761334317104444000,1.01744384765625,-0.6181951761245728,-0.11056652665138245,0.5308414697647095
1761334317123145200,1.036145263671875,-0.5992583632469177,-0.46486809849739075,0.5852084755897522
1761334317141846800,1.0548466796875,-0.3121519088745117,-0.5522217750549316,0.544891357421875
1761334317160548000,1.073548095703125,-0.015271619893610477,-0.3555232882499695,0.4043924808502197
1761334317179249400,1.09224951171875,0.15638138353824615,-0.0720820426940918,0.11667517572641373
1761334317197951000,1.110950927734375,0.18325942754745483,0.05558869615197182,-0.235793799161911
1761334317216652300,1.12965234375,0.12644900381565094,0.05070177838206291,-0.48991355299949646
1761334317235353600,1.148353515625,0.14538581669330597,0.06291907280683517,-0.5790998339653015
1761334317254055000,1.167054931640625,0.2706131041049957,0.20952661335468292,-0.5338957905769348
1761334317272756500,1.185756591796875,0.3426951467990875,0.42088583111763,-0.3842339515686035
1761334317291457800,1.204457763671875,0.23884813487529755,0.36224281787872314,-0.1649334877729416
1761334317310159000,1.2231591796875,0.07757982611656189,0.09101885557174683,0.15210533142089844
1761334317328860700,1.241860595703125,-0.03298669680953026,0.05558869615197182,0.627968966960907
1761334317347562000,1.26056201171875,-0.1331685185432434,0.7189878225326538,1.5277727842330933
1761334317366263300,1.27926318359375,-0.009773836471140385,0.7751874327659607,1.4062107801437378
1761334317384964600,1.297964599609375,0.21685700118541718,0.21197007596492767,0.18753549456596375
1761334317403666200,1.316666259765625,0.1380554437637329,-0.3194822669029236,-1.0091485977172852
1761334317422367500,1.335367431640625,0.10018182545900345,-0.7250964641571045,-1.6132938861846924
1761334317441068800,1.35406884765625,0.17898337543010712,-1.0512982606887817,-2.1606287956237793
1761334317459770400,1.372770263671875,0.370184063911438,-1.2773182392120361,-1.9572107791900635
1761334317478471700,1.3914716796875,0.5198459029197693,-1.3274091482162476,-0.9144645929336548
1761334317497173000,1.410173095703125,0.34636032581329346,-1.3029745817184448,0.03909534588456154
1761334317515874600,1.42887451171875,0.0873536616563797,-1.2131774425506592,0.5485565662384033
1761334317534575900,1.447575927734375,-0.17165300250053406,-1.0115920305252075,0.6010909676551819
1761334317553277200,1.466277099609375,-0.44959646463394165,-0.7171552777290344,0.2993237376213074
1761334317571978800,1.484978759765625,-0.6224712133407593,-0.3854556679725647,-0.19792018830776215
1761334317590680000,1.50368017578125,-0.6939423680305481,-0.027488915249705315,-0.5687150955200195
1761334317609381400,1.52238134765625,-0.6432406306266785,0.14538581669330597,-0.6414080262184143
1761334317628082700,1.541082763671875,-0.564439058303833,0.05436696484684944,-0.4831940531730652
1761334317646784300,1.5597841796875,-0.49480047821998596,-0.2254091054201126,-0.1637117564678192
1761334317665485600,1.578485595703125,-0.4056142270565033,-0.4880809485912323,0.1026252806186676
1761334317684187000,1.597186767578125,-0.2926042377948761,-0.5106829404830933,0.205861434340477
1761334317702888400,1.615888427734375,-0.3078758418560028,-0.24984370172023773,0.17165300250053406
1761334317721589800,1.63458984375,-0.4465421438217163,0.1484401375055313,0.0824667438864708
1761334317740291000,1.653291015625,-0.6108647584915161,0.47525280714035034,-0.0030543238390237093
1761334317758992600,1.67199267578125,-0.6322450637817383,0.8448259830474854,0.06536252796649933
1761334317777694000,1.69069384765625,-0.6084213256835938,0.9321796298027039,0.35246896743774414
1761334317796395300,1.709395263671875,-0.7745765447616577,0.5681042671203613,0.8179479241371155
1761334317815096600,1.7280966796875,-1.0207550525665283,0.6969966888427734,1.3280199766159058
1761334317833798000,1.7467978515625,-0.7715222239494324,1.0482439994812012,0.9016364216804504
1761334317852499500,1.76549951171875,-0.48441576957702637,0.031154103577136993,-0.4477638900279999
1761334317871200800,1.78420068359375,-0.47525280714035034,-1.8588615655899048,-1.2479966878890991
1761334317889902000,1.802902099609375,-0.20830489695072174,-3.2449138164520264,-1.240666389465332
1761334317908603600,1.821603759765625,0.35063639283180237,-2.4972152709960938,-0.38301220536231995
1761334317927305000,1.840304931640625,0.5955931544303894,-1.2034035921096802,0.42821621894836426
1761334317946006300,1.85900634765625,0.3426951467990875,-0.3842339515686035,0.5656607747077942
1761334317964707800,1.877707763671875,-0.10506874322891235,-0.040317077189683914,0.2205221801996231
1761334317983409200,1.8964091796875,-0.5558869242668152,0.30115634202957153,-0.014660755172371864
1761334318002110500,1.9151103515625,-0.6530144214630127,0.8045089244842529,0.18264856934547424
1761334318020811800,1.933811767578125,-0.564439058303833,1.0415244102478027,0.44898560643196106
1761334318039513300,1.952513427734375,-0.4514290690422058,0.6395754218101501,0.5693259835243225
1761334318058214700,1.971214599609375,-0.3347539007663727,0.19608759880065918,0.535728394985199
1761334318076916000,1.989916015625,-0.20708316564559937,0.07391463965177536,0.3426951467990875
1761334318095617500,2.008617431640625,-0.07330377399921417,0.29993459582328796,0.08674279600381851
1761334318114318800,2.02731884765625,0.02932151034474373,0.6866120100021362,-0.13133592903614044
1761334318133020200,2.046020263671875,0.056810423731803894,1.1514800786972046,-0.287106454372406
1761334318151721500,2.064721435546875,0.05742128938436508,1.3384047746658325,-0.4453204274177551
1761334318170423000,2.083423095703125,-0.001221729558892548,1.0213658809661865,-0.5430588126182556
1761334318189124400,2.102124267578125,-0.16126830875873566,0.4465421438217163,-0.49663305282592773
1761334318207825700,2.12082568359375,-0.22174391150474548,-0.37629270553588867,-0.18264856934547424
1761334318226527000,2.13952685546875,-0.27550002932548523,-0.19853104650974274,0.5510000586509705
1761334318245228500,2.158228515625,-0.29443681240081787,0.7825177907943726,0.8808670043945312
1761334318263929900,2.176929931640625,-0.10140355676412582,1.4288127422332764,0.4269944727420807
1761334318282631200,2.195631103515625,-0.023823726922273636,1.5625921487808228,0.0409279391169548
1761334318301332700,2.214332763671875,0.015271619893610477,0.9602794051170349,-0.13683371245861053
1761334318320034000,2.233033935546875,0.18142683804035187,0.22785256803035736,-0.5131264328956604
1761334318338735400,2.2517353515625,0.4269944727420807,-0.46425724029541016,-0.8576541543006897
1761334318357437000,2.27043701171875,0.6927206516265869,-1.053130865097046,-0.6493492722511292
1761334318376138200,2.28913818359375,0.6731730103492737,-0.9303470849990845,-0.08857539296150208
1761334318394839600,2.307839599609375,0.37751442193984985,-0.37201663851737976,0.21135921776294708
1761334318413540900,2.326540771484375,0.26450446248054504,0.2260199636220932,0.2932150959968567
1761334318432242400,2.345242431640625,0.18325942754745483,0.6029235124588013,0.29565855860710144
1761334318450943700,2.36394384765625,0.09712749719619751,0.6346884965896606,0.14172062277793884
1761334318469645000,2.38264501953125,0.10140355676412582,0.35613417625427246,-0.1490510106086731
1761334318488346600,2.4013466796875,0.25411975383758545,-0.007330377586185932,-0.35124725103378296
1761334318507048000,2.4200478515625,0.4257727563381195,-0.29077163338661194,-0.4105011224746704
1761334318525749200,2.438749267578125,0.6206386089324951,-0.38301220536231995,-0.3836230933666229
1761334318544450800,2.457450927734375,0.758694052696228,-0.2052505612373352,-0.37690356373786926
1761334318563152100,2.476152099609375,0.7898481488227844,0.20341797173023224,-0.46364638209342957
1761334318581853400,2.494853515625,0.7660244107246399,0.767857015132904,-0.7086031436920166
1761334318600555000,2.513554931640625,0.6640099883079529,0.9315688014030457,-0.9706641435623169
1761334318619256300,2.53225634765625,0.36712974309921265,0.4679224193096161,-1.0091485977172852
1761334318637957600,2.55095751953125,0.18081597983837128,-0.0360410213470459,-0.7745765447616577
1761334318656659200,2.5696591796875,0.37812530994415283,0.07941242307424545,-0.6707295179367065
1761334318675360500,2.588360595703125,0.6291907429695129,0.4422661066055298,-0.8106175661087036
1761334318694061800,2.607061767578125,0.5845975875854492,0.40927940607070923,-0.9541707634925842
1761334318712763100,2.62576318359375,0.25961753726005554,0.15699224174022675,-0.7024945020675659
1761334318731464700,2.644464599609375,0.08063415437936783,0.5076286196708679,-0.27366742491722107
1761334318750166000,2.663166015625,0.12583814561367035,0.4728093445301056,-0.029932374134659767
1761334318768867300,2.681867431640625,0.023212861269712448,-0.10384701192378998,0.40744680166244507
1761334318787568600,2.700568603515625,-0.1948658674955368,-0.5253437161445618,0.8735366463661194
1761334318806270200,2.719270263671875,-0.34208428859710693,-0.35613417625427246,1.043357014656067
1761334318824971500,2.737971435546875,-0.2809978127479553,0.011606430634856224,0.9957095980644226
1761334318843672800,2.7566728515625,-0.1997527778148651,0.07635809481143951,0.7947350740432739
1761334318862374400,2.77537451171875,-0.13561198115348816,-0.25900667905807495,0.471587598323822
1761334318881075700,2.79407568359375,0.008552107028663158,-0.5888736248016357,0.14721840620040894
1761334318899777000,2.812777099609375,0.2052505612373352,-0.6872228980064392,-0.09712749719619751
1761334318918478300,2.831478271484375,0.42882707715034485,-0.6267472505569458,-0.3072649836540222
1761334318937180000,2.850179931640625,0.44898560643196106,-0.5790998339653015,-0.4874700903892517
1761334318955881200,2.868881103515625,0.39400777220726013,-0.516791582107544,-0.6065887212753296
1761334318974582500,2.88758251953125,0.4685332775115967,-0.32070401310920715,-0.6927206516265869
1761334318993284000,2.9062841796875,0.5283980369567871,-0.024434590712189674,-0.6267472505569458
1761334319011985400,2.9249853515625,0.43310311436653137,-0.09712749719619751,-0.535728394985199
1761334319030686700,2.943686767578125,0.23396120965480804,-0.8216131329536438,-0.5699368119239807
1761334319049388000,2.962387939453125,0.23335035145282745,-0.759304940700531,-0.337808221578598
1761334319068089600,2.981089599609375,0.3659079968929291,0.037262752652168274,0.07330377399921417
1761334319086791000,2.999791015625,0.08796452730894089,0.11911863088607788,0.12217295914888382
1761334319105492200,3.0184921875,-0.2412915825843811,0.12705987691879272,0.05803215503692627
1761334319124193800,3.03719384765625,-0.3182605504989624,0.5962040424346924,0.2926042377948761
1761334319142895000,3.05589501953125,-0.37140578031539917,0.6817250847816467,0.5296197533607483
1761334319161596400,3.074596435546875,-0.4056142270565033,0.4514290690422058,0.9608902931213379
1761334319180298000,3.093298095703125,-0.5064069032669067,0.1490510106086731,1.4758492708206177
1761334319198999300,3.111999267578125,-0.6243038177490234,0.2657261788845062,1.6377284526824951
1761334319217700600,3.13070068359375,-0.6750055551528931,0.7073814272880554,1.303585410118103
1761334319236402200,3.149402099609375,-0.56382817029953,0.759304940700531,0.7605266571044922
1761334319255103500,3.168103515625,-0.3402516841888428,0.18203771114349365,0.3530798554420471
1761334319273804800,3.1868046875,-0.1185077652335167,-0.6120865345001221,0.17898337543010712
1761334319292506400,3.20550634765625,0.059864748269319534,-1.1508692502975464,0.09529490768909454
1761334319311207700,3.224207763671875,0.20341797173023224,-1.2956441640853882,-0.15088360011577606
1761334319329909000,3.242908935546875,0.31031930446624756,-1.1270455121994019,-0.5192350745201111
1761334319348610300,3.2616103515625,0.337808221578598,-0.9474512934684753,-0.7415898442268372
1761334319367312000,3.280311767578125,0.268169641494751,-0.9169080257415771,-0.7654135823249817
1761334319386013200,3.29901318359375,0.13194678723812103,-0.7483093738555908,-0.6792816519737244
1761334319404714500,3.317714599609375,0.01893680728971958,-0.28527384996414185,-0.4557051360607147
1761334319423416000,3.336416015625,-0.09101885557174683,0.08857539296150208,-0.08979712426662445
1761334319442117400,3.355117431640625,-0.2626718580722809,0.17776164412498474,0.31642794609069824
1761334319460818700,3.373818603515625,-0.3915643095970154,0.14233149588108063,0.5198459029197693
1761334319479520000,3.39252001953125,-0.2761108875274658,-0.12950333952903748,0.37323838472366333
1761334319498221600,3.4112216796875,-0.13561198115348816,-0.5137372612953186,0.3390299379825592
1761334319516923000,3.4299228515625,-0.09590577334165573,-1.0800089836120605,0.0873536616563797
1761334319535624200,3.448624267578125,-0.21991132199764252,-0.8991929292678833,-0.3029889166355133
1761334319554325800,3.46732568359375,-0.33597561717033386,-0.12950333952903748,-0.5131264328956604
1761334319573027000,3.486027099609375,-0.3995055556297302,0.4783071279525757,-0.28954991698265076
1761334319591728400,3.504728271484375,-0.5693259835243225,0.7990111112594604,0.19303326308727264
1761334319610429700,3.5234296875,-0.7165443897247314,0.7312051653862,0.4776962697505951
1761334319629131300,3.54213134765625,-0.7800742983818054,0.646905779838562,0.554665207862854
1761334319647832600,3.56083251953125,-0.7605266571044922,0.8124501705169678,0.4257727563381195
1761334319666534000,3.579533935546875,-0.6352993845939636,0.8002328872680664,0.20769402384757996
1761334319685235500,3.5982353515625,-0.5803215503692627,0.45326167345046997,0.053756099194288254
1761334319703936800,3.616936767578125,-0.5442805290222168,0.11178825795650482,-0.06108647957444191
1761334319722638000,3.63563818359375,-0.35246896743774414,0.02871064469218254,-0.17287473380565643
1761334319741339600,3.654339599609375,-0.14538581669330597,0.0665842592716217,-0.25411975383758545
1761334319760041000,3.673041015625,-0.04153880476951599,0.043982263654470444,-0.29443681240081787
1761334319778742300,3.6917421875,-0.15577052533626556,-0.04153880476951599,-0.3799578845500946
1761334319797443800,3.71044384765625,-0.27366742491722107,-0.11178825795650482,-0.5015199780464172
1761334319816145200,3.729145263671875,-0.27488914132118225,0.05497783049941063,-0.5497782826423645
1761334319834846500,3.747846435546875,-0.3042106628417969,0.23273947834968567,-0.4868592321872711
1761334319853548000,3.766548095703125,-0.411722868680954,0.24434591829776764,-0.23762640357017517
1761334319872249300,3.785249267578125,-0.5369501113891602,-0.03176496922969818,-0.01588248461484909
1761334319890950700,3.80395068359375,-0.6505709886550903,-0.21197007596492767,0.03909534588456154
1761334319909652200,3.82265234375,-0.7061597108840942,-0.05253437161445618,-0.33536475896835327
1761334319928353500,3.841353515625,-0.6206386089324951,-0.20463970303535461,-0.7525854110717773
1761334319947054800,3.860054931640625,-0.5137372612953186,-0.8350521326065063,-0.8784235715866089
1761334319965756200,3.878756103515625,-0.3133736252784729,-0.8796452879905701,-0.35674503445625305
1761334319984457700,3.897457763671875,-0.16310089826583862,-0.4312705397605896,0.35246896743774414
1761334320003159000,3.916158935546875,-0.1233946830034256,-0.11484257876873016,0.8002328872680664
1761334320021860400,3.9348603515625,-0.15088360011577606,0.09651663154363632,1.099556565284729
1761334320040561700,3.953561767578125,-0.3744601011276245,0.33597561717033386,1.0225876569747925
1761334320059263200,3.97226318359375,-0.5925388336181641,0.905912458896637,0.8466585874557495
1761334320077964500,3.990964599609375,-0.5564978122711182,1.2663227319717407,0.8283326625823975
1761334320096665900,4.009665771484375,-0.4520399272441864,0.9847140312194824,0.80389803647995
1761334320115367400,4.028367431640625,-0.37140578031539917,0.1637117564678192,0.5974257588386536
1761334320134068700,4.04706884765625,-0.2315177470445633,-0.6224712133407593,0.29443681240081787
1761334320152770000,4.06577001953125,0.0054977829568088055,-0.8240565657615662,0.0513126403093338
1761334320171471600,4.0844716796875,0.19303326308727264,-0.6365211009979248,-0.16065743565559387
1761334320190173000,4.1031728515625,0.09407317638397217,-0.4404335021972656,-0.32620179653167725
1761334320208874200,4.121874267578125,-0.02871064469218254,-0.23335035145282745,-0.46364638209342957
1761334320227575800,4.140575927734375,-0.10018182545900345,0.010995565913617611,-0.6004800796508789
1761334320246277000,4.159277099609375,-0.12095122784376144,0.28405213356018066,-0.5681042671203613
1761334320264978400,4.177978515625,-0.12278381735086441,0.3915643095970154,-0.29138249158859253
1761334320283680000,4.196679931640625,-0.17898337543010712,0.21807873249053955,0.06536252796649933
1761334320302381300,4.21538134765625,-0.2981020212173462,0.15088360011577606,0.3799578845500946
1761334320321082600,4.23408251953125,-0.33719736337661743,0.15699224174022675,0.23396120965480804
1761334320339784200,4.2527841796875,-0.22479823231697083,0.0256563201546669,-0.277332603931427
1761334320358485500,4.271485595703125,0.17898337543010712,-0.6426297426223755,-0.7318159937858582
1761334320377186800,4.290186767578125,0.4105011224746704,-1.3628393411636353,-0.7519745230674744
1761334320395888000,4.30888818359375,0.23884813487529755,-0.9950987100601196,-0.23945899307727814
1761334320414590200,4.327590087890625,0.15515965223312378,-0.06963858753442764,0.033597562462091446
1761334320433291000,4.346291015625,-0.006719512399286032,0.5351175665855408,-0.17165300250053406
1761334320451992300,4.364992431640625,-0.2370155304670334,0.46486809849739075,-0.41844236850738525
1761334320470694400,4.3836943359375,-0.36163195967674255,0.1740964651107788,-0.20891575515270233
1761334320489395200,4.402395263671875,-0.2926042377948761,0.14538581669330597,0.347582072019577
1761334320508096500,4.421096435546875,-0.20402882993221283,0.15699224174022675,0.6078104376792908
1761334320526797800,4.4397978515625,-0.17898337543010712,0.0720820426940918,0.40255987644195557
1761334320545499400,4.45849951171875,-0.12095122784376144,0.034208428114652634,0.0665842592716217
1761334320564200700,4.47720068359375,0.09285144507884979,0.07269290834665298,-0.08918625861406326
1761334320582902000,4.495902099609375,0.3494146466255188,0.08307760953903198,-0.007330377586185932
1761334320601603600,4.514603515625,0.38179048895835876,0.020158538594841957,0.11667517572641373
1761334320620305000,4.533304931640625,0.3042106628417969,-0.01282816007733345,0.0665842592716217
1761334320639006200,4.552006103515625,0.2877173125743866,0.13561198115348816,-0.08307760953903198
1761334320657707500,4.57070751953125,0.24801109731197357,0.43004879355430603,-0.1698204129934311
1761334320676409000,4.5894091796875,0.21868959069252014,0.4740310609340668,-0.13500112295150757
1761334320695110400,4.6081103515625,0.11056652665138245,0.5277871489524841,0.17776164412498474
1761334320713812000,4.62681201171875,-0.05497783049941063,0.7031053900718689,0.4819723069667816
1761334320732513300,4.64551318359375,0.03481929376721382,0.6524035930633545,0.37629270553588867
1761334320751214600,4.664214599609375,0.2822195291519165,0.43493571877479553,0.29016077518463135
1761334320769916200,4.682916259765625,0.5210676789283752,-0.4972439408302307,-0.003665188793092966
1761334320788617500,4.701617431640625,0.5174024701118469,-1.3976585865020752,-0.40927940607070923
1761334320807318800,4.72031884765625,0.25350889563560486,-1.0604612827301025,-0.4428769648075104
1761334320826020000,4.73902001953125,-0.009162971749901772,0.12950333952903748,-0.43921178579330444
1761334320844721700,4.7577216796875,-0.19425499439239502,0.8869756460189819,-0.3811796307563782
1761334320863423000,4.776423095703125,-0.26939135789871216,0.8600975871086121,0.007941242307424545
1761334320882124300,4.795124267578125,-0.42088583111763,0.28405213356018066,0.5290089249610901
1761334320900825900,4.813825927734375,-0.5534434914588928,-0.08368847519159317,0.6682860851287842
1761334320919527200,4.832527099609375,-0.6084213256835938,-0.0054977829568088055,0.3591884970664978
1761334320938228500,4.851228515625,-0.647516667842865,0.17715078592300415,-0.013439024798572063
1761334320956929800,4.8699296875,-0.5656607747077942,0.23945899307727814,-0.17776164412498474
1761334320975631400,4.88863134765625,-0.32620179653167725,0.014049889519810677,-0.164322629570961
1761334320994332700,4.907332763671875,-0.08124501258134842,-0.379347026348114,-0.03176496922969818
1761334321013034200,4.9260341796875,0.020769402384757996,-0.6304124593734741,0.07024945318698883
1761334321031735600,4.944735595703125,-0.03848448023200035,-0.7348703145980835,-0.027488915249705315
1761334321050436900,4.963436767578125,-0.10751219838857651,-0.5968148708343506,-0.20952661335468292
1761334321069138400,4.982138427734375,-0.20952661335468292,-0.14599667489528656,-0.3640754222869873
1761334321087839700,5.00083984375,-0.2864955961704254,0.037262752652168274,-0.4379900395870209
1761334321106541000,5.019541015625,-0.40744680166244507,-0.4269944727420807,-0.14660754799842834
1761334321125242600,5.03824267578125,-0.46486809849739075,-0.646905779838562,0.5962040424346924
1761334321143944000,5.05694384765625,-0.4105011224746704,-0.1233946830034256,0.9767727851867676
1761334321162645200,5.075645263671875,-0.3897317349910736,0.21991132199764252,0.39278605580329895
1761334321181346600,5.0943466796875,-0.5345066785812378,-0.21380266547203064,-0.3799578845500946
1761334321200048000,5.113048095703125,-0.43921178579330444,-0.9474512934684753,-1.0855066776275635
1761334321218749400,5.13174951171875,-0.07391463965177536,-0.9046907424926758,-0.9578359723091125
1761334321237450800,5.15045068359375,0.13683371245861053,-0.3756818473339081,-0.010384701192378998
1761334321256152300,5.16915234375,0.07330377399921417,-0.17837251722812653,0.685390293598175
1761334321274853600,5.187853515625,-0.14233149588108063,-0.04153880476951599,0.6731730103492737
1761334321293555000,5.206554931640625,-0.4153880476951599,0.29565855860710144,0.20830489695072174
1761334321312256300,5.22525634765625,-0.47952884435653687,0.48991355299949646,-0.21197007596492767
1761334321330957800,5.243957763671875,-0.34147340059280396,0.4520399272441864,-0.0873536616563797
1761334321349659100,5.2626591796875,-0.2211330533027649,0.16859868168830872,0.23335035145282745
1761334321368360400,5.2813603515625,-0.12767073512077332,-0.2254091054201126,0.31093016266822815
1761334321387062000,5.30006201171875,0.0256563201546669,-0.45326167345046997,0.18203771114349365
1761334321405763300,5.318763427734375,0.16249002516269684,-0.32131487131118774,0.04825831577181816
1761334321424464600,5.337464599609375,0.16798780858516693,-0.15088360011577606,-0.01588248461484909
1761334321443166200,5.356166259765625,0.11911863088607788,-0.056810423731803894,0.023823726922273636
1761334321461867500,5.374867431640625,0.0616973415017128,0.007330377586185932,0.04764745384454727
1761334321480569000,5.393569091796875,0.036651886999607086,0.12583814561367035,0.11423171311616898
1761334321499270400,5.4122705078125,0.07574722915887833,0.27550002932548523,0.2559523284435272
1761334321517971700,5.4309716796875,0.17531819641590118,0.35124725103378296,0.4764745235443115
1761334321536673000,5.449673095703125,0.10384701192378998,0.205861434340477,0.5271763205528259
1761334321555374600,5.46837451171875,-0.002443459117785096,-0.05925388261675835,0.4361574649810791
1761334321574076000,5.487075927734375,-0.1130099818110466,-0.037262752652168274,0.38301220536231995
1761334321592777200,5.505777099609375,-0.1337793916463852,-0.08307760953903198,-0.06108647957444191
1761334321611478800,5.524478759765625,0.06352993845939636,-1.155145287513733,-1.173471212387085
1761334321630180000,5.54318017578125,0.09896009415388107,-1.4306453466415405,-1.591302752494812
1761334321648881400,5.56188134765625,0.24801109731197357,0.14599667489528656,-0.3756818473339081
1761334321667582700,5.580582763671875,0.42088583111763,0.8857539296150208,1.0690133571624756
1761334321686284300,5.5992841796875,0.21746785938739777,0.2254091054201126,1.7244713306427002
1761334321704985600,5.617985595703125,-0.12156209349632263,-0.3995055556297302,1.3359612226486206
1761334321723687000,5.63668701171875,-0.3072649836540222,-0.05558869615197182,0.5681042671203613
1761334321742388500,5.655388427734375,-0.3396408259868622,0.4734202027320862,-0.05497783049941063
1761334321761089800,5.67408984375,-0.27977606654167175,0.5100721120834351,-0.3329212963581085
1761334321779791000,5.692791015625,-0.14538581669330597,0.13011419773101807,-0.28954991698265076
1761334321798492700,5.71149267578125,-0.024434590712189674,-0.36774060130119324,-0.13011419773101807
1761334321817194000,5.730194091796875,0.1386663019657135,-0.5949822664260864,-0.0665842592716217
1761334321835895300,5.748895263671875,0.27916520833969116,-0.5748237371444702,-0.17165300250053406
1761334321854596900,5.767596923828125,0.2834412455558777,-0.5131264328956604,-0.3249800503253937
1761334321873298200,5.786298095703125,0.18875721096992493,-0.46975502371788025,-0.49052441120147705
1761334321891999500,5.80499951171875,0.1490510106086731,-0.31642794609069824,-0.544891357421875
1761334321910701000,5.823701171875,0.15027274191379547,-0.1081230640411377,-0.42455101013183594
1761334321929402400,5.84240234375,0.1130099818110466,-0.17715078592300415,-0.2877173125743866
1761334321948103700,5.861103759765625,0.043371398001909256,-0.15821397304534912,0.03481929376721382
1761334321966805000,5.879804931640625,-0.10934479534626007,0.37323838472366333,0.6255255341529846
1761334321985506600,5.898506591796875,0.017104214057326317,0.31459537148475647,0.39339691400527954
1761334322004207900,5.917207763671875,0.1026252806186676,0.1026252806186676,-0.35735589265823364
1761334322022909200,5.9359091796875,0.18814635276794434,-0.7415898442268372,-1.4654645919799805
1761334322041610800,5.95461083984375,0.11423171311616898,-0.7812960743904114,-1.9401065111160278
1761334322060312000,5.97331201171875,0.05436696484684944,0.17653992772102356,-1.32985258102417
1761334322079013400,5.992013427734375,-0.02871064469218254,0.19853104650974274,-0.657290518283844
1761334322097715000,6.01071484375,-0.21380266547203064,-0.18142683804035187,-0.004886918235570192
1761334322116416300,6.029416259765625,-0.45448338985443115,-0.16310089826583862,0.48502662777900696
1761334322135117600,6.04811767578125,-0.6493492722511292,0.33597561717033386,0.6096430420875549
1761334322153819100,6.066819091796875,-0.748920202255249,0.5858193039894104,0.37751442193984985
1761334322172520400,6.0855205078125,-0.7568614482879639,0.44470956921577454,0.049480047076940536
1761334322191221800,6.1042216796875,-0.5955931544303894,0.03481929376721382,-0.12095122784376144
1761334322209923300,6.12292333984375,-0.2761108875274658,-0.37629270553588867,0.01588248461484909
1761334322228624600,6.141624755859375,-0.023212861269712448,-0.5894845128059387,0.2822195291519165
1761334322247326000,6.160325927734375,0.14782927930355072,-0.7067705392837524,0.3964512348175049
1761334322266027500,6.179027587890625,0.20341797173023224,-0.8075632452964783,0.2162461280822754
1761334322284728800,6.197728759765625,0.20708316564559937,-0.5094612240791321,-0.04459312930703163
1761334322303430100,6.21643017578125,0.21380266547203064,0.046425722539424896,-0.12950333952903748
1761334322322131500,6.23513134765625,0.2419024556875229,0.5907062292098999,0.1997527778148651
1761334322340833000,6.2538330078125,0.2406807243824005,0.46975502371788025,0.5943714380264282
1761334322359534300,6.272534423828125,0.15638138353824615,-0.16249002516269684,0.7153226733207703
1761334322378235600,6.291235595703125,-0.08491020649671555,-0.4868592321872711,0.6004800796508789
1761334322396937200,6.309937255859375,-0.1490510106086731,-0.5180133581161499,0.13683371245861053
1761334322415638500,6.328638427734375,-0.10384701192378998,-0.3182605504989624,-0.46364638209342957
1761334322434339800,6.34733984375,0.06597339361906052,-0.9804379940032959,-1.3109158277511597
1761334322453041200,6.366041259765625,0.09712749719619751,-0.7703005075454712,-1.1808016300201416
1761334322471742700,6.38474267578125,-0.023823726922273636,0.5974257588386536,0.06841685622930527
1761334322490444000,6.403444091796875,-0.143553227186203,1.0482439994812012,0.7764091491699219
1761334322509145300,6.422145263671875,-0.2412915825843811,0.7507528066635132,1.0140355825424194
1761334322527847000,6.440846923828125,-0.4111120104789734,0.3029889166355133,1.164919137954712
1761334322546548200,6.45954833984375,-0.5057960152626038,0.23212862014770508,1.0592395067214966
1761334322565249800,6.478249755859375,-0.45998117327690125,0.4013381600379944,0.7470875978469849
1761334322583951000,6.496951171875,-0.3756818473339081,0.42394015192985535,0.5076286196708679
1761334322602652400,6.51565234375,-0.27916520833969116,0.22174391150474548,0.3237583339214325
1761334322621354000,6.53435400390625,-0.15149445831775665,0.04153880476951599,0.2211330533027649
1761334322640055300,6.55305517578125,0.06780599057674408,-0.17776164412498474,0.13561198115348816
1761334322658756600,6.571756591796875,0.18875721096992493,-0.42271843552589417,0.028099779039621353
1761334322677458000,6.5904580078125,0.19425499439239502,-0.536339282989502,-0.053145237267017365
1761334322696159500,6.609159423828125,0.14782927930355072,-0.31459537148475647,-0.07635809481143951
1761334322714860800,6.62786083984375,0.12095122784376144,0.02932151034474373,0.007330377586185932
1761334322733562000,6.64656201171875,0.09834922850131989,0.3445277214050293,0.27916520833969116
1761334322752263700,6.665263671875,0.10140355676412582,0.3347539007663727,0.5668824911117554
1761334322770965000,6.683965087890625,0.0769689604640007,0.07574722915887833,0.711046576499939
1761334322789666300,6.702666259765625,-0.047036588191986084,-0.2571740746498108,0.5656607747077942
1761334322808367600,6.72136767578125,-0.10567960888147354,-0.4514290690422058,0.27427828311920166
1761334322827069200,6.740069091796875,-0.10079269111156464,-0.2571740746498108,-0.0977383628487587
1761334322845770500,6.7587705078125,0.10506874322891235,-0.5760455131530762,-0.7293725609779358
1761334322864471800,6.777471923828125,0.33169957995414734,-0.8081740736961365,-1.1404845714569092
1761334322883173400,6.79617333984375,0.36835145950317383,0.0873536616563797,-0.46486809849739075
1761334322901874700,6.814874755859375,0.24556763470172882,0.7171552777290344,0.21319180727005005
1761334322920576000,6.833575927734375,0.040317077189683914,0.6737838387489319,0.45448338985443115
1761334322939277600,6.852277587890625,-0.14782927930355072,0.37323838472366333,0.5161807537078857
1761334322957979000,6.870978759765625,-0.3335321843624115,0.0720820426940918,0.46486809849739075
1761334322976680200,6.88968017578125,-0.3970620930194855,0.009162971749901772,0.5131264328956604
1761334322995381800,6.9083818359375,-0.33597561717033386,-0.07880155742168427,0.5613847374916077
1761334323014083000,6.9270830078125,-0.22968515753746033,-0.23884813487529755,0.4428769648075104
1761334323032784400,6.945784423828125,-0.13133592903614044,-0.21197007596492767,0.2156352698802948
1761334323051486000,6.96448583984375,-0.06963858753442764,-0.009773836471140385,0.11362084746360779
1761334323070187300,6.983187255859375,-0.01954767294228077,0.2419024556875229,0.09957095980644226
1761334323088888600,7.001888671875,0.001221729558892548,0.2412915825843811,0.028099779039621353
1761334323107590000,7.02058984375,0.03909534588456154,-0.04825831577181816,-0.059864748269319534
1761334323126291500,7.03929150390625,0.06902772188186646,-0.16187916696071625,-0.014660755172371864
1761334323144992800,7.05799267578125,0.06230820715427399,-0.049480047076940536,0.14599667489528656
1761334323163694000,7.076694091796875,0.03848448023200035,0.1380554437637329,0.3127627670764923
1761334323182395600,7.095395751953125,0.037262752652168274,0.16126830875873566,0.42271843552589417
1761334323201097000,7.114096923828125,0.06291907280683517,-0.17837251722812653,0.4770853817462921
1761334323219798300,7.13279833984375,-0.07574722915887833,-0.14477495849132538,0.6175842881202698
1761334323238499600,7.15149951171875,-0.1288924664258957,-0.04825831577181816,0.33231043815612793
1761334323257201200,7.170201171875,-0.06230820715427399,-0.014660755172371864,-0.20280711352825165
1761334323275902500,7.18890234375,0.27488914132118225,-0.37629270553588867,-1.1001675128936768
1761334323294603800,7.207603759765625,0.7238747477531433,-0.9474512934684753,-1.970038890838623
1761334323313305300,7.226305419921875,0.720820426940918,-0.31459537148475647,-1.1294889450073242
1761334323332006700,7.245006591796875,0.4526508152484894,0.2968802750110626,-0.003665188793092966
1761334323350708000,7.2637080078125,0.3738492429256439,0.4764745235443115,0.3439168632030487
1761334323369409500,7.282409423828125,0.19914191961288452,0.4404335021972656,0.258395791053772
1761334323388110800,7.30111083984375,-0.06414080411195755,0.3023780584335327,-0.0409279391169548
1761334323406812400,7.3198125,-0.14233149588108063,0.35063639283180237,-0.1484401375055313
1761334323425513700,7.338513671875,-0.04764745384454727,0.4043924808502197,0.07024945318698883
1761334323444215000,7.357215087890625,-0.03787361457943916,0.09285144507884979,0.1594357043504715
1761334323462916400,7.375916259765625,-0.07941242307424545,-0.19181154668331146,0.029932374134659767
1761334323481618000,7.394617919921875,-0.07757982611656189,-0.13927717506885529,-0.185092031955719
1761334323500319200,7.4133193359375,0.0513126403093338,0.036651886999607086,-0.30970844626426697
1761334323519020500,7.4320205078125,0.13988803327083588,-0.0818558782339096,-0.3127627670764923
1761334323537722000,7.45072216796875,0.15638138353824615,-0.4214966893196106,-0.3170388340950012
1761334323556423400,7.46942333984375,0.16187916696071625,-0.5149590373039246,-0.24862197041511536
1761334323575124700,7.488124755859375,0.12034036219120026,-0.22968515753746033,-0.0665842592716217
1761334323593826000,7.506825927734375,0.009162971749901772,0.16676609218120575,0.08368847519159317
1761334323612527600,7.525527587890625,-0.03909534588456154,0.2156352698802948,0.19120067358016968
1761334323631229000,7.54422900390625,-0.08124501258134842,0.002443459117785096,0.462424635887146
1761334323649930200,7.56293017578125,-0.30482152104377747,0.014049889519810677,0.7984002828598022
1761334323668631800,7.5816318359375,-0.44959646463394165,-0.2260199636220932,0.768467903137207
1761334323687333000,7.6003330078125,-0.4172206521034241,-0.3390299379825592,0.347582072019577
1761334323706034400,7.619034423828125,-0.18387030065059662,-0.337808221578598,-0.42821621894836426
1761334323724735700,7.63773583984375,0.3139844834804535,-0.7452550530433655,-1.3103049993515015
1761334323743437300,7.656437255859375,0.536339282989502,-0.5186241865158081,-0.9859357476234436
1761334323762138600,7.675138671875,0.46914416551589966,-0.012217295356094837,-0.04581485688686371
1761334323780840000,7.69383984375,0.33047783374786377,0.049480047076940536,0.3946186602115631
1761334323799541500,7.71254150390625,0.10445787757635117,0.19792018830776215,0.6169734001159668
1761334323818242800,7.731242919921875,-0.1386663019657135,0.5858193039894104,0.4831940531730652
1761334323836944400,7.7499443359375,-0.34574946761131287,1.061682939529419,0.07757982611656189
1761334323855645700,7.768645751953125,-0.40744680166244507,1.1490366458892822,-0.07147117704153061
1761334323874347000,7.787346923828125,-0.41416633129119873,0.8063415288925171,0.056199558079242706
1761334323893048600,7.806048583984375,-0.36774060130119324,0.2364046722650528,0.14660754799842834
1761334323911750000,7.82475,-0.22235478460788727,-0.21319180727005005,0.12644900381565094
1761334323930451200,7.843451171875,-0.03176496922969818,-0.3121519088745117,0.017715077847242355
1761334323949152500,7.862152587890625,0.11911863088607788,-0.22174391150474548,-0.10506874322891235
1761334323967853800,7.880853759765625,0.09651663154363632,-0.23823726177215576,-0.18325942754745483
1761334323986555400,7.899555419921875,0.01588248461484909,-0.2162461280822754,-0.2370155304670334
1761334324005256700,7.918256591796875,0.05192350596189499,0.07757982611656189,-0.27427828311920166
1761334324023958000,7.9369580078125,0.056810423731803894,0.27855435013771057,-0.2987128794193268
1761334324042659600,7.95565966796875,0.02871064469218254,0.21135921776294708,-0.2315177470445633
1761334324061361000,7.97436083984375,-0.01893680728971958,0.049480047076940536,0.07086031138896942
1761334324080062200,7.993062255859375,-0.13072505593299866,0.42394015192985535,0.6340776681900024
1761334324098763800,8.011763671875,-0.17776164412498474,0.8619301915168762,0.8014546036720276
1761334324117465000,8.030465087890626,-0.15760311484336853,0.043371398001909256,0.09285144507884979
1761334324136166400,8.04916650390625,-0.12522727251052856,-1.85092031955719,-1.2773182392120361
1761334324154867700,8.06786767578125,0.009162971749901772,-1.7892229557037354,-1.8564180135726929
1761334324173569300,8.0865693359375,0.27366742491722107,0.42332929372787476,-1.0739002227783203
1761334324192270600,8.1052705078125,0.28527384996414185,0.9456186890602112,-0.5845975875854492
1761334324210972000,8.123971923828124,0.017104214057326317,0.13988803327083588,-0.4050033390522003
1761334324229673500,8.142673583984376,-0.13988803327083588,-0.5723803043365479,-0.01954767294228077
1761334324248374800,8.161374755859375,-0.3445277214050293,-0.40805765986442566,0.23823726177215576
1761334324267076000,8.180076171875,-0.49663305282592773,0.17226386070251465,0.29077163338661194
1761334324285777700,8.198777587890625,-0.5375609993934631,0.4416552484035492,0.21319180727005005
1761334324304479000,8.21747900390625,-0.4105011224746704,0.13744457066059113,0.007330377586185932
1761334324323180300,8.23618017578125,-0.24862197041511536,-0.268169641494751,0.017104214057326317
1761334324341881900,8.2548818359375,-0.09529490768909454,-0.3707949221134186,0.21135921776294708
1761334324360583200,8.273583251953125,0.04276053607463837,-0.2926042377948761,0.19181154668331146
1761334324379284500,8.292284423828125,0.1740964651107788,-0.2364046722650528,-0.10629047453403473
1761334324397986000,8.310986083984375,0.2974911332130432,-0.185092031955719,-0.3292561173439026
1761334324416687400,8.329687255859374,0.4166097939014435,-0.2968802750110626,-0.3494146466255188
1761334324435388700,8.348388671875,0.37690356373786926,-0.28466299176216125,-0.1844811588525772
1761334324454090200,8.36709033203125,0.23029601573944092,-0.17348559200763702,-0.031154103577136993
1761334324472791600,8.38579150390625,0.13988803327083588,-0.14477495849132538,0.039706211537122726
1761334324491492900,8.404492919921875,0.12583814561367035,-0.09101885557174683,0.0818558782339096
1761334324510194200,8.423194091796875,0.06963858753442764,-0.25350889563560486,0.11362084746360779
1761334324528895700,8.441895751953124,0.24006985127925873,-0.6517927050590515,0.12705987691879272
1761334324547597000,8.46059716796875,0.3530798554420471,-1.0103703737258911,-0.18142683804035187
1761334324566298400,8.47929833984375,0.4251618981361389,-1.0946696996688843,-1.1563670635223389
1761334324584999700,8.497999755859375,0.32192572951316833,0.0818558782339096,-1.415373682975769
1761334324603701200,8.516701171875,0.11911863088607788,1.2186752557754517,-0.8124501705169678
1761334324622402600,8.535402587890625,0.04825831577181816,1.3616175651550293,-0.10995566099882126
1761334324641104000,8.554103759765624,0.01588248461484909,0.6682860851287842,0.5913171172142029
1761334324659805400,8.572805419921876,-0.1178968995809555,-0.07330377399921417,1.1233803033828735
1761334324678506800,8.5915068359375,-0.2706131041049957,-0.04459312930703163,0.9926552772521973
1761334324697208000,8.6102080078125,-0.33231043815612793,0.2926042377948761,0.3695732057094574
1761334324715909400,8.628909423828125,-0.3127627670764923,0.30115634202957153,-0.2003636509180069
1761334324734611000,8.64761083984375,-0.18081597983837128,0.05253437161445618,-0.4147771894931793
1761334324753312300,8.666312255859374,0.03237583488225937,-0.25900667905807495,-0.3133736252784729
1761334324772013600,8.685013671875,0.18692462146282196,-0.4050033390522003,-0.17898337543010712
1761334324790715100,8.703715087890625,0.27977606654167175,-0.47036588191986084,-0.2883281707763672
1761334324809416400,8.72241650390625,0.32192572951316833,-0.40927940607070923,-0.5919279456138611
1761334324828117800,8.74111767578125,0.28954991698265076,-0.24801109731197357,-0.8808670043945312
1761334324846819000,8.759819091796874,0.26878049969673157,-0.05925388261675835,-0.8900299668312073
1761334324865520600,8.778520751953126,0.3543015718460083,0.19303326308727264,-0.4630354940891266
1761334324884222000,8.797221923828126,0.42943793535232544,0.07757982611656189,0.020769402384757996
1761334324902923300,8.81592333984375,0.3964512348175049,-0.6133082509040833,0.39889469742774963
1761334324921624800,8.834624755859375,0.2370155304670334,-0.7812960743904114,0.9028581380844116
1761334324940326100,8.853326171875,0.26389357447624207,-0.44898560643196106,0.8967494964599609
1761334324959027700,8.87202783203125,0.40378162264823914,-0.2987128794193268,0.1948658674955368
1761334324977729000,8.89072900390625,0.33231043815612793,-0.25534147024154663,-0.3799578845500946
1761334324996430300,8.909430419921875,0.21991132199764252,0.21258094906806946,-0.22174391150474548
1761334325015131600,8.928131591796875,0.2577849328517914,0.46975502371788025,0.4056142270565033
1761334325033833200,8.946833251953125,0.14110976457595825,0.21197007596492767,0.9358448386192322
1761334325052534500,8.965534423828124,-0.15638138353824615,-0.046425722539424896,1.1044435501098633
1761334325071235800,8.98423583984375,-0.3433060050010681,-0.17653992772102356,0.9107993841171265
1761334325089937400,9.0029375,-0.48930269479751587,0.01588248461484909,0.5681042671203613
1761334325108638700,9.021638671875,-0.593149721622467,0.19608759880065918,0.3066541254520416
1761334325127340000,9.040340087890625,-0.5790998339653015,0.11178825795650482,0.1844811588525772
1761334325146041600,9.05904150390625,-0.43432486057281494,-0.04214967042207718,0.19364413619041443
1761334325164743000,9.077742919921874,-0.2528980076313019,-0.1490510106086731,0.21502439677715302
1761334325183444200,9.0964443359375,-0.023823726922273636,-0.1795942485332489,0.06841685622930527
1761334325202145500,9.1151455078125,0.21135921776294708,-0.23335035145282745,-0.15760311484336853
1761334325220847000,9.13384716796875,0.379347026348114,-0.16737695038318634,-0.25473061203956604
1761334325239548400,9.15254833984375,0.4557051360607147,-0.02932151034474373,-0.17653992772102356
1761334325258249700,9.171249755859375,0.4831940531730652,0.1545487940311432,0.04459312930703163
1761334325276951000,9.189950927734374,0.5198459029197693,0.22296564280986786,0.21258094906806946
1761334325295652600,9.208652587890626,0.4984656572341919,0.21197007596492767,0.3488037884235382
1761334325314354000,9.22735400390625,0.29504770040512085,0.1533270627260208,0.5064069032669067
1761334325333055200,9.24605517578125,0.025045456364750862,0.03787361457943916,0.4557051360607147
1761334325351756800,9.2647568359375,-0.08979712426662445,-0.12767073512077332,0.017104214057326317
1761334325370458000,9.2834580078125,-0.14110976457595825,-0.5216785073280334,-0.4379900395870209
1761334325389159400,9.302159423828124,-0.1533270627260208,-0.9456186890602112,-0.6597339510917664
1761334325407860700,9.32086083984375,0.09101885557174683,-0.9358448386192322,-0.6701186895370483
1761334325426562300,9.339562255859375,0.36835145950317383,-1.0140355825424194,-0.6688969135284424
1761334325445263600,9.358263671875,0.2419024556875229,-0.7055488228797913,-0.20769402384757996
1761334325463965000,9.37696484375,-0.03787361457943916,-0.12278381735086441,0.15699224174022675
1761334325482666500,9.39566650390625,-0.12644900381565094,1.0054833889007568,-0.2528980076313019
1761334325501367800,9.414367919921874,-0.06841685622930527,0.6395754218101501,0.15699224174022675
1761334325520069000,9.433069091796876,0.010384701192378998,-0.13561198115348816,0.8167262077331543
1761334325538770400,9.4517705078125,0.013439024798572063,-0.35674503445625305,0.9944878816604614
1761334325557472000,9.470471923828125,0.0513126403093338,0.09040798991918564,0.6157516837120056
1761334325576173300,9.48917333984375,-0.01282816007733345,0.2816086709499359,0.3426951467990875
1761334325594874600,9.50787451171875,-0.053756099194288254,-0.0818558782339096,0.23945899307727814
1761334325613576200,9.526576171875,0.05925388261675835,-0.3530798554420471,0.16065743565559387
1761334325632277500,9.545277587890626,0.17043127119541168,-0.3848448097705841,0.007941242307424545
1761334325650978800,9.563978759765625,0.18631376326084137,-0.3072649836540222,-0.09285144507884979
1761334325669680400,9.582680419921875,0.17043127119541168,-0.20708316564559937,-0.02871064469218254
1761334325688381700,9.601381591796875,0.1698204129934311,-0.01282816007733345,-0.034208428114652634
1761334325707083000,9.6200830078125,0.1441640853881836,0.23884813487529755,0.0922405794262886
1761334325725784300,9.638784423828126,0.03298669680953026,0.337808221578598,0.38667741417884827
1761334325744486000,9.65748583984375,-0.05253437161445618,0.2724456787109375,0.5039634704589844
1761334325763187200,9.676187255859375,-0.08491020649671555,0.3341430425643921,0.44348782300949097
1761334325781888500,9.694888427734375,-0.22663083672523499,0.5766563415527344,0.3243691921234131
1761334325800590000,9.713590087890625,-0.360410213470459,0.4404335021972656,0.2211330533027649
1761334325819291400,9.73229150390625,-0.2461785078048706,-0.010384701192378998,-0.09712749719619751
1761334325837992700,9.75099267578125,-0.053756099194288254,-0.4251618981361389,-0.6139190793037415
1761334325856694300,9.7696943359375,0.29138249158859253,-0.7476984858512878,-0.9364557266235352
1761334325875395600,9.7883955078125,0.32009315490722656,-0.40805765986442566,-0.7843503952026367
1761334325894097000,9.807096923828125,0.1185077652335167,0.2608392536640167,-0.45448338985443115
1761334325912798500,9.825798583984374,0.20402882993221283,0.5577195286750793,-0.5039634704589844
1761334325931499800,9.844499755859376,0.16065743565559387,0.4868592321872711,-0.39889469742774963
1761334325950201000,9.863201171875,0.1594357043504715,0.06352993845939636,0.10629047453403473
1761334325968902400,9.88190234375,0.2981020212173462,-0.49602219462394714,0.7855721116065979
1761334325987604000,9.90060400390625,0.35674503445625305,-0.6560688018798828,1.1148282289505005
1761334326006305300,9.91930517578125,0.16065743565559387,-0.2889390289783478,0.6786707639694214
1761334326025006600,9.938006591796874,-0.10995566099882126,0.030543239787220955,0.3072649836540222
1761334326043708200,9.956708251953126,-0.19792018830776215,0.014049889519810677,0.36285367608070374
1761334326062409500,9.975409423828125,-0.14172062277793884,-0.09957095980644226,0.43432486057281494
1761334326081110800,9.99411083984375,-0.06719512492418289,0.043982263654470444,0.24312418699264526
1761334326099812000,10.01281201171875,0.008552107028663158,0.1539379209280014,0.06291907280683517
1761334326118513700,10.031513671875,0.15027274191379547,0.1539379209280014,0.04459312930703163
1761334326137215000,10.050215087890624,0.24495677649974823,0.001221729558892548,0.08368847519159317
1761334326155916300,10.068916259765626,0.2412915825843811,-0.010995565913617611,0.06963858753442764
1761334326174617600,10.08761767578125,0.20952661335468292,0.08063415437936783,0.10506874322891235
1761334326193319200,10.106319091796875,0.1637117564678192,0.09957095980644226,0.22235478460788727
1761334326212020500,10.1250205078125,0.08124501258134842,0.2522871494293213,0.3909534513950348
1761334326230721800,10.1437216796875,-0.000610864779446274,0.4105011224746704,0.5149590373039246
1761334326249423400,10.16242333984375,-0.09529490768909454,0.40317076444625854,0.4978547990322113
1761334326268124700,10.181124755859376,-0.29565855860710144,0.40255987644195557,0.3231474757194519
1761334326286826000,10.199825927734375,-0.3536907136440277,0.16310089826583862,-0.043982263654470444
1761334326305527300,10.21852734375,-0.09651663154363632,-0.3744601011276245,-0.6194168925285339
1761334326324228900,10.237228759765625,0.26389357447624207,-0.767857015132904,-1.7012584209442139
1761334326342930200,10.25593017578125,0.3952295184135437,-0.11056652665138245,-2.196669816970825
1761334326361631500,10.274631591796876,0.3591884970664978,0.6792816519737244,-1.219896912574768
1761334326380333000,10.2933330078125,0.42332929372787476,0.4098902642726898,-0.18631376326084137
1761334326399034400,10.312034423828125,0.45875945687294006,-0.07513637095689774,0.24251331388950348
1761334326417735700,10.330735595703125,0.41294458508491516,-0.26450446248054504,0.20463970303535461
1761334326436437000,10.34943701171875,0.32192572951316833,-0.04214967042207718,0.1386663019657135
1761334326455138600,10.368138671875,0.25350889563560486,-0.18387030065059662,0.42394015192985535
1761334326473839900,10.38683984375,0.10445787757635117,-0.49663305282592773,0.675616443157196
1761334326492541200,10.405541259765625,-0.017104214057326317,-0.5271763205528259,0.6444623470306396
1761334326511242500,10.424242431640625,-0.027488915249705315,-0.41783151030540466,0.36835145950317383
1761334326529944000,10.442944091796875,-0.002443459117785096,-0.3952295184135437,0.17776164412498474
1761334326548645400,10.461645263671874,0.043982263654470444,-0.49663305282592773,0.16554436087608337
1761334326567346700,10.4803466796875,0.143553227186203,-0.4569268524646759,0.11423171311616898
1761334326586048300,10.49904833984375,0.17531819641590118,-0.258395791053772,-0.006719512399286032
1761334326604749600,10.51774951171875,0.1637117564678192,-0.32192572951316833,0.2968802750110626
1761334326623451000,10.536450927734375,0.10140355676412582,0.14294235408306122,0.13744457066059113
1761334326642152200,10.555152099609375,-0.03848448023200035,0.6334667801856995,-0.19669845700263977
1761334326660853800,10.573853759765624,-0.02626718580722809,0.6218603253364563,-0.03237583488225937
