time,seconds_elapsed,z,y,x
1761334316170465800,0.0834658203125,8.432307243347168,3.8979079723358154,0.6532405614852905
1761334316189167000,0.1021669921875,8.997013092041016,4.328616142272949,0.47617170214653015
1761334316207868700,0.12086865234375,8.616554260253906,4.503292083740234,-0.04546362906694412
1761334316226570000,0.139570068359375,8.236095428466797,5.048855781555176,-0.8039883971214294
1761334316245271300,0.158271240234375,7.156932353973389,3.81655216217041,-0.5383850932121277
1761334316263972600,0.17697265625,8.989834785461426,4.718646049499512,0.9379864931106567
1761334316282674200,0.195674072265625,8.415556907653809,4.610969066619873,0.7752745151519775
1761334316301375500,0.21437548828125,7.769495010375977,5.245067119598389,-0.6604190468788147
1761334316320076800,0.233076904296875,8.161917686462402,4.835894584655762,-2.043470621109009
1761334316338778000,0.251778076171875,9.712467193603516,4.957928657531738,-2.2157537937164307
1761334316357479700,0.270479736328125,10.370492935180664,4.890929698944092,-0.7345965504646301
1761334316376181000,0.289180908203125,7.0923261642456055,4.811966419219971,-0.6317051649093628
1761334316394882300,0.30788232421875,9.253045082092285,2.794816732406616,-0.8638089895248413
1761334316413583600,0.32658349609375,8.922835350036621,1.6582261323928833,0.040677983313798904
1761334316432285200,0.34528515625,6.903293132781982,3.517449378967285,0.5120640397071838
1761334316450986500,0.363986572265625,7.259823799133301,2.940778970718384,-0.4331009089946747
1761334316469687800,0.382687744140625,8.609375953674316,1.9334007501602173,-0.4905286431312561
1761334316488389400,0.401389404296875,9.145368576049805,1.6917256116867065,-0.37806597352027893
1761334316507090700,0.420090576171875,10.04267692565918,2.7349963188171387,-0.5742774605751038
1761334316525792000,0.4387919921875,10.645668029785156,2.2947168350219727,-1.3351950645446777
1761334316544493300,0.457493408203125,9.456435203552246,1.124626636505127,-1.332802176475525
1761334316563195000,0.47619482421875,8.267202377319336,0.9451649188995361,-0.8542376756668091
1761334316581896200,0.494896240234375,7.039684295654297,1.5792629718780518,-0.04785645380616188
1761334316600597500,0.513597412109375,7.152146816253662,3.3571300506591797,-1.7252250909805298
1761334316619299000,0.532299072265625,6.262016773223877,4.395615100860596,-1.94297194480896
1761334316638000400,0.55100048828125,6.305087566375732,6.348158359527588,-5.259424209594727
1761334316656701700,0.56970166015625,8.925228118896484,7.140182971954346,-4.278367042541504
1761334316675403000,0.588403076171875,9.518648147583008,1.0265209674835205,1.9405791759490967
1761334316694104600,0.6071044921875,10.85862922668457,2.720639228820801,0.7178468108177185
1761334316712806000,0.625805908203125,9.300901412963867,2.5196423530578613,0.7489534616470337
1761334316731507200,0.644507080078125,8.250452041625977,2.218146562576294,-0.576670229434967
1761334316750208800,0.663208740234375,8.322237014770508,1.8496519327163696,-1.2179467678070068
1761334316768910000,0.68191015625,8.09252643585205,1.789831280708313,-0.6173482537269592
1761334316787611400,0.700611328125,6.829115867614746,0.6484549641609192,-0.6963114142417908
1761334316806312700,0.719312744140625,8.415556907653809,2.510071039199829,0.9858429431915283
1761334316825014300,0.73801416015625,9.80100154876709,1.923829436302185,0.638883650302887
1761334316843715600,0.756715576171875,14.163117408752441,2.572284460067749,0.32303106784820557
1761334316862417000,0.7754169921875,19.391435623168945,3.9122650623321533,1.1030912399291992
1761334316881118500,0.794118408203125,21.006589889526367,6.245266914367676,0.4977070987224579
1761334316899819800,0.81281982421875,21.913469314575195,9.68375301361084,-3.3714871406555176
1761334316918521000,0.83152099609375,25.280170440673828,10.619346618652344,-2.1583259105682373
1761334316937222400,0.850222412109375,27.873991012573242,9.944570541381836,0.9762716293334961
1761334316955924000,0.868924072265625,22.978275299072266,9.32004451751709,1.1389836072921753
1761334316974625300,0.887625244140625,15.842878341674805,9.312865257263184,0.3326023519039154
1761334316993326600,0.90632666015625,9.719645500183105,8.3629150390625,0.26081767678260803
1761334317012028200,0.925028076171875,6.001199245452881,5.840879917144775,0.576670229434967
1761334317030729500,0.9437294921875,4.766502857208252,2.6847469806671143,1.2035897970199585
1761334317049430800,0.9624306640625,5.127819061279297,-0.15553347766399384,0.11246266216039658
1761334317068132400,0.98113232421875,4.426722049713135,-1.5337992906570435,-0.3924229145050049
1761334317086833700,0.999833740234375,1.4333007335662842,-1.9022940397262573,-0.4570291340351105
1761334317105535000,1.018534912109375,-1.4141582250595093,-2.0721843242645264,-1.0480563640594482
1761334317124236300,1.037236328125,-2.8809585571289062,-2.5674986839294434,-2.500499725341797
1761334317142937900,1.055937744140625,-3.184846878051758,-2.723032236099243,-2.991028308868408
1761334317161639200,1.07463916015625,-3.6921253204345703,-2.5770699977874756,-2.4358935356140137
1761334317180340500,1.093340576171875,-3.8045880794525146,-2.043470621109009,-1.7060825824737549
1761334317199042000,1.1120419921875,-3.1513473987579346,-1.4979069232940674,-0.8135597109794617
1761334317217743400,1.130743408203125,-1.5314065217971802,-1.0911271572113037,-0.5599204897880554
1761334317236444700,1.149444580078125,0.3900300860404968,-0.8997012972831726,-0.5312066078186035
1761334317255146000,1.16814599609375,2.500499725341797,-0.5288137793540955,0.040677983313798904
1761334317273847600,1.18684765625,5.161318302154541,0.1866401731967926,1.4572290182113647
1761334317292548900,1.205548828125,8.173882484436035,1.4787644147872925,2.4502503871917725
1761334317311250200,1.224250244140625,13.63191032409668,2.926422119140625,3.3164522647857666
1761334317329951700,1.24295166015625,20.66680908203125,5.929414749145508,3.108276605606079
1761334317348653000,1.261653076171875,21.3128719329834,9.437292098999023,1.1509476900100708
1761334317367354400,1.280354248046875,17.166109085083008,14.469398498535156,-2.3018953800201416
1761334317386055700,1.2990556640625,15.766308784484863,17.687744140625,-1.8735800981521606
1761334317404757200,1.31775732421875,19.70250129699707,17.304893493652344,-0.04785645380616188
1761334317423458600,1.33645849609375,21.506689071655273,16.218551635742188,0.8279166221618652
1761334317442159900,1.355159912109375,21.978076934814453,13.746766090393066,1.9836499691009521
1761334317460861400,1.373861328125,23.33959197998047,9.626325607299805,3.4719855785369873
1761334317479562800,1.392562744140625,18.43430519104004,6.915257453918457,4.5583271980285645
1761334317498264000,1.41126416015625,11.7056884765625,4.984249591827393,4.113262176513672
1761334317516965400,1.42996533203125,5.733202934265137,2.9048867225646973,2.770888566970825
1761334317535667000,1.4486669921875,1.3782658576965332,1.3639088869094849,1.6534404754638672
1761334317554368300,1.4673681640625,-1.672582983970642,0.2871387302875519,0.4331009089946747
1761334317573069600,1.486069580078125,-2.4765713214874268,-0.4618147611618042,-0.5958128571510315
1761334317591771000,1.50477099609375,-1.6821542978286743,-0.8542376756668091,-1.435693621635437
1761334317610472400,1.523472412109375,-0.6245267391204834,-1.0121639966964722,-1.6893328428268433
1761334317629173800,1.542173828125,0.27756741642951965,-0.9858429431915283,-1.3160524368286133
1761334317647875000,1.560875,0.882951557636261,-0.5694918036460876,-0.8614161610603333
1761334317666576600,1.57957666015625,0.8662018179893494,-0.3158525824546814,-0.45942193269729614
1761334317685278000,1.59827783203125,1.1222338676452637,0.2225325107574463,0.519242525100708
1761334317703979300,1.616979248046875,1.2993026971817017,0.24885354936122894,1.423729419708252
1761334317722680600,1.6356806640625,2.3258235454559326,0.44027936458587646,2.0745773315429688
1761334317741382100,1.654382080078125,4.201796531677246,0.41874396800994873,1.7324036359786987
1761334317760083500,1.67308349609375,7.767102241516113,0.6460621356964111,1.710868239402771
1761334317778784800,1.69178466796875,12.095718383789062,2.895315408706665,2.0171494483947754
1761334317797486300,1.710486328125,17.42692756652832,6.702296257019043,2.2205393314361572
1761334317816187600,1.729187744140625,17.9222412109375,10.107282638549805,-0.13160525262355804
1761334317834889000,1.747888916015625,14.400006294250488,14.672788619995117,-3.4504501819610596
1761334317853590300,1.76659033203125,17.245073318481445,17.80499267578125,-2.7349963188171387
1761334317872291800,1.785291748046875,24.11247444152832,16.93161392211914,0.8183453679084778
1761334317890993200,1.8039931640625,30.288349151611328,13.591232299804688,4.022335052490234
1761334317909694500,1.822694580078125,30.293134689331055,10.482955932617188,6.553941249847412
1761334317928395800,1.841395751953125,22.38964080810547,8.791230201721191,6.915257453918457
1761334317947097300,1.860097412109375,12.696316719055176,6.135197162628174,5.5345988273620605
1761334317965798700,1.878798583984375,6.111268997192383,3.4408788681030273,3.972085475921631
1761334317984500000,1.8975,3.981656789779663,0.7680960893630981,1.526620864868164
1761334318003201500,1.916201416015625,2.062613010406494,-1.191625714302063,-0.851844847202301
1761334318021902800,1.93490283203125,-0.8422735929489136,-1.7443677186965942,-2.56510591506958
1761334318040604200,1.953604248046875,-2.9455647468566895,-1.7491533756256104,-3.13220477104187
1761334318059305500,1.972305419921875,-4.0558342933654785,-1.7826528549194336,-3.046063184738159
1761334318078007000,1.991007080078125,-4.048655986785889,-1.734796404838562,-2.3569302558898926
1761334318096708400,2.009708251953125,-3.1800613403320312,-1.454836130142212,-1.5074782371520996
1761334318115410000,2.028409912109375,-1.9094724655151367,-0.9499505758285522,-0.42352959513664246
1761334318134111200,2.047111328125,-0.7992027401924133,-0.22971096634864807,0.27756741642951965
1761334318152812500,2.0658125,0.5335994362831116,0.4426721930503845,0.5790630578994751
1761334318171513900,2.084513916015625,2.6321048736572266,1.6103696823120117,1.1748759746551514
1761334318190215400,2.10321533203125,6.613761901855469,2.871387243270874,1.5146567821502686
1761334318208916700,2.121916748046875,14.086546897888184,4.809573650360107,1.404586911201477
1761334318227618000,2.1406181640625,19.511075973510742,7.276573657989502,1.8400806188583374
1761334318246319600,2.159319580078125,20.030319213867188,10.99741268157959,-0.7345965504646301
1761334318265021000,2.17802099609375,20.611774444580078,13.35434341430664,-1.8424733877182007
1761334318283722200,2.19672216796875,21.76272201538086,14.895320892333984,-2.651247501373291
1761334318302423800,2.215423828125,20.796022415161133,14.847464561462402,-3.4408788681030273
1761334318321124900,2.234124755859375,19.38425636291504,13.969298362731934,-3.682554006576538
1761334318339826400,2.252826416015625,18.66640853881836,11.676974296569824,-2.715853691101074
1761334318358528000,2.271528076171875,17.288143157958984,7.477570533752441,0.25363919138908386
1761334318377229300,2.290229248046875,11.58126163482666,4.333401679992676,3.4097721576690674
1761334318395930600,2.3089306640625,5.886343479156494,1.7084753513336182,2.7828526496887207
1761334318414632000,2.3276318359375,1.4835500717163086,-0.47617170214653015,1.3160524368286133
1761334318433333500,2.34633349609375,-2.203789710998535,-1.588834285736084,-0.062213387340307236
1761334318452034800,2.365034912109375,-4.962714195251465,-2.014756679534912,-1.5912270545959473
1761334318470736100,2.383736083984375,-5.4173502922058105,-2.2325034141540527,-2.8139593601226807
1761334318489437400,2.4024375,-4.390829563140869,-2.407179594039917,-2.8426733016967773
1761334318508139000,2.421138916015625,-2.6967110633850098,-2.1990039348602295,-2.2995026111602783
1761334318526840300,2.43984033203125,-1.1318050622940063,-1.8640087842941284,-1.5433706045150757
1761334318545541600,2.458541748046875,0.062213387340307236,-1.1748759746551514,-0.02392822690308094
1761334318564243200,2.4772431640625,1.184447169303894,-0.48095735907554626,0.9499505758285522
1761334318582944500,2.495944580078125,2.857030153274536,0.4713860750198364,1.490728497505188
1761334318601645800,2.514645751953125,6.905686378479004,2.8833513259887695,2.172683000564575
1761334318620347100,2.53334716796875,14.629717826843262,6.446264266967773,1.4500504732131958
1761334318639048700,2.552048583984375,22.669601440429688,8.973084449768066,-0.3326023519039154
1761334318657750000,2.57075,27.28057098388672,10.932806968688965,-1.2179467678070068
1761334318676451300,2.589451416015625,30.886554718017578,11.885149955749512,0.9523434042930603
1761334318695153000,2.60815283203125,32.496925354003906,13.031311988830566,3.084348440170288
1761334318713854200,2.626854248046875,31.432117462158203,12.102896690368652,3.627519130706787
1761334318732555500,2.645555419921875,24.63650131225586,10.179067611694336,1.31365966796875
1761334318751256800,2.6642568359375,17.101503372192383,7.788637638092041,0.6005984544754028
1761334318769958400,2.68295849609375,11.375478744506836,4.398007869720459,1.368694543838501
1761334318788659700,2.70165966796875,5.278566837310791,1.2179467678070068,1.6701902151107788
1761334318807361000,2.720361083984375,0.3756731450557709,-0.9786644577980042,0.24885354936122894
1761334318826062300,2.739062255859375,-3.1992039680480957,-2.258824586868286,-1.2681959867477417
1761334318844764000,2.757763916015625,-5.836094379425049,-2.6081767082214355,-2.0554347038269043
1761334318863465200,2.77646533203125,-6.585047721862793,-2.9240293502807617,-2.861815929412842
1761334318882166800,2.795166748046875,-5.682953834533691,-3.2374889850616455,-2.7637102603912354
1761334318900868000,2.8138681640625,-4.273581027984619,-3.0795626640319824,-2.63449764251709
1761334318919569400,2.8325693359375,-2.9312076568603516,-2.6608188152313232,-1.4117653369903564
1761334318938270700,2.851270751953125,-1.459621787071228,-1.7443677186965942,0.33738797903060913
1761334318956972300,2.86997216796875,0.28953152894973755,-1.2897313833236694,0.9786644577980042
1761334318975673600,2.888673583984375,2.675175666809082,-0.7226324677467346,1.6965112686157227
1761334318994375000,2.907375,5.726024627685547,0.2679961323738098,2.7349963188171387
1761334319013076500,2.926076416015625,10.102497100830078,3.0891339778900146,3.3954153060913086
1761334319031777800,2.94477783203125,19.36989974975586,7.6737823486328125,2.7565317153930664
1761334319050479000,2.96347900390625,29.405397415161133,9.970891952514648,3.1920254230499268
1761334319069180400,2.982180419921875,33.47798156738281,12.373286247253418,5.218746185302734
1761334319087882000,3.000882080078125,33.84408187866211,14.895320892333984,6.532405853271484
1761334319106583300,3.019583251953125,33.44208908081055,13.861621856689453,5.111069202423096
1761334319125284900,3.038284912109375,28.60858726501465,12.78485107421875,2.9527430534362793
1761334319143986200,3.056986083984375,22.691137313842773,9.717252731323242,1.8687944412231445
1761334319162687500,3.0756875,16.50808334350586,5.580062389373779,1.797009825706482
1761334319181388800,3.094388916015625,9.040083885192871,1.9142581224441528,1.7635103464126587
1761334319200090400,3.11309033203125,1.4931213855743408,-0.8446664214134216,1.1030912399291992
1761334319218791700,3.131791748046875,-4.572684288024902,-2.500499725341797,-0.6795616149902344
1761334319237493000,3.150492919921875,-7.424928665161133,-3.3547372817993164,-2.2995026111602783
1761334319256194600,3.169194580078125,-7.652246952056885,-3.682554006576538,-2.555534601211548
1761334319274896000,3.187895751953125,-6.7932233810424805,-3.9050865173339844,-1.9884356260299683
1761334319293597200,3.20659716796875,-5.864808082580566,-3.5676984786987305,-1.1892328262329102
1761334319312298500,3.225298583984375,-4.974678039550781,-2.8929226398468018,-0.607776939868927
1761334319331000000,3.244,-2.9001009464263916,-1.8424733877182007,-0.02871387079358101
1761334319349701400,3.262701416015625,-0.12681959569454193,-0.6125625967979431,0.8709874153137207
1761334319368402700,3.281402587890625,2.66560435295105,0.6173482537269592,1.8089739084243774
1761334319387104300,3.300104248046875,5.927021503448486,1.6558332443237305,2.56510591506958
1761334319405805600,3.3188056640625,9.346364974975586,2.5746772289276123,2.548356056213379
1761334319424507000,3.3375068359375,13.048062324523926,4.1659040451049805,2.6608188152313232
1761334319443208200,3.356208251953125,16.675580978393555,6.486942291259766,2.2923240661621094
1761334319461909800,3.37490966796875,18.896120071411133,9.556933403015137,1.0360921621322632
1761334319480611000,3.393611083984375,22.064218521118164,11.897113800048828,1.588834285736084
1761334319499312400,3.4123125,24.409183502197266,13.284951210021973,3.2135608196258545
1761334319518014000,3.431013916015625,25.0289249420166,14.0985107421875,5.398207664489746
1761334319536715300,3.44971533203125,25.490739822387695,13.653446197509766,6.606583118438721
1761334319555416600,3.46841650390625,24.569503784179688,11.990434646606445,5.357530117034912
1761334319574118100,3.4871181640625,21.418155670166016,8.870193481445312,4.374079704284668
1761334319592819500,3.5058193359375,14.31625747680664,5.678168296813965,3.014956474304199
1761334319611520800,3.524520751953125,7.142575740814209,2.8139593601226807,0.9236295223236084
1761334319630222300,3.543222412109375,1.5553346872329712,0.397208571434021,-0.09810572862625122
1761334319648923600,3.561923583984375,-2.234896421432495,-1.1653046607971191,-1.4117653369903564
1761334319667625000,3.580625,-4.153940200805664,-2.1655044555664062,-1.9357935190200806
1761334319686326500,3.599326416015625,-4.646861553192139,-2.4813570976257324,-1.7635103464126587
1761334319705027800,3.61802783203125,-4.268795490264893,-2.761317253112793,-1.919043779373169
1761334319723729200,3.636729248046875,-3.4887354373931885,-2.7493531703948975,-1.7922241687774658
1761334319742430500,3.655430419921875,-2.328216314315796,-2.0554347038269043,-1.1318050622940063
1761334319761132000,3.674132080078125,-1.2586246728897095,-1.1174482107162476,0.16510476171970367
1761334319779833300,3.692833251953125,-0.2679961323738098,-0.062213387340307236,1.2729816436767578
1761334319798534700,3.71153466796875,1.490728497505188,0.33499518036842346,1.155733346939087
1761334319817236200,3.730236328125,3.8500516414642334,1.0001999139785767,1.6462619304656982
1761334319835937500,3.7489375,7.259823799133301,2.1367905139923096,1.7922241687774658
1761334319854638800,3.767638916015625,11.552547454833984,4.4961137771606445,1.3495519161224365
1761334319873340200,3.786340087890625,16.271194458007812,7.295716285705566,-0.12921242415905
1761334319892041700,3.805041748046875,19.970497131347656,9.81535816192627,-1.1126625537872314
1761334319910743000,3.823742919921875,22.79642105102539,11.157732009887695,-1.5696916580200195
1761334319929444400,3.8424443359375,26.368906021118164,11.578868865966797,-0.6795616149902344
1761334319948146000,3.86114599609375,31.03012466430664,11.162517547607422,0.9379864931106567
1761334319966847200,3.87984716796875,33.341590881347656,10.939985275268555,1.28255295753479
1761334319985548500,3.898548583984375,28.393234252929688,10.171889305114746,0.7968099117279053
1761334320004250000,3.91725,21.291336059570312,7.769495010375977,0.45942193269729614
1761334320022951400,3.935951416015625,12.339786529541016,4.412364959716797,1.007378339767456
1761334320041652700,3.95465283203125,4.230510234832764,1.3304094076156616,1.581655740737915
1761334320060354300,3.973354248046875,-0.1579262912273407,-1.3471591472625732,-0.0023928226437419653
1761334320079055600,3.9920556640625,-3.730410575866699,-2.6225335597991943,-1.6295121908187866
1761334320097757000,4.0107568359375,-6.671189308166504,-2.878565549850464,-2.3976082801818848
1761334320116458500,4.02945849609375,-8.023134231567383,-2.8977081775665283,-2.7326035499572754
1761334320135159800,4.048159912109375,-6.556334018707275,-2.9359934329986572,-1.9286150932312012
1761334320153861000,4.066861083984375,-4.369294166564941,-2.5435705184936523,-0.9188438653945923
1761334320172562700,4.085562744140625,-2.2085752487182617,-1.6295121908187866,1.1629117727279663
1761334320191264000,4.104263916015625,-0.19621145725250244,-0.3517449200153351,2.344966173171997
1761334320209965300,4.12296533203125,1.521835207939148,0.4450650215148926,2.1678972244262695
1761334320228666600,4.14166650390625,3.8213376998901367,1.4691931009292603,1.734796404838562
1761334320247368200,4.1603681640625,7.63310432434082,2.4191436767578125,0.763310432434082
1761334320266069500,4.179069580078125,11.983255386352539,4.926821708679199,-0.34217363595962524
1761334320284770800,4.197770751953125,16.744972229003906,8.595019340515137,-1.5290136337280273
1761334320303472000,4.21647216796875,19.4010066986084,11.511869430541992,-3.1489546298980713
1761334320322173700,4.235173583984375,20.121246337890625,12.890135765075684,-4.158725738525391
1761334320340875000,4.253875,21.79143524169922,12.547962188720703,-4.268795490264893
1761334320359576300,4.272576416015625,24.98585319519043,12.39721393585205,-1.7204394340515137
1761334320378278000,4.29127783203125,28.50330352783203,12.16511058807373,2.2061824798583984
1761334320396979200,4.309979248046875,26.115266799926758,10.901700019836426,2.778067111968994
1761334320415681300,4.328681396484375,17.503498077392578,8.846264839172363,1.770688772201538
1761334320434382000,4.347382080078125,9.29611587524414,6.029912948608398,1.0336993932724
1761334320453083400,4.36608349609375,5.07517671585083,2.8115665912628174,0.0933200865983963
1761334320471785200,4.38478515625,4.098905086517334,-0.02871387079358101,-1.0241280794143677
1761334320490486300,4.403486328125,1.4620146751403809,-1.6630117893218994,-1.7539390325546265
1761334320509187600,4.4221875,-2.5435705184936523,-2.0745773315429688,-1.9573289155960083
1761334320527889000,4.440888916015625,-4.704289436340332,-2.234896421432495,-1.7204394340515137
1761334320546590500,4.459590576171875,-4.110869407653809,-2.335394859313965,-1.5242279767990112
1761334320565291800,4.478291748046875,-2.266003131866455,-2.280359983444214,-1.337587833404541
1761334320583993000,4.4969931640625,-0.6891329288482666,-1.5146567821502686,-0.12681959569454193
1761334320602694700,4.515694580078125,-0.2919243574142456,-0.641276478767395,0.9116654396057129
1761334320621396000,4.53439599609375,0.4546363055706024,0.0933200865983963,0.8973084688186646
1761334320640097300,4.55309716796875,2.1774685382843018,0.6317051649093628,1.0289137363433838
1761334320658798600,4.571798583984375,5.505885124206543,1.6247265338897705,0.9978070259094238
1761334320677500200,4.590500244140625,11.760723114013672,4.077369689941406,0.5383850932121277
1761334320696201500,4.609201416015625,18.616159439086914,7.592426300048828,-0.7920243144035339
1761334320714902800,4.62790283203125,21.772293090820312,10.423135757446289,-3.2159535884857178
1761334320733604400,4.646604248046875,24.33022117614746,12.708281517028809,-5.134997367858887
1761334320752305700,4.6653056640625,24.94278335571289,13.457234382629395,-4.5200419425964355
1761334320771007000,4.684007080078125,23.74637222290039,14.342578887939453,-2.337787628173828
1761334320789708300,4.702708251953125,24.1866512298584,13.519448280334473,1.4691931009292603
1761334320808409900,4.721409912109375,22.071395874023438,10.63370418548584,3.7112679481506348
1761334320827111200,4.740111083984375,15.498311996459961,7.791030406951904,3.098705291748047
1761334320845812500,4.7588125,10.578668594360352,4.374079704284668,1.222732424736023
1761334320864514000,4.77751416015625,6.16391134262085,1.8305093050003052,0.24167509377002716
1761334320883215400,4.79621533203125,1.332802176475525,0.3206382393836975,-0.29431718587875366
1761334320901916700,4.814916748046875,-3.053241729736328,-0.8542376756668091,-0.8231309652328491
1761334320920618200,4.8336181640625,-4.979464054107666,-1.6175481081008911,-1.098305583000183
1761334320939319600,4.852319580078125,-4.709074974060059,-2.053041934967041,-1.1988041400909424
1761334320958020900,4.871020751953125,-3.5509488582611084,-2.091326951980591,-1.9310078620910645
1761334320976722400,4.889722412109375,-2.234896421432495,-1.7515461444854736,-2.0482561588287354
1761334320995423700,4.908423828125,-0.916451096534729,-1.4093725681304932,-1.155733346939087
1761334321014125000,4.927125,-0.5072783827781677,-0.6604190468788147,0.3278166949748993
1761334321032826600,4.94582666015625,0.41874396800994873,0.2392822653055191,1.098305583000183
1761334321051528000,4.96452783203125,2.163111686706543,1.0360921621322632,1.495514154434204
1761334321070229200,4.983229248046875,4.706682205200195,2.0554347038269043,1.4093725681304932
1761334321088930800,5.001930908203125,9.410971641540527,4.1730828285217285,0.5000999569892883
1761334321107632000,5.020632080078125,17.26421546936035,6.879364967346191,-0.46899324655532837
1761334321126333400,5.03933349609375,23.447269439697266,9.53061294555664,-1.4021940231323242
1761334321145034800,5.05803466796875,22.76770782470703,12.184252738952637,-2.7397818565368652
1761334321163736300,5.076736328125,21.927825927734375,13.708480834960938,-2.6081767082214355
1761334321182437600,5.095437744140625,23.212772369384766,13.14377498626709,-2.6177480220794678
1761334321201139000,5.114138916015625,26.163122177124023,10.686346054077148,-1.9142581224441528
1761334321219840300,5.13284033203125,29.417362213134766,7.793423175811768,-0.07178468257188797
1761334321238541800,5.151541748046875,23.621944427490234,6.309873104095459,1.275374412536621
1761334321257243100,5.1702431640625,12.837493896484375,5.26899528503418,1.3256237506866455
1761334321275944700,5.18894482421875,3.483949661254883,3.4815568923950195,1.4715858697891235
1761334321294646000,5.20764599609375,-2.0506489276885986,1.4500504732131958,0.33020952343940735
1761334321313347300,5.226347412109375,-2.641676187515259,-0.4163511395454407,-1.3519448041915894
1761334321332049000,5.245048828125,-1.9573289155960083,-1.6390835046768188,-1.7994025945663452
1761334321350750200,5.263750244140625,-2.943171739578247,-1.8376877307891846,-1.8137595653533936
1761334321369451500,5.282451416015625,-3.6993038654327393,-1.588834285736084,-2.0650060176849365
1761334321388153000,5.301153076171875,-2.7326035499572754,-1.5314065217971802,-1.730010747909546
1761334321406854400,5.3198544921875,-1.2538390159606934,-1.1437692642211914,-0.6891329288482666
1761334321425555700,5.3385556640625,0.550349235534668,-0.380458801984787,0.06939185410737991
1761334321444257000,5.357257080078125,1.8735800981521606,0.33499518036842346,0.4043870270252228
1761334321462958600,5.37595849609375,3.10109806060791,1.0265209674835205,0.4546363055706024
1761334321481660000,5.394659912109375,4.780859470367432,1.4979069232940674,0.33738797903060913
1761334321500361200,5.413361328125,7.95134973526001,2.4358935356140137,-0.3038884699344635
1761334321519062800,5.432062744140625,11.143375396728516,4.852644443511963,-0.5096712112426758
1761334321537764000,5.45076416015625,14.629717826843262,8.903693199157715,-1.31365966796875
1761334321556465400,5.46946533203125,20.133209228515625,12.083754539489746,-2.1918256282806396
1761334321575166700,5.488166748046875,23.035703659057617,13.780265808105469,-2.2085752487182617
1761334321593868300,5.506868408203125,22.370498657226562,14.411971092224121,-3.541377544403076
1761334321612569600,5.525569580078125,24.727428436279297,13.088739395141602,-0.15074782073497772
1761334321631271000,5.54427099609375,32.958740234375,9.437292098999023,4.027120590209961
1761334321649972500,5.562972412109375,30.922447204589844,7.680960655212402,2.7493531703948975
1761334321668673800,5.581673828125,19.08754539489746,6.8554368019104,1.3615161180496216
1761334321687375400,5.600375244140625,5.352744102478027,5.934200286865234,0.6125625967979431
1761334321706076700,5.61907666015625,-2.2923240661621094,3.19441819190979,0.019142581149935722
1761334321724778000,5.637778076171875,-4.627718925476074,0.5144568681716919,-0.8111668825149536
1761334321743479600,5.6564794921875,-4.823930263519287,-1.1318050622940063,-1.5960127115249634
1761334321762180900,5.675180908203125,-4.0319061279296875,-2.155933141708374,-2.3186452388763428
1761334321780882200,5.693882080078125,-3.414557933807373,-2.5220351219177246,-2.282752752304077
1761334321799583500,5.71258349609375,-2.8809585571289062,-2.414358139038086,-2.043470621109009
1761334321818285000,5.73128515625,-2.4837498664855957,-1.9860427379608154,-1.5912270545959473
1761334321836986400,5.749986328125,-1.9166508913040161,-1.2131611108779907,-0.5742774605751038
1761334321855687700,5.768687744140625,-1.007378339767456,-0.6364908218383789,0.49292147159576416
1761334321874389200,5.78738916015625,0.5527420043945312,0.16031911969184875,0.729810893535614
1761334321893090600,5.806090576171875,2.9479575157165527,0.760917603969574,0.6604190468788147
1761334321911791900,5.8247919921875,5.599205017089844,1.8807586431503296,0.5718846321105957
1761334321930493200,5.8434931640625,9.834501266479492,3.4002010822296143,0.4785645306110382
1761334321949194800,5.86219482421875,17.16371726989746,6.044270038604736,0.6819544434547424
1761334321967896000,5.88089599609375,19.582860946655273,9.107083320617676,-1.4021940231323242
1761334321986597400,5.899597412109375,19.987247467041016,12.256037712097168,-2.060220241546631
1761334322005299000,5.918298828125,20.061424255371094,13.706088066101074,-1.34476637840271
1761334322024000300,5.937000244140625,23.129024505615234,13.442877769470215,1.7491533756256104
1761334322042701600,5.95570166015625,30.03710174560547,11.7056884765625,4.319045066833496
1761334322061403100,5.974403076171875,27.550960540771484,11.069197654724121,2.825923442840576
1761334322080104400,5.9931044921875,20.743379592895508,9.090332984924316,2.289931297302246
1761334322098806000,6.011805908203125,14.096117973327637,6.013163089752197,2.421536445617676
1761334322117507300,6.03050732421875,7.5086774826049805,3.160918712615967,2.108076810836792
1761334322136208600,6.049208740234375,1.093519926071167,0.7680960893630981,0.8039883971214294
1761334322154910000,6.067909912109375,-2.8594231605529785,-0.916451096534729,-0.8183453679084778
1761334322173611500,6.086611572265625,-4.460221290588379,-1.892722725868225,-2.311466693878174
1761334322192312800,6.105312744140625,-3.531806230545044,-2.4765713214874268,-3.38105845451355
1761334322211014100,6.12401416015625,-2.0506489276885986,-2.7493531703948975,-2.8043880462646484
1761334322229715700,6.1427158203125,-1.3591232299804688,-2.493321180343628,-1.6582261323928833
1761334322248417000,6.1614169921875,-1.5601203441619873,-1.7635103464126587,-0.885344386100769
1761334322267118300,6.180118408203125,-0.6652047038078308,-0.7872386574745178,0.27756741642951965
1761334322285819600,6.198819580078125,1.852044701576233,-0.2560320198535919,1.1198409795761108
1761334322304521200,6.217521240234375,5.723631858825684,0.6245267391204834,1.1198409795761108
1761334322323222500,6.236222412109375,8.784051895141602,1.679761528968811,0.6843472719192505
1761334322341923800,6.254923828125,10.482955932617188,4.268795490264893,-0.32303106784820557
1761334322360625400,6.27362548828125,13.780265808105469,8.0350980758667,-1.0049854516983032
1761334322379326700,6.29232666015625,18.1088809967041,11.60279655456543,-0.7441678643226624
1761334322398028000,6.311028076171875,22.480567932128906,12.531211853027344,0.6771687865257263
1761334322416729600,6.3297294921875,24.6556453704834,12.145967483520508,1.8161523342132568
1761334322435431000,6.348430908203125,28.9005126953125,12.04786205291748,4.515256404876709
1761334322454132200,6.36713232421875,36.09572982788086,10.884950637817383,7.0683979988098145
1761334322472833800,6.385833740234375,28.955547332763672,10.29870891571045,4.1730828285217285
1761334322491535000,6.40453515625,16.910078048706055,8.444271087646484,0.9667003750801086
1761334322510236400,6.423236328125,8.303094863891602,5.527420520782471,-0.3038884699344635
1761334322528938000,6.44193798828125,2.210968017578125,2.5220351219177246,-0.7130611538887024
1761334322547639300,6.460639404296875,-2.2372891902923584,0.08374879509210587,-1.5242279767990112
1761334322566340600,6.479340576171875,-4.082155227661133,-1.5936198234558105,-1.8592232465744019
1761334322585042000,6.4980419921875,-4.742574691772461,-2.4358935356140137,-2.3162522315979004
1761334322603743500,6.516743408203125,-4.5822553634643555,-2.8211379051208496,-2.273181438446045
1761334322622444800,6.53544482421875,-3.7088751792907715,-2.768495798110962,-2.469393014907837
1761334322641146000,6.55414599609375,-2.644068956375122,-2.2061824798583984,-1.7826528549194336
1761334322659847700,6.57284765625,-1.074377417564392,-1.3232308626174927,-0.16749759018421173
1761334322678549000,6.591549072265625,1.0648061037063599,-0.5024927258491516,1.0169496536254883
1761334322697250300,6.610250244140625,2.857030153274536,0.4019941985607147,1.3926228284835815
1761334322715951600,6.62895166015625,5.032105922698975,1.368694543838501,1.210768222808838
1761334322734653200,6.647653076171875,6.187839508056641,2.313859462738037,0.31106695532798767
1761334322753354500,6.6663544921875,7.341179847717285,3.720839262008667,-0.44027936458587646
1761334322772056000,6.68505615234375,9.477970123291016,6.489335060119629,-0.8614161610603333
1761334322790757400,6.70375732421875,14.043476104736328,10.72702407836914,-1.954936146736145
1761334322809458700,6.722458740234375,19.697715759277344,13.550554275512695,-1.703689694404602
1761334322828160300,6.74116015625,22.537996292114258,14.790037155151367,-0.7058826684951782
1761334322846861600,6.759861572265625,25.65584373474121,15.333207130432129,1.526620864868164
1761334322865563000,6.77856298828125,31.50868797302246,14.902499198913574,4.1970109939575195
1761334322884264400,6.797264404296875,30.57548713684082,14.376078605651855,3.8261234760284424
1761334322902965800,6.8159658203125,20.633310317993164,13.062418937683105,1.3926228284835815
1761334322921667000,6.8346669921875,11.593225479125977,9.525827407836914,0.23688943684101105
1761334322940368400,6.853368408203125,4.323830604553223,5.395814895629883,0.05024927482008934
1761334322959070000,6.872070068359375,0.7393822073936462,1.4883357286453247,-0.2153540402650833
1761334322977771300,6.890771240234375,-1.0959128141403198,-1.1509476900100708,-0.8973084688186646
1761334322996472600,6.90947265625,-2.337787628173828,-2.376072883605957,-1.4787644147872925
1761334323015174100,6.928174072265625,-3.0029923915863037,-2.5842485427856445,-1.399801254272461
1761334323033875500,6.94687548828125,-2.218146562576294,-2.526820659637451,-0.7872386574745178
1761334323052576800,6.96557666015625,-1.1174482107162476,-2.2707886695861816,-0.22492532432079315
1761334323071278000,6.984278076171875,-0.9092726111412048,-1.730010747909546,0.10767702013254166
1761334323089979600,7.002979736328125,-1.0671988725662231,-0.9643075466156006,-0.08614161610603333
1761334323108681000,7.021680908203125,-0.07417750358581543,0.019142581149935722,-0.17706887423992157
1761334323127382300,7.04038232421875,1.4763715267181396,0.6245267391204834,0.11964113265275955
1761334323146083800,7.059083740234375,2.5938198566436768,0.9284151792526245,0.4259224236011505
1761334323164785200,7.07778515625,3.3236305713653564,1.2346965074539185,0.3326023519039154
1761334323183486500,7.096486572265625,5.13021183013916,2.5196423530578613,-0.13160525262355804
1761334323202188000,7.11518798828125,10.511670112609863,5.723631858825684,-0.5814558863639832
1761334323220889300,7.133889404296875,14.414363861083984,10.222138404846191,-1.3471591472625732
1761334323239590700,7.152590576171875,17.06082534790039,13.722837448120117,-2.0099709033966064
1761334323258292200,7.171292236328125,19.812570571899414,15.594025611877441,-2.2133610248565674
1761334323276993500,7.18999365234375,20.7362003326416,16.450654983520508,-2.3736801147460938
1761334323295694800,7.20869482421875,29.228328704833984,15.665809631347656,1.2538390159606934
1761334323314396400,7.227396484375,32.93241882324219,14.983855247497559,3.893122434616089
1761334323333097700,7.24609765625,23.186450958251953,12.92602825164795,1.4787644147872925
1761334323351799000,7.264799072265625,13.00499153137207,9.585647583007812,0.6939185857772827
1761334323370500600,7.28350048828125,5.383851051330566,6.262016773223877,0.9906286001205444
1761334323389202000,7.302201904296875,0.9619147181510925,2.981456995010376,0.5886343717575073
1761334323407903200,7.3209033203125,0.8901300430297852,-0.10767702013254166,-0.6221339106559753
1761334323426604500,7.3396044921875,-0.8949156403541565,-1.3184453248977661,-0.9116654396057129
1761334323445306000,7.35830615234375,-2.885744094848633,-1.7084753513336182,-1.038485050201416
1761334323464007400,7.37700732421875,-3.5222349166870117,-2.1032910346984863,-0.7872386574745178
1761334323482708700,7.395708740234375,-2.991028308868408,-2.2301106452941895,-0.9667003750801086
1761334323501410000,7.41441015625,-1.6079767942428589,-2.0027925968170166,-0.9260223507881165
1761334323520111600,7.433111572265625,-0.6939185857772827,-1.0241280794143677,-0.16749759018421173
1761334323538813000,7.45181298828125,1.0289137363433838,-0.0023928226437419653,0.42352959513664246
1761334323557514200,7.47051416015625,3.1202406883239746,0.8374879360198975,1.1102696657180786
1761334323576215800,7.4892158203125,4.701896667480469,1.6582261323928833,1.7611174583435059
1761334323594917000,7.507917236328125,5.166104316711426,2.4909284114837646,1.2275179624557495
1761334323613618400,7.526618408203125,7.853243827819824,3.6634113788604736,0.48574298620224
1761334323632320000,7.545320068359375,11.985648155212402,6.022734642028809,0.6843472719192505
1761334323651021300,7.564021240234375,14.510076522827148,8.63330364227295,0.27038896083831787
1761334323669722600,7.58272265625,17.345571517944336,11.341979026794434,-1.4572290182113647
1761334323688424200,7.601424072265625,19.286149978637695,13.363914489746094,-1.3854442834854126
1761334323707125500,7.62012548828125,20.295921325683594,14.029119491577148,-1.3639088869094849
1761334323725826800,7.638826904296875,25.90709114074707,13.682159423828125,1.2131611108779907
1761334323744528400,7.6575283203125,31.298120498657227,13.679766654968262,3.13220477104187
1761334323763229700,7.676229736328125,24.98585319519043,13.146167755126953,1.8161523342132568
1761334323781931000,7.694930908203125,17.55613899230957,10.265209197998047,1.8664016723632812
1761334323800632600,7.713632568359375,10.001998901367188,6.628118515014648,2.170290231704712
1761334323819334000,7.732333984375,2.620140790939331,3.5581271648406982,1.6055840253829956
1761334323838035200,7.75103515625,-1.098305583000183,1.0671988725662231,0.016749758273363113
1761334323856736500,7.769736572265625,-2.0650060176849365,-0.9690931439399719,-1.2729816436767578
1761334323875438000,7.78843798828125,-3.0652058124542236,-1.6558332443237305,-1.919043779373169
1761334323894139400,7.807139404296875,-3.8045880794525146,-2.0745773315429688,-2.146361827850342
1761334323912840700,7.8258408203125,-3.4743785858154297,-2.1367905139923096,-1.7324036359786987
1761334323931542300,7.844542236328125,-2.5914268493652344,-2.007578134536743,-0.8470591902732849
1761334323950243600,7.86324365234375,-1.2658032178878784,-1.6151553392410278,0.4331009089946747
1761334323968945000,7.88194482421875,-0.08135596662759781,-0.882951557636261,1.4093725681304932
1761334323987646200,7.900646240234375,1.5242279767990112,-0.29431718587875366,1.153340458869934
1761334324006347800,7.91934765625,2.691925525665283,0.46899324655532837,0.760917603969574
1761334324025049000,7.938049072265625,4.878965377807617,1.9166508913040161,0.5551348328590393
1761334324043750400,7.95675048828125,8.920442581176758,3.7950167655944824,0.02632104977965355
1761334324062452000,7.975451904296875,14.895320892333984,6.5252275466918945,-0.5359922647476196
1761334324081153300,7.9941533203125,17.082361221313477,9.729216575622559,-1.6055840253829956
1761334324099854600,8.0128544921875,15.158531188964844,13.208380699157715,-3.895515203475952
1761334324118556200,8.03155615234375,14.708681106567383,14.926427841186523,-3.5988051891326904
1761334324137257500,8.050257568359376,20.659629821777344,13.926227569580078,0.6460621356964111
1761334324155958800,8.068958740234375,31.881969451904297,11.045269012451172,4.1730828285217285
1761334324174660400,8.087660400390625,29.871997833251953,12.122039794921875,2.0410776138305664
1761334324193361700,8.106361572265625,20.102102279663086,12.655638694763184,0.2727817893028259
1761334324212063000,8.12506298828125,13.667802810668945,9.58325481414795,-0.7106683254241943
1761334324230764500,8.1437646484375,8.496912956237793,5.599205017089844,0.3086741268634796
1761334324249465900,8.1624658203125,3.596412420272827,2.3330020904541016,0.5670989751815796
1761334324268167200,8.181167236328125,0.42831525206565857,-0.48574298620224,-0.3278166949748993
1761334324286868500,8.199868408203125,-2.2779672145843506,-2.1367905139923096,-1.8783657550811768
1761334324305570000,8.218570068359375,-2.7732813358306885,-2.7397818565368652,-2.445464849472046
1761334324324271400,8.237271240234374,-1.4524433612823486,-3.0580272674560547,-1.8424733877182007
1761334324342972700,8.25597265625,-1.4213366508483887,-2.9862427711486816,-1.0552347898483276
1761334324361674200,8.27467431640625,-2.4119651317596436,-2.266003131866455,-0.5862415432929993
1761334324380375600,8.29337548828125,-1.770688772201538,-1.4787644147872925,0
1761334324399076900,8.312076904296875,0.14835500717163086,-0.5407779216766357,0.12442677468061447
1761334324417778200,8.330778076171875,2.100898265838623,0.6005984544754028,0.5623133182525635
1761334324436479700,8.349479736328124,4.058227062225342,1.7515461444854736,1.1318050622940063
1761334324455181000,8.36818115234375,6.137589931488037,3.1274192333221436,0.4211367964744568
1761334324473882400,8.38688232421875,9.674181938171387,4.5583271980285645,-0.638883650302887
1761334324492584000,8.405583984375,14.859428405761719,7.472784996032715,-1.1126625537872314
1761334324511285200,8.42428515625,20.688344955444336,10.454241752624512,-1.8424733877182007
1761334324529986600,8.442986572265625,24.449861526489258,11.650653839111328,-0.2512463629245758
1761334324548688000,8.46168798828125,24.17229461669922,12.88056468963623,1.9836499691009521
1761334324567389400,8.480389404296876,26.861827850341797,12.832707405090332,4.565505504608154
1761334324586090800,8.4990908203125,30.774091720581055,11.358729362487793,5.355136871337891
1761334324604792000,8.5177919921875,25.90709114074707,9.9469633102417,2.59621262550354
1761334324623493600,8.53649365234375,18.235700607299805,7.714460372924805,0.5096712112426758
1761334324642195000,8.55519482421875,10.700702667236328,5.257031440734863,0.2225325107574463
1761334324660896300,8.573896240234374,3.081955671310425,2.7900311946868896,0.4163511395454407
1761334324679597800,8.592597900390626,-3.177668571472168,0.607776939868927,-0.26560330390930176
1761334324698299100,8.611299072265625,-5.996413707733154,-0.914058268070221,-1.399801254272461
1761334324717000400,8.63000048828125,-5.819344520568848,-1.9310078620910645,-2.179861545562744
1761334324735702000,8.648701904296875,-4.376472473144531,-2.6273193359375,-2.902493953704834
1761334324754403300,8.6674033203125,-2.9072794914245605,-2.6967110633850098,-2.699103832244873
1761334324773104600,8.686104736328126,-2.4717857837677,-2.115255117416382,-1.9980069398880005
1761334324791806200,8.70480615234375,-2.100898265838623,-1.4715858697891235,-1.1892328262329102
1761334324810507500,8.723507568359375,-0.6867401003837585,-0.8207381963729858,-0.14356936514377594
1761334324829208800,8.742208740234375,1.7228323221206665,-0.23688943684101105,0.8207381963729858
1761334324847910100,8.76091015625,5.266602516174316,0.009571290574967861,1.2131611108779907
1761334324866611700,8.77961181640625,8.288737297058105,1.0504491329193115,0.9954141974449158
1761334324885313000,8.79831298828125,10.767702102661133,2.4598217010498047,0.849452018737793
1761334324904014300,8.817014404296875,17.34078598022461,4.264009952545166,1.3232308626174927
1761334324922716000,8.8357158203125,22.705493927001953,7.221538543701172,0.9379864931106567
1761334324941417200,8.854417236328125,24.746572494506836,10.05703353881836,0.9595218896865845
1761334324960118500,8.873118408203124,27.897918701171875,12.023933410644531,3.5820555686950684
1761334324978819800,8.89181982421875,31.786256790161133,11.655439376831055,5.994020938873291
1761334324997521400,8.910521484375,31.838897705078125,11.483156204223633,4.780859470367432
1761334325016222700,8.92922265625,25.777877807617188,11.150553703308105,2.988635540008545
1761334325034924000,8.947924072265625,17.12064552307129,9.851250648498535,3.1680972576141357
1761334325053625600,8.96662548828125,8.094919204711914,7.2430739402771,2.287538528442383
1761334325072327000,8.985326904296874,1.4500504732131958,3.964907169342041,1.5146567821502686
1761334325091028200,9.0040283203125,-2.084148406982422,0.9092726111412048,0.672383189201355
1761334325109729500,9.0227294921875,-3.761517286300659,-1.2921242713928223,-1.0504491329193115
1761334325128431000,9.04143115234375,-3.9696927070617676,-2.775674343109131,-2.65842604637146
1761334325147132400,9.06013232421875,-3.4887354373931885,-3.6299118995666504,-3.242274761199951
1761334325165833700,9.078833740234375,-3.3954153060913086,-3.862015724182129,-3.342773199081421
1761334325184535300,9.097535400390624,-2.861815929412842,-3.4241292476654053,-3.201596736907959
1761334325203236600,9.116236572265626,-1.0097711086273193,-2.6464617252349854,-2.392822742462158
1761334325221938000,9.13493798828125,1.2083754539489746,-1.765903115272522,-0.9930213689804077
1761334325240639200,9.15363916015625,3.1968109607696533,-0.7393822073936462,0.1579262912273407
1761334325259340800,9.1723408203125,3.8883368968963623,0.37806597352027893,0.7728816866874695
1761334325278042000,9.1910419921875,3.88594388961792,1.5744773149490356,0.7489534616470337
1761334325296743400,9.209743408203124,4.785645484924316,2.7876384258270264,1.9525432586669922
1761334325315445000,9.228445068359376,6.123233318328857,4.697110652923584,2.1607189178466797
1761334325334146300,9.247146240234375,8.559126853942871,8.128418922424316,0.9427721500396729
1761334325352847600,9.26584765625,13.373485565185547,10.913663864135742,0.15314064919948578
1761334325371549200,9.284549072265625,20.58066749572754,12.818350791931152,1.6342978477478027
1761334325390250500,9.30325048828125,27.201608657836914,12.739387512207031,2.9551360607147217
1761334325408951800,9.321951904296874,30.295528411865234,13.296915054321289,3.555734395980835
1761334325427653000,9.340653076171876,32.48974609375,13.950156211853027,6.238088607788086
1761334325446354700,9.359354736328125,29.74517822265625,13.234702110290527,6.970292568206787
1761334325465056000,9.378055908203125,20.559131622314453,11.145768165588379,4.9986066818237305
1761334325483757300,9.39675732421875,13.696516990661621,8.23848819732666,0.035892341285943985
1761334325502459000,9.415458984375,10.102497100830078,5.056034088134766,-1.8544375896453857
1761334325521160200,9.43416015625,4.72582483291626,2.1535403728485107,-0.20338992774486542
1761334325539861500,9.452861572265626,-1.430907964706421,0.2632105052471161,0.1052841991186142
1761334325558563000,9.47156298828125,-4.089334011077881,-1.2849457263946533,0.20578274130821228
1761334325577264400,9.490264404296875,-4.467400074005127,-2.122433662414551,-0.4570291340351105
1761334325595965700,9.508965576171875,-3.9314076900482178,-2.4574289321899414,-1.4715858697891235
1761334325614667300,9.527667236328124,-2.469393014907837,-2.0315065383911133,-1.0671988725662231
1761334325633368600,9.54636865234375,-1.2011969089508057,-1.1461620330810547,0.4737788736820221
1761334325652070000,9.56506982421875,1.0169496536254883,-0.7465606927871704,0.9643075466156006
1761334325670771200,9.583771240234375,2.012363910675049,-0.4737788736820221,0.5862415432929993
1761334325689472800,9.60247265625,2.8498518466949463,0.31106695532798767,0.23210379481315613
1761334325708174000,9.621174072265624,4.278367042541504,1.062413215637207,1.1389836072921753
1761334325726875400,9.63987548828125,4.053441524505615,1.9812572002410889,1.3088740110397339
1761334325745577000,9.658576904296876,4.012763500213623,2.66560435295105,0.8973084688186646
1761334325764278300,9.6772783203125,5.867201328277588,4.5200419425964355,0.4259224236011505
1761334325782979600,9.6959794921875,8.516056060791016,6.745367050170898,0.7393822073936462
1761334325801681000,9.714680908203125,11.059626579284668,7.886743545532227,-0.20338992774486542
1761334325820382500,9.733382568359374,14.555540084838867,9.975677490234375,0.3613162338733673
1761334325839083800,9.752083740234376,19.898712158203125,10.576275825500488,1.7778671979904175
1761334325857785000,9.77078515625,25.435705184936523,10.805987358093262,4.4243292808532715
1761334325876486400,9.789486328125,28.44587516784668,13.110275268554688,7.546962738037109
1761334325895188000,9.80818798828125,24.279972076416016,14.794822692871094,2.957528829574585
1761334325913889300,9.82688916015625,20.700307846069336,14.4263277053833,0.8398807644844055
1761334325932590600,9.845590576171874,19.070796966552734,11.600403785705566,0.3756731450557709
1761334325951292200,9.864292236328126,16.106088638305664,8.049455642700195,-0.5838487148284912
1761334325969993500,9.882993408203125,11.81336498260498,4.878965377807617,-0.5216353535652161
1761334325988694800,9.90169482421875,4.264009952545166,2.9072794914245605,1.2705888748168945
1761334326007396000,9.92039599609375,0.2991028428077698,1.397408366203308,1.160519003868103
1761334326026097700,9.93909765625,-0.2799602448940277,-0.2105683982372284,0.016749758273363113
1761334326044799000,9.957799072265624,-0.576670229434967,-1.0911271572113037,-1.0432707071304321
1761334326063500300,9.976500244140626,-2.280359983444214,-1.3926228284835815,-0.7010970115661621
1761334326082201900,9.995201904296875,-2.7086751461029053,-1.1772687435150146,0.2105683982372284
1761334326100903200,10.013903076171875,-1.423729419708252,-1.2969099283218384,0.24646073579788208
1761334326119604500,10.0326044921875,-0.2225325107574463,-1.3710874319076538,-0.13160525262355804
1761334326138305800,10.051305908203124,0.13639089465141296,-0.9762716293334961,0.0023928226437419653
1761334326157007400,10.07000732421875,1.0145567655563354,0.10049854964017868,0.13878370821475983
1761334326175708700,10.088708740234376,2.2779672145843506,1.1724830865859985,0.2273181527853012
1761334326194410000,10.107409912109375,3.297309637069702,1.6558332443237305,0.4618147611618042
1761334326213111300,10.126111328125,4.347758769989014,2.4023938179016113,0.6915257573127747
1761334326231812900,10.144812744140625,6.491727828979492,4.685146808624268,0.6149554252624512
1761334326250514200,10.16351416015625,9.32722282409668,8.496912956237793,1.0815558433532715
1761334326269215500,10.182215576171876,12.746565818786621,12.148360252380371,1.2299108505249023
1761334326287917000,10.2009169921875,16.28794288635254,14.32582950592041,0.8422735929489136
1761334326306618400,10.219618408203125,18.647266387939453,13.907085418701172,1.8999011516571045
1761334326325319700,10.238319580078125,22.497318267822266,12.540783882141113,4.4482574462890625
1761334326344021200,10.257021240234375,31.97768211364746,11.645867347717285,6.376872539520264
1761334326362722600,10.27572265625,32.027931213378906,11.614761352539062,3.0269205570220947
1761334326381423900,10.294423828125,23.06202507019043,11.10030460357666,1.038485050201416
1761334326400125200,10.313125244140625,13.701302528381348,9.547362327575684,0.8350951075553894
1761334326418826800,10.33182666015625,6.941578388214111,6.247660160064697,0.8135597109794617
1761334326437528000,10.350528076171875,4.567898273468018,2.799602508544922,-0.11246266216039658
1761334326456229400,10.3692294921875,2.359323024749756,0.3852444589138031,-0.41156548261642456
1761334326474931000,10.387930908203124,-0.3613162338733673,-0.5072783827781677,-0.03349951654672623
1761334326493632300,10.40663232421875,-2.878565549850464,-0.7657032608985901,-0.41156548261642456
1761334326512333600,10.42533349609375,-3.428914785385132,-0.8590233325958252,-0.4378865361213684
1761334326531035100,10.44403515625,-2.227717876434326,-1.007378339767456,-0.15553347766399384
1761334326549736400,10.462736328125,-0.7848458290100098,-0.9954141974449158,-0.17706887423992157
1761334326568437800,10.481437744140624,-0.24406790733337402,-0.7920243144035339,-0.007178467698395252
1761334326587139000,10.50013916015625,1.153340458869934,-0.7465606927871704,0.275174617767334
1761334326605840600,10.518840576171876,2.287538528442383,-0.23688943684101105,1.1581261157989502
1761334326624542000,10.5375419921875,1.3710874319076538,1.1341979503631592,2.093719720840454
1761334326643243300,10.5562431640625,4.388436794281006,2.562713146209717,1.643869161605835
1761334326661944800,10.57494482421875,7.621140003204346,3.19441819190979,-0.4666004180908203
