time,seconds_elapsed,z,y,x
1761333855996110000,0.053110107421875,0,0,0
1761333856014810000,0.07181005859375,-0.1517343521118164,-0.07634806632995605,-0.04495054483413696
1761333856033510400,0.090510498046875,-0.05329704284667969,-0.14317846298217773,-0.06705073267221451
1761333856052210400,0.10921044921875,0.02468395233154297,-0.22664642333984375,-0.11494708061218262
1761333856070910500,0.127910400390625,0.10909748077392578,-0.30677032470703125,-0.059386104345321655
1761333856089610500,0.146610595703125,0.30846500396728516,-0.27225327491760254,-0.03667958080768585
1761333856108310500,0.165310546875,0.3445758819580078,-0.12259078025817871,-0.04975678026676178
1761333856127010800,0.1840107421875,0.19753360748291016,-0.039879798889160156,0.06285075098276138
1761333856145710800,0.2027109375,0.12972640991210938,0.0664527416229248,0.18889257311820984
1761333856164411000,0.221410888671875,0.20814895629882812,0.13358473777770996,0.2472459226846695
1761333856183111000,0.24011083984375,0.12272071838378906,0.22463583946228027,0.2900666296482086
1761333856201811000,0.25881103515625,0.24878597259521484,0.24155640602111816,0.49411702156066895
1761333856220511200,0.27751123046875,0.4409828186035156,0.1114732027053833,0.6251603364944458
1761333856239211300,0.296211181640625,0.15148353576660156,0.14966189861297607,0.4193764925003052
1761333856257911300,0.314911376953125,-0.21905231475830078,0.12219691276550293,0.29703474044799805
1761333856276611300,0.333611328125,-0.11522960662841797,0.03576862812042236,0.34491387009620667
1761333856295311400,0.352311279296875,0.19445037841796875,-0.03830850124359131,0.49366843700408936
1761333856314011600,0.37101171875,0.1255350112915039,0.0443880558013916,0.4625142216682434
1761333856332711700,0.389711669921875,-0.010374069213867188,0.06112027168273926,0.4972210228443146
1761333856351411700,0.40841162109375,-0.01779460906982422,0.023358821868896484,0.48943644762039185
1761333856370111700,0.42711181640625,-0.16160964965820312,0.0659325122833252,0.4134092628955841
1761333856388811800,0.445811767578125,-0.27730751037597656,0.19640517234802246,0.3601648807525635
1761333856407512000,0.464511962890625,-0.17012596130371094,0.31908631324768066,0.39918702840805054
1761333856426212000,0.483212158203125,-0.09166717529296875,0.4470036029815674,0.30412718653678894
1761333856444912000,0.501912109375,0.10780715942382812,0.3949284553527832,0.41841980814933777
1761333856463612200,0.520612060546875,0.09106159210205078,0.32219648361206055,0.18635252118110657
1761333856482312200,0.539312255859375,0.05945873260498047,0.1538715362548828,-0.029314756393432617
1761333856501012500,0.558012451171875,0.172027587890625,-0.01448512077331543,-0.28271186351776123
1761333856519712500,0.57671240234375,0.43540000915527344,-0.17795681953430176,-0.31932374835014343
1761333856538412500,0.59541259765625,0.47757911682128906,-0.20733428001403809,-0.333440363407135
1761333856557112600,0.614112548828125,0.306793212890625,0.037242889404296875,-0.3910468816757202
1761333856575812600,0.6328125,0.3238945007324219,0.2391045093536377,-0.2910439074039459
1761333856594513000,0.651512939453125,0.3613309860229492,0.34865283966064453,-0.06847888231277466
1761333856613213000,0.670212890625,0.21082305908203125,0.5553281307220459,-0.08728986978530884
1761333856631913000,0.688912841796875,0.023229598999023438,0.6422004699707031,-0.0674104392528534
1761333856650613000,0.707613037109375,-0.15604496002197266,0.6169962882995605,0.02852436900138855
1761333856669313000,0.72631298828125,-0.22153949737548828,0.39974522590637207,0.024235308170318604
1761333856688013300,0.745013427734375,-0.29635047912597656,0.10550737380981445,-0.19122374057769775
1761333856706713300,0.76371337890625,-0.2509613037109375,-0.08799338340759277,-0.31145501136779785
1761333856725413400,0.782413330078125,-0.034119606018066406,-0.37555432319641113,-0.2683894634246826
1761333856744113400,0.801113525390625,-0.021512985229492188,-0.5151588916778564,-0.3357697129249573
1761333856762813400,0.8198134765625,-0.23572731018066406,-0.5331215858459473,-0.4969745874404907
1761333856781513700,0.838513671875,-0.33743953704833984,-0.5019160509109497,-0.5257469415664673
1761333856800213800,0.8572138671875,-0.2533607482910156,-0.4649012088775635,-0.4718223214149475
1761333856818913800,0.875913818359375,-0.16133594512939453,-0.4282510280609131,-0.4995719790458679
1761333856837613800,0.89461376953125,-0.13074302673339844,-0.2532665729522705,-0.5454459190368652
1761333856856313900,0.91331396484375,-0.1231536865234375,-0.11667919158935547,-0.4235568642616272
1761333856875014100,0.93201416015625,-0.04407501220703125,0.09148097038269043,-0.22018972039222717
1761333856893714200,0.950714111328125,0.04092979431152344,0.13953471183776855,-0.06895580887794495
1761333856912414200,0.969414306640625,0.11929798126220703,0.2179582118988037,-0.1592472940683365
1761333856931114200,0.9881142578125,0.24219036102294922,0.16250872611999512,-0.025461658835411072
1761333856949814300,1.006814208984375,0.26419830322265625,0.13572382926940918,0.10775259137153625
1761333856968514600,1.0255146484375,0.2415294647216797,0.08090376853942871,0.20158442854881287
1761333856987214600,1.044214599609375,0.13587379455566406,0.030126571655273438,0.27154290676116943
1761333857005914600,1.06291455078125,0.0151519775390625,-0.08162808418273926,0.30488425493240356
1761333857024614700,1.08161474609375,-0.04855918884277344,-0.08946943283081055,0.2588789761066437
1761333857043314700,1.100314697265625,-0.24122047424316406,-0.11742973327636719,0.14576175808906555
1761333857062015000,1.119014892578125,-0.17203521728515625,-0.1394181251525879,0.10017567873001099
1761333857080715000,1.137715087890625,0.09944725036621094,-0.24751532077789307,0.05694437026977539
1761333857099415000,1.1564150390625,0.2344369888305664,-0.236275315284729,-0.016262710094451904
1761333857118115000,1.175114990234375,0.19937610626220703,-0.1360173225402832,0.060274600982666016
1761333857136815000,1.193815185546875,0.11931324005126953,0.08328580856323242,0.11176836490631104
1761333857155515400,1.212515380859375,-0.03616905212402344,0.32654762268066406,0.2727191150188446
1761333857174215400,1.23121533203125,-0.17231464385986328,0.6220541000366211,0.4617304503917694
1761333857192915500,1.24991552734375,-0.2516794204711914,0.8248181343078613,0.5451188087463379
1761333857211615500,1.268615478515625,-0.11285972595214844,0.8194634914398193,0.5225399732589722
1761333857230315500,1.2873154296875,0.27274131774902344,0.6698741912841797,0.5670042037963867
1761333857249015800,1.306015869140625,0.7029027938842773,0.3475937843322754,0.5514118671417236
1761333857267715800,1.3247158203125,0.691798210144043,0.1383044719696045,0.349263072013855
1761333857286416000,1.343415771484375,0.3297758102416992,0.006928920745849609,0.07011634111404419
1761333857305116000,1.362115966796875,0.11150550842285156,-0.1479189395904541,-0.1262499988079071
1761333857323816200,1.380816162109375,0.008953094482421875,-0.377352237701416,-0.12241384387016296
1761333857342516200,1.39951611328125,-0.09765911102294922,-0.45946383476257324,-0.27288275957107544
1761333857361216300,1.41821630859375,-0.1869945526123047,-0.4321606159210205,-0.4062801003456116
1761333857379916300,1.436916259765625,-0.13412189483642578,-0.4725412130355835,-0.2910832166671753
1761333857398616300,1.4556162109375,-0.04135322570800781,-0.4023329019546509,0.01684686541557312
1761333857417316600,1.474316650390625,-0.12187480926513672,-0.20722389221191406,0.24431708455085754
1761333857436016600,1.4930166015625,-0.2564535140991211,-0.11988711357116699,0.3328697085380554
1761333857454716700,1.511716552734375,-0.34823036193847656,-0.012830734252929688,0.37651512026786804
1761333857473416700,1.530416748046875,-0.2785167694091797,0.0472874641418457,0.39316025376319885
1761333857492116700,1.54911669921875,-0.09145832061767578,0.100311279296875,0.283437043428421
1761333857510817000,1.567817138671875,0.058403968811035156,0.09892940521240234,0.042167842388153076
1761333857529517000,1.58651708984375,0.09145736694335938,0.09658360481262207,-0.14121484756469727
1761333857548217000,1.605217041015625,0.018877029418945312,0.10732173919677734,-0.32746368646621704
1761333857566917000,1.623917236328125,0.016867637634277344,0.038021087646484375,-0.5181957483291626
1761333857585617200,1.6426171875,0.07388877868652344,-0.05112338066101074,-0.5178301930427551
1761333857604317400,1.6613173828125,0.04279041290283203,-0.1474616527557373,-0.48217886686325073
1761333857623017500,1.680017578125,-0.11940956115722656,-0.10759139060974121,-0.49755457043647766
1761333857641717500,1.698717529296875,-0.06482982635498047,-0.08895397186279297,-0.3394877314567566
1761333857660417500,1.71741748046875,0.0862112045288086,-0.0046749114990234375,-0.17987746000289917
1761333857679117600,1.73611767578125,0.17435646057128906,0.012682914733886719,-0.06861235201358795
1761333857697817900,1.75481787109375,0.10930538177490234,0.06804537773132324,0.050636470317840576
1761333857716518000,1.773517822265625,0.03002452850341797,0.05088996887207031,0.13250556588172913
1761333857735218000,1.792218017578125,-0.08373069763183594,0.020097732543945312,0.05225418508052826
1761333857753918000,1.81091796875,-0.184783935546875,0.016379594802856445,0.02847328782081604
1761333857772618000,1.829617919921875,-0.18536949157714844,0.032332420349121094,0.036056190729141235
1761333857791318300,1.848318359375,-0.13825321197509766,0.12418842315673828,0.07014220952987671
1761333857810018300,1.867018310546875,0.032784461975097656,0.2025146484375,0.1859135627746582
1761333857828718300,1.88571826171875,0.2707328796386719,0.1822831630706787,0.2135728895664215
1761333857847418400,1.90441845703125,0.34165000915527344,0.18560361862182617,0.0756552517414093
1761333857866118700,1.92311865234375,0.1686697006225586,0.1508471965789795,0.08494061231613159
1761333857884818700,1.941818603515625,-0.0052242279052734375,0.0325312614440918,0.10158106684684753
1761333857903518700,1.960518798828125,-0.06457805633544922,-0.1701524257659912,-0.01769968867301941
1761333857922218800,1.97921875,-0.06623077392578125,-0.2933647632598877,-0.09523271024227142
1761333857940918800,1.997918701171875,0.027435302734375,-0.310474157333374,-0.08810508251190186
1761333857959619000,2.016619140625,0.029636383056640625,-0.22184181213378906,-0.13473939895629883
1761333857978319000,2.035319091796875,-0.033568382263183594,-0.16031694412231445,-0.019617050886154175
1761333857997019100,2.05401904296875,-0.03810882568359375,-0.0786142349243164,0.14984288811683655
1761333858015719200,2.07271923828125,-0.036014556884765625,0.015230417251586914,0.21477621793746948
1761333858034419200,2.091419189453125,-0.050635337829589844,0.09914398193359375,0.3611040711402893
1761333858053119500,2.110119384765625,-0.011647224426269531,0.1457843780517578,0.4566250145435333
1761333858071819500,2.128819580078125,0.12540149688720703,0.1617298126220703,0.44785770773887634
1761333858090519600,2.14751953125,0.16063690185546875,0.14760375022888184,0.3149094879627228
1761333858109219600,2.166219482421875,0.06717967987060547,0.10745000839233398,0.12598496675491333
1761333858127919600,2.184919677734375,-0.08135318756103516,0.05177950859069824,-0.11118060350418091
1761333858146620000,2.203619873046875,-0.0714406967163086,-0.10273599624633789,-0.3072401285171509
1761333858165320000,2.22231982421875,-0.01741313934326172,-0.18094491958618164,-0.2572029232978821
1761333858184020000,2.24102001953125,-0.10041522979736328,-0.10771894454956055,-0.12042081356048584
1761333858202720000,2.259719970703125,-0.12773895263671875,-0.01372075080871582,-0.140283465385437
1761333858221420000,2.278419921875,0.013288497924804688,-0.004325389862060547,-0.1194358766078949
1761333858240120300,2.297120361328125,0.08660888671875,0.028334856033325195,-0.042587459087371826
1761333858258820400,2.3158203125,0.001575469970703125,0.08063673973083496,0.03297245502471924
1761333858277520400,2.334520263671875,-0.12225151062011719,0.10134601593017578,0.027408212423324585
1761333858296220700,2.353220703125,-0.1868915557861328,0.051506996154785156,-0.0438271164894104
1761333858314920400,2.37192041015625,-0.25963401794433594,-0.06278681755065918,-0.1638863980770111
1761333858333620700,2.390620849609375,-0.20699501037597656,-0.1567230224609375,-0.3027800917625427
1761333858352320800,2.40932080078125,-0.1501293182373047,-0.22582268714904785,-0.2866157293319702
1761333858371020800,2.428020751953125,-0.18352413177490234,-0.23557233810424805,-0.31558579206466675
1761333858389721000,2.44672119140625,-0.18090057373046875,-0.12198543548583984,-0.22095459699630737
1761333858408421000,2.465421142578125,0.0804586410522461,0.11260771751403809,-0.07413160800933838
1761333858427121200,2.48412109375,0.35495567321777344,0.4134714603424072,0.09997396171092987
1761333858445821200,2.5028212890625,0.49137210845947266,0.6833949089050293,0.32832691073417664
1761333858464521200,2.521521240234375,0.5409479141235352,0.7343347072601318,0.4247324764728546
1761333858483221500,2.540221435546875,0.5091590881347656,0.47478795051574707,0.3125208616256714
1761333858501921500,2.558921630859375,0.40572643280029297,0.05950927734375,-0.01861715316772461
1761333858520621600,2.57762158203125,0.08963871002197266,-0.2225499153137207,-0.232028529047966
1761333858539321600,2.596321533203125,-0.22712039947509766,-0.28969740867614746,-0.3519066870212555
1761333858558021600,2.615021728515625,-0.3364524841308594,-0.27904796600341797,-0.4455024302005768
1761333858576722000,2.633721923828125,-0.2949991226196289,-0.27914929389953613,-0.3059989809989929
1761333858595422000,2.652421875,-0.22304821014404297,-0.20225739479064941,-0.18452182412147522
1761333858614122000,2.6711220703125,-0.1401214599609375,-0.0875399112701416,-0.18544074892997742
1761333858632822000,2.689822021484375,-0.12091732025146484,0.018512964248657227,-0.23782634735107422
1761333858651522300,2.708522216796875,-0.042122840881347656,0.030793428421020508,-0.06202945113182068
1761333858670222300,2.727222412109375,0.1459064483642578,0.044181108474731445,0.12466201186180115
1761333858688922400,2.74592236328125,0.31963443756103516,0.010727405548095703,0.23983702063560486
1761333858707622400,2.764622314453125,0.26885414123535156,-0.02984786033630371,0.29432472586631775
1761333858726322400,2.783322509765625,0.06498432159423828,-0.03963661193847656,0.29217708110809326
1761333858745022700,2.802022705078125,-0.18579864501953125,-0.038519859313964844,0.24347054958343506
1761333858763722800,2.82072265625,-0.2800149917602539,0.003387451171875,0.1832123100757599
1761333858782422800,2.8394228515625,-0.27768421173095703,-0.015717029571533203,0.15927040576934814
1761333858801122800,2.858122802734375,-0.14366722106933594,-0.04756522178649902,0.09699597954750061
1761333858819822800,2.87682275390625,-0.020867347717285156,-0.08375144004821777,0.09852755069732666
1761333858838523100,2.895523193359375,-0.014412879943847656,-0.12706995010375977,0.06033620238304138
1761333858857223200,2.91422314453125,-0.06891632080078125,-0.1045682430267334,0.10006317496299744
1761333858875923200,2.932923095703125,-0.08200836181640625,-0.046124935150146484,0.10790953040122986
1761333858894623200,2.951623291015625,-0.04599189758300781,-0.007344484329223633,0.10330981016159058
1761333858913323500,2.970323486328125,-0.0626678466796875,0.028496503829956055,0.11542558670043945
1761333858932023600,2.9890234375,-0.06269359588623047,0.03620505332946777,0.12781399488449097
1761333858950723600,3.0077236328125,0.015949249267578125,-0.05051374435424805,0.18332239985466003
1761333858969423600,3.026423583984375,0.080535888671875,-0.14562702178955078,0.1964544653892517
1761333858988123600,3.04512353515625,0.031249046325683594,-0.2592356204986572,0.18011057376861572
1761333859006824000,3.063823974609375,-0.25864696502685547,-0.17632102966308594,-0.07063019275665283
1761333859025524000,3.08252392578125,-0.3180055618286133,-0.0452723503112793,-0.35705721378326416
1761333859044224000,3.10122412109375,-0.12935447692871094,0.10405087471008301,-0.36891093850135803
1761333859062924300,3.11992431640625,0.1651477813720703,0.2823808193206787,-0.07310204207897186
1761333859081624000,3.1386240234375,0.4258718490600586,0.498490571975708,0.15236476063728333
1761333859100324400,3.157324462890625,0.5332603454589844,0.5906453132629395,0.21496468782424927
1761333859119024400,3.1760244140625,0.3758678436279297,0.6051576137542725,0.1733887791633606
1761333859137724400,3.194724365234375,0.13397789001464844,0.4262580871582031,0.06611552834510803
1761333859156424700,3.2134248046875,-0.006733894348144531,0.042893409729003906,-0.12854811549186707
1761333859175124700,3.232124755859375,-0.019843101501464844,-0.24770522117614746,-0.3222530484199524
1761333859193824800,3.25082470703125,0.0045986175537109375,-0.383608341217041,-0.34034794569015503
1761333859212524800,3.26952490234375,-0.10031700134277344,-0.35562872886657715,-0.3450830280780792
1761333859231224800,3.288224853515625,-0.16030502319335938,-0.19770145416259766,-0.23103608191013336
1761333859249925000,3.306925048828125,-0.22592544555664062,-0.04880928993225098,-0.13655082881450653
1761333859268625200,3.325625244140625,-0.2038555145263672,0.030222654342651367,-0.06597495079040527
1761333859287325200,3.3443251953125,-0.04831218719482422,0.056864023208618164,-0.07018402218818665
1761333859306025200,3.363025146484375,0.19091129302978516,0.03236269950866699,-0.04814299941062927
1761333859324725500,3.3817255859375,0.2478504180908203,0.05227398872375488,-0.026404857635498047
1761333859343425500,3.400425537109375,0.22751426696777344,0.08602738380432129,0.023516356945037842
1761333859362125600,3.41912548828125,0.1475353240966797,-0.02062082290649414,0.027910858392715454
1761333859380825600,3.43782568359375,0.04970550537109375,-0.034562110900878906,0.04414570331573486
1761333859399525600,3.456525634765625,-0.019159317016601562,-0.07141685485839844,0.05084332823753357
1761333859418226000,3.475225830078125,-0.044112205505371094,-0.09963655471801758,0.051279157400131226
1761333859436926000,3.493926025390625,-0.1643991470336914,-0.09249043464660645,-0.010168105363845825
1761333859455626000,3.5126259765625,-0.28853607177734375,-0.11959481239318848,-0.018094390630722046
1761333859474326300,3.531326171875,-0.30020713806152344,-0.15244245529174805,-0.018113374710083008
1761333859493026300,3.5500263671875,-0.24753665924072266,-0.15136051177978516,-0.037540316581726074
1761333859511726300,3.568726318359375,-0.14436626434326172,-0.1348264217376709,-0.02763625979423523
1761333859530426400,3.58742626953125,-0.04919147491455078,-0.10382914543151855,-0.034087955951690674
1761333859549126400,3.60612646484375,0.02456378936767578,-0.05894875526428223,-0.06131696701049805
1761333859567826700,3.62482666015625,0.0660858154296875,0.00214385986328125,0.0632147490978241
1761333859586526700,3.643526611328125,0.08248519897460938,0.05047607421875,0.1872413456439972
1761333859605226800,3.662226806640625,0.06163787841796875,0.0634000301361084,0.15313738584518433
1761333859623926800,3.6809267578125,0.059708595275878906,-0.03712964057922363,0.18297085165977478
1761333859642627000,3.699626953125,0.03000640869140625,-0.12347030639648438,0.04196685552597046
1761333859661327000,3.7183271484375,-0.06621551513671875,-0.26457691192626953,-0.07568046450614929
1761333859680027100,3.737027099609375,-0.15363788604736328,-0.21139907836914062,-0.06461784243583679
1761333859698727400,3.7557275390625,-0.10074138641357422,-0.0808553695678711,0.0924089252948761
1761333859717427200,3.77442724609375,-0.04213523864746094,0.2436373233795166,0.19225206971168518
1761333859736127500,3.79312744140625,0.06821727752685547,0.5911426544189453,0.3437918424606323
1761333859754827500,3.81182763671875,0.14734935760498047,0.865342378616333,0.46857717633247375
1761333859773527600,3.830527587890625,0.1286945343017578,0.8627209663391113,0.4962156116962433
1761333859792227800,3.849227783203125,0.17864418029785156,0.678281307220459,0.1700236201286316
1761333859810927900,3.867927978515625,0.052336692810058594,0.2969372272491455,-0.07719382643699646
1761333859829628000,3.8866279296875,-0.1719503402709961,-0.019025087356567383,-0.34907370805740356
1761333859848328000,3.905327880859375,0.012178421020507812,-0.23769021034240723,-0.4753151535987854
1761333859867028200,3.9240283203125,0.4795112609863281,-0.3824143409729004,-0.38255730271339417
1761333859885728300,3.942728271484375,0.5063009262084961,-0.38674020767211914,-0.3006422519683838
1761333859904428300,3.96142822265625,0.18544578552246094,-0.15277838706970215,-0.3286396563053131
1761333859923128600,3.980128662109375,-0.14287376403808594,-0.10002970695495605,-0.18590080738067627
1761333859941828600,3.99882861328125,-0.1867504119873047,-0.13660836219787598,0.030089914798736572
1761333859960528600,4.017528564453125,-0.16284561157226562,-0.2462313175201416,0.14774847030639648
1761333859979228700,4.036228759765625,-0.185516357421875,-0.19693613052368164,0.12678104639053345
1761333859997928700,4.0549287109375,-0.09801292419433594,-0.12636446952819824,0.09197700023651123
1761333860016629000,4.07362890625,-0.06733417510986328,-0.05826544761657715,0.05228540301322937
1761333860035329000,4.0923291015625,-0.15758991241455078,0.056401968002319336,0.10156339406967163
1761333860054029000,4.111029052734375,-0.15920639038085938,0.10206151008605957,0.029113680124282837
1761333860072729000,4.12972900390625,-0.012425422668457031,0.011238813400268555,-0.13217559456825256
1761333860091429400,4.148429443359375,0.19918441772460938,-0.08953261375427246,-0.171786367893219
1761333860110129400,4.16712939453125,0.24853134155273438,-0.12299871444702148,-0.18660113215446472
1761333860128829400,4.185829345703125,0.16701889038085938,-0.19396185874938965,-0.1724437177181244
1761333860147529700,4.20452978515625,0.0881509780883789,-0.22164535522460938,-0.16393911838531494
1761333860166229800,4.223229736328125,-0.060456275939941406,-0.17982077598571777,-0.09340667724609375
1761333860184929800,4.2419296875,-0.2165508270263672,-0.10808324813842773,-0.006397634744644165
1761333860203629800,4.2606298828125,-0.26338672637939453,-0.027639389038085938,0.060301363468170166
1761333860222330000,4.279330078125,-0.10060691833496094,-0.008143901824951172,0.10540691018104553
1761333860241030100,4.298030029296875,0.10593605041503906,-0.0504450798034668,0.10757938027381897
1761333860259730200,4.316730224609375,0.11689949035644531,-0.13784289360046387,0.1556015908718109
1761333860278430200,4.33543017578125,-0.035004615783691406,-0.2087850570678711,0.040362030267715454
1761333860297130200,4.354130126953125,-0.23808670043945312,-0.2465229034423828,0.01112985610961914
1761333860315830500,4.37283056640625,-0.2842903137207031,-0.31461310386657715,0.047845155000686646
1761333860334530600,4.391530517578125,-0.15951156616210938,-0.29735302925109863,0.023917585611343384
1761333860353230600,4.410230712890625,-0.07842159271240234,-0.08487272262573242,0.021652579307556152
1761333860371930600,4.4289306640625,-0.11808300018310547,0.29151415824890137,0.12952721118927002
1761333860390631000,4.447630859375,-0.07690143585205078,0.6177723407745361,0.2968057692050934
1761333860409331000,4.4663310546875,0.1254587173461914,0.7956328392028809,0.39206111431121826
1761333860428031000,4.485031005859375,0.48026180267333984,0.7624156475067139,0.5121211409568787
1761333860446731300,4.503731201171875,0.6855392456054688,0.5122880935668945,0.4729499816894531
1761333860465431300,4.522431396484375,0.5209617614746094,0.13665103912353516,0.18701648712158203
1761333860484131300,4.54113134765625,0.12863445281982422,-0.14485883712768555,-0.16352033615112305
1761333860502831400,4.559831298828125,-0.24570655822753906,-0.2748410701751709,-0.38830986618995667
1761333860521531600,4.57853173828125,-0.4014883041381836,-0.27187180519104004,-0.4965159296989441
1761333860540231700,4.597231689453125,-0.29776477813720703,-0.21990442276000977,-0.4638979136943817
1761333860558931700,4.615931640625,0.03711414337158203,-0.14844965934753418,-0.24136503040790558
1761333860577632000,4.634632080078125,0.182220458984375,-0.07328414916992188,-0.06257379055023193
1761333860596332000,4.65333203125,0.11566829681396484,0.06134796142578125,-0.060104578733444214
1761333860615032000,4.672031982421875,-0.07199859619140625,0.06260323524475098,0.25544556975364685
1761333860633732000,4.690732177734375,-0.1403636932373047,0.012349843978881836,0.17557638883590698
1761333860652432400,4.709432373046875,-0.1028432846069336,-0.07390594482421875,0.08856692910194397
1761333860671132400,4.72813232421875,0.02849292755126953,-0.18101716041564941,0.09625667333602905
1761333860689832400,4.74683251953125,0.05704307556152344,-0.18194031715393066,0.044607311487197876
1761333860708532500,4.765532470703125,-0.07344818115234375,-0.1436169147491455,-0.11974519491195679
1761333860727232500,4.784232421875,-0.17893600463867188,-0.14263033866882324,-0.10114896297454834
1761333860745932800,4.802932861328125,-0.2251300811767578,-0.1343083381652832,-0.1974068284034729
1761333860764632800,4.8216328125,-0.11217975616455078,-0.08948040008544922,-0.2025471329689026
1761333860783332900,4.840332763671875,0.02163982391357422,-0.0038127899169921875,-0.05091920495033264
1761333860802033200,4.859033203125,0.056148529052734375,0.09387683868408203,0.048473894596099854
1761333860820733200,4.877733154296875,0.035820960998535156,0.1213531494140625,0.08224785327911377
1761333860839433200,4.89643310546875,-0.05099773406982422,0.13828206062316895,0.019210219383239746
1761333860858133200,4.91513330078125,-0.07230091094970703,0.046807289123535156,0.04017654061317444
1761333860876833500,4.93383349609375,-0.07691574096679688,-0.06312417984008789,-0.02059885859489441
1761333860895533600,4.952533447265625,-0.02591705322265625,-0.1600949764251709,-0.02327713370323181
1761333860914233600,4.971233642578125,0.000545501708984375,-0.16562986373901367,-0.1303652822971344
1761333860932934000,4.989933837890625,-0.1157827377319336,-0.14305472373962402,-0.19307249784469604
1761333860951634000,5.008634033203125,-0.1925954818725586,0.008518218994140625,-0.11717551946640015
1761333860970334000,5.027333984375,-0.2214345932006836,0.1639389991760254,0.09782856702804565
1761333860989034000,5.046033935546875,-0.07532119750976562,0.32726621627807617,0.26144158840179443
1761333861007734300,5.064734375,0.3181190490722656,0.43291211128234863,0.2744790017604828
1761333861026434300,5.083434326171875,0.5956134796142578,0.5436122417449951,0.36065709590911865
1761333861045134300,5.10213427734375,0.5141754150390625,0.6216654777526855,0.45043864846229553
1761333861063834600,5.120834716796875,0.26996707916259766,0.5400381088256836,0.4103650748729706
1761333861082534700,5.13953466796875,0.1781473159790039,0.2686958312988281,0.2211335301399231
1761333861101234700,5.158234619140625,0.09176063537597656,0.040781259536743164,-0.05295976996421814
1761333861119934700,5.176934814453125,-0.05903339385986328,-0.21081900596618652,-0.26307642459869385
1761333861138635000,5.195635009765625,-0.2283611297607422,-0.3651745319366455,-0.4862514138221741
1761333861157335000,5.2143349609375,-0.28789615631103516,-0.4114997386932373,-0.5925973653793335
1761333861176035000,5.23303515625,-0.2018423080444336,-0.3882749080657959,-0.5286224484443665
1761333861194735000,5.251735107421875,-0.1894702911376953,-0.2789726257324219,-0.39655524492263794
1761333861213435400,5.270435302734375,-0.19677257537841797,-0.1713879108428955,-0.2838309109210968
1761333861232135400,5.289135498046875,-0.10212993621826172,-0.10091280937194824,-0.157215416431427
1761333861250835500,5.30783544921875,0.09399604797363281,-0.03495621681213379,0.05145910382270813
1761333861269535700,5.32653564453125,0.22300052642822266,0.048116445541381836,0.20437243580818176
1761333861288235800,5.34523583984375,0.23436355590820312,0.07040047645568848,0.15082111954689026
1761333861306935800,5.363935791015625,0.1059560775756836,0.02727198600769043,0.08782804012298584
1761333861325635800,5.3826357421875,-0.10187053680419922,-0.006471157073974609,0.011653691530227661
1761333861344336100,5.401336181640625,-0.16400814056396484,-0.08613348007202148,0.06382575631141663
1761333861363036200,5.4200361328125,-0.07134437561035156,-0.10439038276672363,-0.03562334179878235
1761333861381736200,5.438736083984375,-0.10097789764404297,-0.14708328247070312,0.008840084075927734
1761333861400436500,5.4574365234375,-0.3658876419067383,-0.04425644874572754,-0.032337337732315063
1761333861419136500,5.476136474609375,-0.36208248138427734,-0.021068572998046875,-0.11631840467453003
1761333861437836800,5.4948369140625,0.005706787109375,-0.05155205726623535,-0.12874341011047363
1761333861456536800,5.513536865234375,0.3871183395385742,-0.07523059844970703,-0.016025394201278687
1761333861475236900,5.53223681640625,0.45268726348876953,-0.10757708549499512,-0.04292339086532593
1761333861493937000,5.55093701171875,0.217559814453125,-0.12151455879211426,-0.06063148379325867
1761333861512637200,5.56963720703125,-0.0675058364868164,-0.13018298149108887,-0.003858804702758789
1761333861531337200,5.588337158203125,-0.0851907730102539,-0.22512531280517578,0.09112516045570374
1761333861550037200,5.607037353515625,0.011803627014160156,-0.29244017601013184,0.15570205450057983
1761333861568737500,5.625737548828125,-0.031998634338378906,-0.22942042350769043,0.09837347269058228
1761333861587437600,5.6444375,-0.1802806854248047,0.018106937408447266,0.0823814868927002
1761333861606137600,5.6631376953125,-0.2679300308227539,0.22494816780090332,0.22645303606987
1761333861624837600,5.681837646484375,-0.14609146118164062,0.5006320476531982,0.3811616599559784
1761333861643538000,5.700537841796875,0.07839393615722656,0.6921031475067139,0.5282721519470215
1761333861662238000,5.719238037109375,0.34238433837890625,0.6974163055419922,0.5853905081748962
1761333861680938000,5.73793798828125,0.6017446517944336,0.5319209098815918,0.498280793428421
1761333861699638300,5.75663818359375,0.6562356948852539,0.23578858375549316,0.26420503854751587
1761333861718338300,5.77533837890625,0.2123861312866211,-0.039258480072021484,-0.0845220685005188
1761333861737038300,5.794038330078125,-0.3002815246582031,-0.29070305824279785,-0.4073900282382965
1761333861755738400,5.81273828125,-0.4386482238769531,-0.4391171932220459,-0.6016905903816223
1761333861774438700,5.831438720703125,-0.3321981430053711,-0.5525979995727539,-0.7423723340034485
1761333861793138700,5.850138671875,-0.18849849700927734,-0.4949638843536377,-0.6522501707077026
1761333861811838700,5.868838623046875,-0.06138324737548828,-0.2514641284942627,-0.4274134337902069
1761333861830538800,5.887538818359375,0.0847635269165039,-0.009956121444702148,-0.18650974333286285
1761333861849239000,5.906239013671875,0.14701366424560547,0.12026047706604004,0.0800117552280426
1761333861867939000,5.92493896484375,0.1563549041748047,0.14483904838562012,0.25133174657821655
1761333861886639400,5.943639404296875,0.17507171630859375,0.09368324279785156,0.3351389765739441
1761333861905339400,5.96233935546875,0.09327030181884766,-0.004512786865234375,0.2626489996910095
1761333861924039400,5.981039306640625,-0.07495689392089844,-0.0798344612121582,0.14485400915145874
1761333861942739700,5.99973974609375,-0.18434906005859375,-0.12660717964172363,0.03453895449638367
1761333861961439700,6.018439697265625,-0.3027667999267578,-0.14010357856750488,0.006746441125869751
1761333861980139800,6.037139892578125,-0.35787200927734375,-0.12321662902832031,-0.011568576097488403
1761333861998839800,6.05583984375,-0.23508453369140625,-0.09849214553833008,0.02902078628540039
1761333862017540000,6.0745400390625,-0.02653026580810547,-0.03440260887145996,0.09927982091903687
1761333862036240100,6.093240234375,0.0702972412109375,0.021404504776000977,0.048233628273010254
1761333862054940200,6.111940185546875,0.052490234375,0.0594024658203125,-0.03571680188179016
1761333862073640400,6.130640380859375,0.07545852661132812,0.07750988006591797,-0.05688506364822388
1761333862092340500,6.149340576171875,0.1961517333984375,0.08216524124145508,-0.03706666827201843
1761333862111040500,6.16804052734375,0.2551231384277344,0.10032820701599121,0.05979833006858826
1761333862129740500,6.186740478515625,0.2504005432128906,0.08114004135131836,0.07184770703315735
1761333862148440800,6.20544091796875,0.0625600814819336,0.03477835655212402,0.09691563248634338
1761333862167140900,6.224140869140625,-0.26172733306884766,-0.019555091857910156,0.10020574927330017
1761333862185841200,6.242841064453125,-0.4088134765625,-0.07089972496032715,-0.060352444648742676
1761333862204541200,6.261541259765625,-0.1629924774169922,-0.19998764991760254,-0.09399974346160889
1761333862223241200,6.2802412109375,0.09542083740234375,-0.14021062850952148,0.019508391618728638
1761333862241941500,6.29894140625,0.08094024658203125,0.041413068771362305,0.01078033447265625
1761333862260641500,6.3176416015625,-0.1064300537109375,0.2479867935180664,-0.007743120193481445
1761333862279341600,6.336341552734375,-0.09241294860839844,0.43523097038269043,0.13463473320007324
1761333862298041600,6.35504150390625,0.1355133056640625,0.5414392948150635,0.23497429490089417
1761333862316742000,6.373741943359375,0.40991783142089844,0.4900381565093994,0.26897576451301575
1761333862335442000,6.39244189453125,0.5278863906860352,0.35011935234069824,0.14934375882148743
1761333862354142000,6.411141845703125,0.49269771575927734,0.11355400085449219,0.16615843772888184
1761333862372842200,6.42984228515625,0.16444110870361328,-0.021436691284179688,0.03504094481468201
1761333862391542300,6.448542236328125,-0.17560863494873047,-0.11124897003173828,-0.1925266683101654
1761333862410242300,6.4672421875,-0.33316612243652344,-0.18253087997436523,-0.308907687664032
1761333862428942600,6.485942626953125,-0.27057647705078125,-0.15914392471313477,-0.2397627830505371
1761333862447642600,6.504642578125,-0.04272174835205078,-0.20402836799621582,-0.1997753381729126
1761333862466342700,6.5233427734375,-0.018401145935058594,-0.21320676803588867,-0.20541244745254517
1761333862485043000,6.54204296875,-0.052776336669921875,-0.21390438079833984,-0.09995314478874207
1761333862503743000,6.560742919921875,-0.037540435791015625,-0.1561415195465088,-0.04161709547042847
1761333862522443000,6.579443115234375,-0.06344413757324219,-0.10045361518859863,-0.03542652726173401
1761333862541143000,6.59814306640625,-0.03530597686767578,-0.09563970565795898,0.0735115110874176
1761333862559843300,6.61684326171875,0.05188560485839844,-0.12008976936340332,0.0494694709777832
1761333862578543400,6.63554345703125,0.038402557373046875,-0.14459943771362305,-0.05017369985580444
1761333862597243600,6.65424365234375,-0.07505989074707031,-0.11855816841125488,-0.14611884951591492
1761333862615943700,6.672943603515625,-0.15246105194091797,-0.14075803756713867,-0.16605466604232788
1761333862634643700,6.691643798828125,-0.24714279174804688,-0.14093279838562012,-0.18062569200992584
1761333862653344000,6.710343994140625,-0.14829540252685547,-0.13111543655395508,-0.18816730380058289
1761333862672044000,6.7290439453125,-0.07207584381103516,-0.11481332778930664,-0.17781075835227966
1761333862690744000,6.747744140625,-0.07537078857421875,-0.06570219993591309,-0.094134122133255
1761333862709444000,6.766444091796875,-0.12783050537109375,-0.042371511459350586,-0.15700748562812805
1761333862728144400,6.785144287109375,0.11299705505371094,0.018691301345825195,0.09697926044464111
1761333862746844400,6.803844482421875,0.28054141998291016,0.04971051216125488,0.18624421954154968
1761333862765544700,6.822544677734375,0.22263145446777344,0.0735163688659668,0.14293712377548218
1761333862784244700,6.84124462890625,0.13260841369628906,0.07389068603515625,0.13833603262901306
1761333862802944800,6.85994482421875,0.12956714630126953,0.00635218620300293,0.19900637865066528
1761333862821644800,6.878644775390625,0.026536941528320312,-0.04982352256774902,0.13070452213287354
1761333862840345000,6.897344970703125,-0.21079730987548828,-0.09323763847351074,0.050406962633132935
1761333862859045000,6.916045166015625,-0.25679874420166016,-0.09226799011230469,0.026456594467163086
1761333862877745400,6.934745361328125,-0.03334522247314453,-0.002698183059692383,0.023924797773361206
1761333862896445400,6.953445556640625,0.10117053985595703,0.12824010848999023,0.23872721195220947
1761333862915145500,6.9721455078125,0.01770782470703125,0.29929375648498535,0.35578709840774536
1761333862933845800,6.990845703125,-0.008274078369140625,0.4548985958099365,0.2881952226161957
1761333862952545800,7.0095458984375,0.1674022674560547,0.5239622592926025,0.28726059198379517
1761333862971245800,7.028245849609375,0.32353782653808594,0.5580127239227295,0.32599467039108276
1761333862989945900,7.04694580078125,0.4041175842285156,0.47298216819763184,0.3242059051990509
1761333863008646100,7.065646240234375,0.3977222442626953,0.27977561950683594,0.24638959765434265
1761333863027346200,7.08434619140625,0.06165885925292969,0.043209075927734375,-0.07699689269065857
1761333863046046500,7.10304638671875,-0.30751514434814453,-0.15910935401916504,-0.30833756923675537
1761333863064746500,7.12174658203125,-0.4445657730102539,-0.35327768325805664,-0.4763520061969757
1761333863083446500,7.140446533203125,-0.24071407318115234,-0.4045531749725342,-0.47105279564857483
1761333863102146800,7.159146728515625,-0.07283687591552734,-0.35491943359375,-0.44250044226646423
1761333863120846800,7.177846923828125,0.0011014938354492188,-0.19774627685546875,-0.3106883764266968
1761333863139547000,7.196546875,0.012281417846679688,-0.04392123222351074,-0.12699514627456665
1761333863158247200,7.2152470703125,0.11582088470458984,-0.006630659103393555,0.04235255718231201
1761333863176947200,7.233947265625,0.15779972076416016,-0.03748750686645508,0.1057768166065216
1761333863195647200,7.252647216796875,0.04694938659667969,-0.07345294952392578,0.031545668840408325
1761333863214347500,7.271347412109375,-0.044097900390625,-0.11411571502685547,0.011036276817321777
1761333863233047600,7.290047607421875,-0.0882425308227539,-0.07496380805969238,-0.051685631275177
1761333863251747800,7.308747802734375,-0.1545095443725586,-0.09565520286560059,-0.05553305149078369
1761333863270447900,7.32744775390625,-0.17750930786132812,-0.07237696647644043,-0.013426393270492554
1761333863289148000,7.34614794921875,-0.11860370635986328,-0.07572007179260254,0.08534526824951172
1761333863307848000,7.364847900390625,-0.00916290283203125,-0.036338090896606445,0.09876954555511475
1761333863326548200,7.38354833984375,-0.07147598266601562,-0.030192852020263672,0.033456236124038696
1761333863345248300,7.402248291015625,-0.1763019561767578,-0.033064842224121094,-0.044205039739608765
1761333863363948300,7.4209482421875,-0.1577739715576172,-0.042929649353027344,-0.10870715975761414
1761333863382648600,7.439648681640625,-0.06088733673095703,-0.029654264450073242,-0.1425487995147705
1761333863401348600,7.4583486328125,0.03983783721923828,-0.02904200553894043,-0.1835232377052307
1761333863420049000,7.477048828125,0.07469940185546875,-0.00821828842163086,-0.13179674744606018
1761333863438749000,7.4957490234375,0.13204097747802734,-0.033014774322509766,-0.05753031373023987
1761333863457449000,7.514448974609375,0.1018972396850586,-0.07715559005737305,-0.04313379526138306
1761333863476149000,7.53314892578125,0.015000343322753906,-0.1734156608581543,-0.0804823637008667
1761333863494849300,7.551849365234375,-0.06179332733154297,-0.2005929946899414,0.047543227672576904
1761333863513549300,7.57054931640625,-0.13829421997070312,-0.11764311790466309,0.13760659098625183
1761333863532249600,7.58924951171875,-0.10947608947753906,0.014540910720825195,0.17893385887145996
1761333863550949600,7.60794970703125,-0.05580711364746094,0.18263912200927734,0.27578577399253845
1761333863569649700,7.626649658203125,0.11068344116210938,0.43816280364990234,0.4327509105205536
1761333863588349700,7.645349609375,0.22375011444091797,0.631951093673706,0.553217887878418
1761333863607050000,7.664050048828125,0.29890918731689453,0.6510417461395264,0.5884820222854614
1761333863625750000,7.68275,0.4010810852050781,0.5351908206939697,0.50941002368927
1761333863644450300,7.7014501953125,0.3540306091308594,0.2876698970794678,0.420609712600708
1761333863663150300,7.720150390625,0.1279926300048828,0.09518766403198242,0.09211289882659912
1761333863681850400,7.738850341796875,-0.08060169219970703,-0.08967089653015137,-0.2801229655742645
1761333863700550700,7.757550537109375,-0.024254798889160156,-0.2924230098724365,-0.38571298122406006
1761333863719250700,7.776250732421875,0.11762619018554688,-0.417957067489624,-0.33661699295043945
1761333863737951000,7.794950927734375,0.002819061279296875,-0.43116796016693115,-0.4387407898902893
1761333863756651000,7.813651123046875,-0.2564554214477539,-0.3546428680419922,-0.47566691040992737
1761333863775351000,7.83235107421875,-0.4266319274902344,-0.32027316093444824,-0.381255179643631
1761333863794051000,7.851051025390625,-0.3348541259765625,-0.2722475528717041,-0.26823917031288147
1761333863812751400,7.86975146484375,-0.11956405639648438,-0.2167046070098877,-0.1461104154586792
1761333863831451400,7.888451416015625,0.0650339126586914,-0.14054274559020996,0.02286013960838318
1761333863850151700,7.907151611328125,0.16738033294677734,-0.06644821166992188,0.1523304283618927
1761333863868851700,7.925851806640625,0.15881729125976562,0.0014986991882324219,0.21453642845153809
1761333863887551700,7.9445517578125,0.09942913055419922,0.014833450317382812,0.15036699175834656
1761333863906252000,7.963251953125,0.030366897583007812,0.03199625015258789,0.06409281492233276
1761333863924952000,7.9819521484375,-0.05757427215576172,-0.014111518859863281,-0.05444824695587158
1761333863943652000,8.000652099609376,-0.14504241943359375,0.020404815673828125,-0.030976057052612305
1761333863962352400,8.019352294921875,-0.12537765502929688,-0.021840572357177734,-0.03217029571533203
1761333863981052400,8.038052490234374,-0.06524372100830078,-0.025560617446899414,-0.0961408019065857
1761333863999752400,8.05675244140625,-0.08661270141601562,-0.048239707946777344,-0.1287432610988617
1761333864018452700,8.07545263671875,-0.023572921752929688,-0.05054068565368652,-0.06834101676940918
1761333864037152800,8.09415283203125,-0.01883983612060547,-0.00621795654296875,-0.04910948872566223
1761333864055853000,8.11285302734375,-0.05607795715332031,-0.04111766815185547,-0.030231446027755737
1761333864074553000,8.131552978515625,-0.04719734191894531,-0.0221865177154541,0.021645277738571167
1761333864093253400,8.15025341796875,-0.06482601165771484,-0.08050012588500977,0.029934436082839966
1761333864111953400,8.168953369140626,-0.04645824432373047,-0.1680448055267334,0.011514335870742798
1761333864130653400,8.1876533203125,-0.0038099288940429688,-0.205230712890625,0.05739656090736389
1761333864149353500,8.206353515625,-0.09522342681884766,-0.18593192100524902,0.027250289916992188
1761333864168053800,8.2250537109375,-0.22491455078125,-0.09102582931518555,-0.052078574895858765
1761333864186753800,8.24375390625,-0.28212833404541016,0.07958102226257324,-0.026713311672210693
1761333864205454000,8.2624541015625,-0.09126472473144531,0.37023091316223145,0.3039070665836334
1761333864224154000,8.281154052734376,0.18930816650390625,0.6666779518127441,0.5571697354316711
1761333864242854100,8.299854248046875,0.3929595947265625,0.7996470928192139,0.6601917743682861
1761333864261554200,8.31855419921875,0.4446563720703125,0.8097493648529053,0.5499567985534668
1761333864280254500,8.33725439453125,0.5351467132568359,0.5559790134429932,0.28732800483703613
1761333864298954500,8.35595458984375,0.4405679702758789,0.13917326927185059,-0.017598330974578857
1761333864317654800,8.37465478515625,0.23759174346923828,-0.22397994995117188,-0.3530743718147278
1761333864336354800,8.393354736328124,-0.011609077453613281,-0.48307013511657715,-0.676676332950592
1761333864355054800,8.412054931640625,-0.34436893463134766,-0.6353392601013184,-0.7945607900619507
1761333864373755100,8.430755126953125,-0.578648567199707,-0.5578536987304688,-0.6563274264335632
1761333864392455200,8.449455078125,-0.44157981872558594,-0.3713967800140381,-0.6355835199356079
1761333864411155500,8.468155517578126,-0.016008377075195312,-0.2509251832962036,-0.28844696283340454
1761333864429855500,8.48685546875,0.346710205078125,0.04011821746826172,0.09007522463798523
1761333864448555500,8.505555419921874,0.34915733337402344,0.2113018035888672,0.35716763138771057
1761333864467255800,8.524255859375,0.12675094604492188,0.2918713092803955,0.37920746207237244
1761333864485955800,8.542955810546875,0.06529808044433594,0.1732323169708252,0.2289724349975586
1761333864504656000,8.56165576171875,0.08688163757324219,-0.03245401382446289,0.08543524146080017
1761333864523356200,8.580356201171876,0.1285419464111328,-0.1641700267791748,-0.026121556758880615
1761333864542056200,8.59905615234375,-0.007818222045898438,-0.2682194709777832,-0.15548211336135864
1761333864560756500,8.617756591796875,-0.2069416046142578,-0.2337203025817871,-0.2676774561405182
1761333864579456500,8.63645654296875,-0.3304157257080078,-0.13670921325683594,-0.13822369277477264
1761333864598156500,8.655156494140625,-0.2993764877319336,-0.036246538162231445,-0.017747730016708374
1761333864616856600,8.673856689453125,-0.1939373016357422,0.0022842884063720703,0.0716756284236908
1761333864635556900,8.692556884765626,-0.050518035888671875,0.10692429542541504,0.12828341126441956
1761333864654257000,8.7112568359375,0.08858966827392578,0.06495881080627441,0.16926270723342896
1761333864672957200,8.729957275390625,0.12081623077392578,0.08164167404174805,0.18602117896080017
1761333864691657200,8.7486572265625,-0.14114761352539062,0.07162237167358398,0.09966373443603516
1761333864710357500,8.767357421875,-0.2831277847290039,-0.0007097721099853516,0.017628371715545654
1761333864729057500,8.7860576171875,-0.17900371551513672,-0.08457183837890625,0.009828716516494751
1761333864747757600,8.804757568359374,-0.08580970764160156,-0.09729433059692383,0.01180317997932434
1761333864766457900,8.823457763671875,-0.01630878448486328,-0.06780409812927246,-0.011954009532928467
1761333864785158000,8.842157958984375,0.010128974914550781,0.07074904441833496,-0.03569817543029785
1761333864803858000,8.86085791015625,0.0636434555053711,0.26395630836486816,0.06092488765716553
1761333864822558200,8.87955810546875,0.1648273468017578,0.4076108932495117,0.2544550895690918
1761333864841258200,8.89825830078125,0.3540916442871094,0.46581506729125977,0.3759930431842804
1761333864859958300,8.916958251953124,0.506129264831543,0.48862719535827637,0.33411577343940735
1761333864878658600,8.935658447265626,0.43065452575683594,0.33694911003112793,0.2421024739742279
1761333864897358600,8.954358642578125,0.2378711700439453,0.05157804489135742,0.1329803466796875
1761333864916059000,8.973058837890624,0.06830692291259766,-0.13078022003173828,-0.09940695762634277
1761333864934759000,8.991759033203126,-0.058669090270996094,-0.3351881504058838,-0.25342053174972534
1761333864953459200,9.010459228515625,-0.1649761199951172,-0.3429194688796997,-0.24022044241428375
1761333864972159200,9.0291591796875,-0.1706085205078125,-0.34152865409851074,-0.11089125275611877
1761333864990859300,9.047859375,-0.12335205078125,-0.2708868980407715,-0.06512850522994995
1761333865009559300,9.066559326171875,0.006266593933105469,-0.18465709686279297,-0.045158833265304565
1761333865028259600,9.085259521484375,0.07023048400878906,-0.11646723747253418,0.11475628614425659
1761333865046959600,9.103959716796876,-0.2038898468017578,0.019278287887573242,0.1423850655555725
1761333865065660000,9.122659912109375,-0.3881540298461914,0.03963923454284668,-0.014506638050079346
1761333865084360000,9.14135986328125,-0.045424461364746094,-0.08315229415893555,-0.11672753095626831
1761333865103060200,9.160060302734376,0.3529672622680664,-0.18051600456237793,-0.04675975441932678
1761333865121760000,9.178760009765625,0.39751720428466797,-0.19887256622314453,-0.10949486494064331
1761333865140460300,9.197460205078125,0.10135650634765625,-0.17252206802368164,-0.1570397913455963
1761333865159160300,9.216160400390624,-0.18287372589111328,-0.0522923469543457,-0.08424192667007446
1761333865177860600,9.234860595703125,-0.34185791015625,0.025750398635864258,-0.032234251499176025
1761333865196560600,9.253560546875,-0.25691699981689453,0.03927159309387207,0.007271945476531982
1761333865215261000,9.272260986328124,-0.05233573913574219,0.0037271976470947266,0.05429461598396301
1761333865233961000,9.2909609375,-0.04861640930175781,-0.014354467391967773,0.006144464015960693
1761333865252661000,9.309660888671875,-0.06327533721923828,0.011423110961914062,-0.060281336307525635
1761333865271361300,9.328361328125,-0.0007410049438476562,0.004062175750732422,-0.08898428082466125
1761333865290061300,9.347061279296875,0.008386611938476562,-0.019292831420898438,-0.11535388231277466
1761333865308761600,9.36576171875,0.06856632232666016,-0.043297529220581055,-0.09623613953590393
1761333865327461600,9.384461669921874,0.2136697769165039,-0.06557440757751465,-0.07361438870429993
1761333865346162000,9.403161865234376,0.2009124755859375,-0.10651707649230957,-0.0776870846748352
1761333865364862000,9.421862060546875,-0.043656349182128906,-0.06962990760803223,-0.0003465414047241211
1761333865383562000,9.44056201171875,-0.2876911163330078,-0.043190717697143555,0.015030980110168457
1761333865402262300,9.45926220703125,-0.40558624267578125,0.05140972137451172,0.005773693323135376
1761333865420962300,9.47796240234375,-0.25923728942871094,0.15802311897277832,0.07215702533721924
1761333865439662300,9.496662353515624,0.012315750122070312,0.3058335781097412,0.23995721340179443
1761333865458362600,9.515362548828126,0.2655363082885742,0.43207693099975586,0.3235229551792145
1761333865477062700,9.534062744140625,0.4703693389892578,0.44465065002441406,0.3558591604232788
1761333865495763000,9.552762939453125,0.5392160415649414,0.35005784034729004,0.279673308134079
1761333865514463000,9.571462890625,0.40021228790283203,0.17193126678466797,0.07336249947547913
1761333865533163000,9.5901630859375,0.08290386199951172,-0.0018770694732666016,-0.13591796159744263
1761333865551863300,9.60886328125,-0.11408424377441406,-0.13196873664855957,-0.2699377238750458
1761333865570563300,9.627563232421876,-0.12386894226074219,-0.24819397926330566,-0.278550922870636
1761333865589263400,9.646263427734375,-0.07124042510986328,-0.2753802537918091,-0.24326437711715698
1761333865607963600,9.664963623046875,-0.10900306701660156,-0.20643830299377441,-0.24722474813461304
1761333865626663700,9.68366357421875,-0.22041702270507812,-0.16031336784362793,-0.24285468459129333
1761333865645364000,9.702364013671875,-0.20124244689941406,-0.11717438697814941,-0.1327940821647644
1761333865664064000,9.72106396484375,-0.045200347900390625,-0.06805229187011719,-0.1043539047241211
1761333865682764000,9.739763916015624,0.07955646514892578,-0.07818150520324707,0.023395508527755737
1761333865701464300,9.75846435546875,0.12616539001464844,-0.029929399490356445,0.12244334816932678
1761333865720164400,9.777164306640625,0.11588668823242188,0.020894765853881836,0.1325439214706421
1761333865738864400,9.795864501953124,-0.048010826110839844,0.044891357421875,0.178401917219162
1761333865757564700,9.814564697265626,-0.23003673553466797,0.11429929733276367,0.09081590175628662
1761333865776264700,9.8332646484375,-0.11057376861572266,0.06885838508605957,-0.07213786244392395
1761333865794965000,9.851965087890624,0.22316837310791016,-0.051184654235839844,-0.04834678769111633
1761333865813665000,9.8706650390625,0.3369913101196289,-0.03401923179626465,0.0033281147480010986
1761333865832365000,9.889364990234375,0.2177734375,0.016412973403930664,-0.008014172315597534
1761333865851065300,9.9080654296875,-0.0880270004272461,0.0859682559967041,-0.06094130873680115
1761333865869765400,9.926765380859376,-0.2579517364501953,0.1110994815826416,-0.0750688910484314
1761333865888465700,9.945465576171875,-0.33278942108154297,0.040990591049194336,-0.09482255578041077
1761333865907165700,9.964165771484375,-0.2620964050292969,-0.05473828315734863,-0.1212218701839447
1761333865925866000,9.982865966796876,-0.0922098159790039,-0.11729550361633301,-0.04151993989944458
1761333865944566000,10.00156591796875,-0.01656341552734375,-0.13469314575195312,0.03850856423377991
1761333865963266000,10.02026611328125,-0.10915088653564453,-0.09514760971069336,-0.06810933351516724
1761333865981966300,10.03896630859375,-0.26869678497314453,-0.10560321807861328,-0.14492318034172058
1761333866000666400,10.057666259765625,-0.30660533905029297,-0.07774853706359863,-0.10564106702804565
1761333866019366400,10.076366455078125,-0.035427093505859375,-0.3348658084869385,-0.153324693441391
1761333866038066700,10.095066650390624,-0.3457937240600586,0.056107521057128906,-0.708294153213501
1761333866056766700,10.1137666015625,-0.15964221954345703,-0.11777079105377197,0.2093360424041748
1761333866075467000,10.132467041015625,0.4970893859863281,0.2894010543823242,0.5864284038543701
1761333866094167000,10.1511669921875,1.4819202423095703,0.27706170082092285,0.7581155300140381
