time,seconds_elapsed,z,y,x
1761333856015901200,0.072901123046875,9.238688468933105,2.076970100402832,-0.17946170270442963
1761333856034601200,0.091601318359375,9.30329418182373,1.911865234375,-0.19621145725250244
1761333856053301500,0.110301513671875,9.401400566101074,1.7515461444854736,-0.2560320198535919
1761333856072001500,0.12900146484375,9.604789733886719,1.5984054803848267,-0.16271193325519562
1761333856090701600,0.14770166015625,9.784252166748047,1.698904037475586,-0.18903298676013947
1761333856109401600,0.166401611328125,9.734002113342285,1.789831280708313,-0.1579262912273407
1761333856128101600,0.1851015625,9.659825325012207,1.8783657550811768,0.01196411345154047
1761333856146802000,0.203802001953125,9.707681655883789,1.9764715433120728,0.16031911969184875
1761333856165502000,0.222501953125,9.731609344482422,2.1056840419769287,0.23210379481315613
1761333856184202000,0.241201904296875,9.688538551330566,2.1367905139923096,0.37088751792907715
1761333856202902000,0.259902099609375,10.009177207946777,2.1104695796966553,0.6436693072319031
1761333856221602000,0.27860205078125,9.958928108215332,2.0650060176849365,0.6508477330207825
1761333856240302300,0.29730224609375,9.559326171875,2.1200408935546875,0.4953143000602722
1761333856259002400,0.31600244140625,9.353543281555176,2.0745773315429688,0.4713860750198364
1761333856277702400,0.334702392578125,9.681360244750977,1.950150489807129,0.7058826684951782
1761333856296402400,0.35340234375,9.824930191040039,1.9860427379608154,0.7968099117279053
1761333856315102500,0.3721025390625,9.664610862731934,2.0410776138305664,0.794417142868042
1761333856333802800,0.390802734375,9.609575271606445,2.0315065383911133,0.8925228714942932
1761333856352502800,0.409502685546875,9.549755096435547,2.0195422172546387,0.8709874153137207
1761333856371202800,0.428202880859375,9.351150512695312,2.1296122074127197,0.794417142868042
1761333856389902800,0.44690283203125,9.372686386108398,2.304288148880005,0.8135597109794617
1761333856408603000,0.465602783203125,9.456435203552246,2.407179594039917,0.849452018737793
1761333856427303200,0.48430322265625,9.638289451599121,2.4406790733337402,0.8757730722427368
1761333856446003200,0.503003173828125,9.678967475891113,2.445464849472046,0.7010970115661621
1761333856464703200,0.521703125,9.712467193603516,2.3162522315979004,0.6029912829399109
1761333856483403300,0.5404033203125,9.686145782470703,2.1439690589904785,0.2273181527853012
1761333856502103300,0.559103271484375,9.923035621643066,1.954936146736145,0.07417750358581543
1761333856520803600,0.577803466796875,10.131211280822754,1.828116536140442,0.02871387079358101
1761333856539503600,0.596503662109375,10.040284156799316,1.9812572002410889,-0.04785645380616188
1761333856558203600,0.61520361328125,9.8871431350708,2.2396819591522217,-0.05503492057323456
1761333856576903700,0.633903564453125,10.028319358825684,2.455035924911499,0.11724831163883209
1761333856595603700,0.652603759765625,9.968499183654785,2.641676187515259,0.26560330390930176
1761333856614304000,0.671303955078125,9.765109062194824,2.878565549850464,0.17706887423992157
1761333856633004000,0.690004150390625,9.571290969848633,2.9718856811523438,0.275174617767334
1761333856651704000,0.7087041015625,9.430113792419434,2.926422119140625,0.33738797903060913
1761333856670404000,0.727404052734375,9.353543281555176,2.6727828979492188,0.23210379481315613
1761333856689104100,0.746104248046875,9.284152030944824,2.421536445617676,-0.007178467698395252
1761333856707804400,0.764804443359375,9.45882797241211,2.2085752487182617,-0.062213387340307236
1761333856726504400,0.78350439453125,9.614361763000488,1.9956140518188477,0.0023928226437419653
1761333856745204500,0.80220458984375,9.442078590393066,1.8975083827972412,-0.1818545162677765
1761333856763904500,0.820904541015625,9.260223388671875,1.892722725868225,-0.3038884699344635
1761333856782604500,0.8396044921875,9.250652313232422,1.9525432586669922,-0.26560330390930176
1761333856801304800,0.858304931640625,9.353543281555176,1.9262222051620483,-0.24167509377002716
1761333856820004900,0.8770048828125,9.389435768127441,2.0099709033966064,-0.29431718587875366
1761333856838705000,0.895704833984375,9.430113792419434,2.139183521270752,-0.2273181527853012
1761333856857405000,0.914405029296875,9.446864128112793,2.311466693878174,-0.07896314561367035
1761333856876105000,0.93310498046875,9.571290969848633,2.390429735183716,0.09092725813388824
1761333856894805200,0.95180517578125,9.623932838439941,2.462214469909668,0.1339980661869049
1761333856913505300,0.97050537109375,9.750752449035645,2.4717857837677,0.13639089465141296
1761333856932205300,0.989205322265625,9.81535816192627,2.4023938179016113,0.33499518036842346
1761333856950905300,1.0079052734375,9.844072341918945,2.352144718170166,0.42352959513664246
1761333856969605400,1.02660546875,9.7938232421875,2.313859462738037,0.5527420043945312
1761333856988305400,1.045305419921875,9.671789169311523,2.1822543144226074,0.5814558863639832
1761333857007005700,1.064005615234375,9.607182502746582,2.1367905139923096,0.5862415432929993
1761333857025705700,1.082705810546875,9.42772102355957,2.124826431274414,0.4307080805301666
1761333857044405800,1.10140576171875,9.34875774383545,2.0745773315429688,0.41874396800994873
1761333857063105800,1.120105712890625,9.554540634155273,1.950150489807129,0.3852444589138031
1761333857081806000,1.13880615234375,9.803394317626953,1.852044701576233,0.3086741268634796
1761333857100506000,1.157506103515625,9.865608215332031,1.9214365482330322,0.3158525824546814
1761333857119206100,1.1762060546875,9.7938232421875,2.0673987865448,0.35892340540885925
1761333857137906200,1.19490625,9.681360244750977,2.304288148880005,0.46899324655532837
1761333857156606200,1.213606201171875,9.516255378723145,2.6081767082214355,0.7058826684951782
1761333857175306500,1.232306396484375,9.399007797241211,2.9455647468566895,0.851844847202301
1761333857194006500,1.251006591796875,9.399007797241211,3.0652058124542236,0.914058268070221
1761333857212706600,1.26970654296875,9.66939640045166,3.0101709365844727,0.9068797826766968
1761333857231406600,1.288406494140625,10.131211280822754,2.7565317153930664,1.00259268283844
1761333857250106600,1.307106689453125,10.432706832885742,2.5124638080596924,0.882951557636261
1761333857268807000,1.325806884765625,10.179067611694336,2.368894338607788,0.6245267391204834
1761333857287507000,1.3445068359375,9.836894035339355,2.280359983444214,0.33499518036842346
1761333857306207000,1.36320703125,9.719645500183105,2.0721843242645264,0.3038884699344635
1761333857324907000,1.381906982421875,9.602396965026855,1.9381862878799438,0.17946170270442963
1761333857343607000,1.40060693359375,9.473184585571289,1.9214365482330322,-0.016749758273363113
1761333857362307300,1.419307373046875,9.45882797241211,1.923829436302185,-0.040677983313798904
1761333857381007400,1.43800732421875,9.554540634155273,1.919043779373169,0.21774685382843018
1761333857399707400,1.456707275390625,9.556933403015137,2.0721843242645264,0.4833501875400543
1761333857418407400,1.475407470703125,9.42054271697998,2.242074728012085,0.6628118753433228
1761333857437107500,1.494107421875,9.243474006652832,2.3330020904541016,0.7226324677467346
1761333857455807700,1.512807861328125,9.243474006652832,2.4358935356140137,0.7872386574745178
1761333857474507800,1.5315078125,9.391828536987305,2.4885356426239014,0.7465606927871704
1761333857493207800,1.550207763671875,9.578469276428223,2.495713949203491,0.5742774605751038
1761333857511907800,1.568907958984375,9.66939640045166,2.493321180343628,0.31824541091918945
1761333857530607900,1.58760791015625,9.647860527038574,2.4909284114837646,0.14835500717163086
1761333857549308200,1.60630810546875,9.600004196166992,2.478964328765869,-0.12203395366668701
1761333857568008200,1.62500830078125,9.623932838439941,2.3736801147460938,-0.23449662327766418
1761333857586708200,1.643708251953125,9.681360244750977,2.2779672145843506,-0.23688943684101105
1761333857605408300,1.662408203125,9.540184020996094,2.249253273010254,-0.26081767678260803
1761333857624108300,1.6811083984375,9.489934921264648,2.2923240661621094,-0.1986042857170105
1761333857642808600,1.69980859375,9.571290969848633,2.3018953800201416,-0.019142581149935722
1761333857661508600,1.718508544921875,9.753145217895508,2.368894338607788,0.10289137065410614
1761333857680208600,1.737208740234375,9.734002113342285,2.416750907897949,0.22971096634864807
1761333857698908700,1.75590869140625,9.667003631591797,2.4598217010498047,0.33499518036842346
1761333857717608700,1.774608642578125,9.559326171875,2.4406790733337402,0.3445664644241333
1761333857736309000,1.79330908203125,9.442078590393066,2.3952155113220215,0.2679961323738098
1761333857755009000,1.812009033203125,9.384650230407715,2.4191436767578125,0.26560330390930176
1761333857773709000,1.830708984375,9.425328254699707,2.478964328765869,0.28235307335853577
1761333857792409000,1.8494091796875,9.518648147583008,2.557927370071411,0.3852444589138031
1761333857811109000,1.868109130859375,9.748359680175781,2.5938198566436768,0.5144568681716919
1761333857829809400,1.886809326171875,9.923035621643066,2.572284460067749,0.4331009089946747
1761333857848509400,1.905509521484375,9.882357597351074,2.612962245941162,0.37088751792907715
1761333857867209500,1.92420947265625,9.664610862731934,2.517249345779419,0.4498506486415863
1761333857885909500,1.942909423828125,9.559326171875,2.3401806354522705,0.380458801984787
1761333857904609500,1.961609619140625,9.504291534423828,2.1511476039886475,0.2632105052471161
1761333857923309800,1.980309814453125,9.57607650756836,2.093719720840454,0.2392822653055191
1761333857942009900,1.999009765625,9.645467758178711,2.108076810836792,0.26081767678260803
1761333857960710000,2.0177099609375,9.623932838439941,2.2085752487182617,0.23688943684101105
1761333857979410000,2.036409912109375,9.535398483276367,2.2755744457244873,0.4019941985607147
1761333857998110000,2.05510986328125,9.55214786529541,2.368894338607788,0.519242525100708
1761333858016810200,2.073810302734375,9.53061294555664,2.4430718421936035,0.638883650302887
1761333858035510300,2.09251025390625,9.521040916442871,2.5196423530578613,0.8087740540504456
1761333858054210300,2.111210205078125,9.671789169311523,2.5531418323516846,0.8925228714942932
1761333858072910600,2.12991064453125,9.760323524475098,2.5459632873535156,0.8039883971214294
1761333858091610400,2.1486103515625,9.712467193603516,2.541177749633789,0.638883650302887
1761333858110310700,2.167310546875,9.58325481414795,2.5435705184936523,0.3924229145050049
1761333858129010700,2.1860107421875,9.535398483276367,2.3856441974639893,0.16031911969184875
1761333858147710700,2.204710693359375,9.571290969848633,2.3090739250183105,0.019142581149935722
1761333858166411000,2.223410888671875,9.528220176696777,2.273181438446045,0.16510476171970367
1761333858185111000,2.242111083984375,9.45164966583252,2.3736801147460938,0.18424734473228455
1761333858203811000,2.26081103515625,9.509077072143555,2.431107759475708,0.1459621787071228
1761333858222511000,2.279510986328125,9.66221809387207,2.423929452896118,0.20338992774486542
1761333858241211100,2.298211181640625,9.667003631591797,2.4813570976257324,0.3158525824546814
1761333858259911400,2.316911376953125,9.521040916442871,2.5363919734954834,0.3397808074951172
1761333858278611500,2.335611572265625,9.439684867858887,2.5124638080596924,0.28953152894973755
1761333858297311500,2.3543115234375,9.355937004089355,2.4287149906158447,0.1818545162677765
1761333858316011500,2.373011474609375,9.315258979797363,2.282752752304077,0.02153540402650833
1761333858334711600,2.391711669921875,9.418149948120117,2.201396942138672,-0.05024927482008934
1761333858353411800,2.410411865234375,9.408578872680664,2.122433662414551,-0.07657032459974289
1761333858372112000,2.42911181640625,9.351150512695312,2.146361827850342,-0.06939185410737991
1761333858390812000,2.44781201171875,9.485149383544922,2.313859462738037,0.05503492057323456
1761333858409512000,2.466511962890625,9.803394317626953,2.5531418323516846,0.23688943684101105
1761333858428212000,2.4852119140625,10.045069694519043,2.9144580364227295,0.4905286431312561
1761333858446912300,2.503912353515625,10.15035343170166,3.0939197540283203,0.6580262184143066
1761333858465612300,2.5226123046875,10.159924507141113,3.046063184738159,0.698704183101654
1761333858484312300,2.541312255859375,10.116853713989258,2.675175666809082,0.4666004180908203
1761333858503012400,2.560012451171875,9.923035621643066,2.304288148880005,0.15314064919948578
1761333858521712600,2.578712646484375,9.53061294555664,2.1439690589904785,-0.009571290574967861
1761333858540412700,2.59741259765625,9.31047248840332,2.170290231704712,-0.16271193325519562
1761333858559112700,2.61611279296875,9.30329418182373,2.194218397140503,-0.12921242415905
1761333858577812700,2.634812744140625,9.329615592956543,2.1894326210021973,0.035892341285943985
1761333858596512800,2.6535126953125,9.42054271697998,2.306680917739868,0.09092725813388824
1761333858615213000,2.672213134765625,9.45882797241211,2.4263222217559814,0.007178467698395252
1761333858633913000,2.6909130859375,9.492327690124512,2.4646072387695312,0.07178468257188797
1761333858652613000,2.709613037109375,9.645467758178711,2.500499725341797,0.3158525824546814
1761333858671313200,2.728313232421875,9.822537422180176,2.493321180343628,0.4570291340351105
1761333858690013200,2.74701318359375,9.937392234802246,2.4574289321899414,0.5407779216766357
1761333858708713500,2.76571337890625,9.76989459991455,2.4335005283355713,0.5958128571510315
1761333858727413500,2.78441357421875,9.525827407836914,2.447857618331909,0.5982056856155396
1761333858746113500,2.803113525390625,9.308079719543457,2.526820659637451,0.5264210104942322
1761333858764813800,2.821813720703125,9.269794464111328,2.4885356426239014,0.5168496966362
1761333858783513900,2.840513916015625,9.358329772949219,2.462214469909668,0.4570291340351105
1761333858802214000,2.8592138671875,9.487542152404785,2.4119651317596436,0.4498506486415863
1761333858820914000,2.877913818359375,9.58325481414795,2.376072883605957,0.4259224236011505
1761333858839614000,2.896614013671875,9.540184020996094,2.3545374870300293,0.397208571434021
1761333858858314200,2.915314208984375,9.482755661010742,2.3856441974639893,0.4450650215148926
1761333858877014300,2.93401416015625,9.506684303283691,2.414358139038086,0.5024927258491516
1761333858895714300,2.95271435546875,9.513862609863281,2.455035924911499,0.4953143000602722
1761333858914414300,2.971414306640625,9.494720458984375,2.50289249420166,0.48574298620224
1761333858933114400,2.9901142578125,9.55214786529541,2.438286304473877,0.5670989751815796
1761333858951814700,3.008814697265625,9.635896682739258,2.3162522315979004,0.5814558863639832
1761333858970514700,3.0275146484375,9.686145782470703,2.2085752487182617,0.576670229434967
1761333858989214700,3.046214599609375,9.4660062789917,2.1415762901306152,0.4618147611618042
1761333859007914800,3.064914794921875,9.233902931213379,2.297109842300415,0.11246266216039658
1761333859026615000,3.083614990234375,9.31047248840332,2.392822742462158,-0.10049854964017868
1761333859045315000,3.102315185546875,9.580862045288086,2.5435705184936523,0.09092725813388824
1761333859064015000,3.12101513671875,9.882357597351074,2.730210542678833,0.3756731450557709
1761333859082715100,3.139715087890625,10.097711563110352,2.9240293502807617,0.5383850932121277
1761333859101415200,3.158415283203125,10.071390151977539,3.0005996227264404,0.5288137793540955
1761333859120115500,3.177115478515625,9.860821723937988,2.9766714572906494,0.4331009089946747
1761333859138815500,3.1958154296875,9.659825325012207,2.706282377243042,0.275174617767334
1761333859157515500,3.214515625,9.590433120727539,2.352144718170166,0.05742774158716202
1761333859176215800,3.2332158203125,9.609575271606445,2.1439690589904785,-0.05742774158716202
1761333859194915800,3.251915771484375,9.573683738708496,2.0865414142608643,-0.07657032459974289
1761333859213615900,3.270615966796875,9.480362892150879,2.187039852142334,-0.03349951654672623
1761333859232316000,3.28931591796875,9.401400566101074,2.3497519493103027,0.09810572862625122
1761333859251016000,3.308015869140625,9.343972206115723,2.4717857837677,0.1818545162677765
1761333859269716200,3.32671630859375,9.43489933013916,2.5292134284973145,0.2273181527853012
1761333859288416300,3.345416259765625,9.645467758178711,2.5076780319213867,0.22492532432079315
1761333859307116300,3.3641162109375,9.846465110778809,2.5076780319213867,0.25363919138908386
1761333859325816300,3.38281640625,9.841679573059082,2.5459632873535156,0.2991028428077698
1761333859344516600,3.4015166015625,9.803394317626953,2.50289249420166,0.37806597352027893
1761333859363216600,3.420216552734375,9.681360244750977,2.4406790733337402,0.3613162338733673
1761333859381916700,3.438916748046875,9.590433120727539,2.4526431560516357,0.39960137009620667
1761333859400616700,3.45761669921875,9.556933403015137,2.414358139038086,0.44027936458587646
1761333859419316700,3.476316650390625,9.477970123291016,2.3976082801818848,0.37806597352027893
1761333859438017000,3.49501708984375,9.339186668395996,2.4095723628997803,0.3565305769443512
1761333859456717000,3.513717041015625,9.260223388671875,2.368894338607788,0.3756731450557709
1761333859475417000,3.5324169921875,9.269794464111328,2.366501569747925,0.35413774847984314
1761333859494117400,3.551117431640625,9.367900848388672,2.3401806354522705,0.34695929288864136
1761333859512817400,3.5698173828125,9.44447135925293,2.344966173171997,0.3900300860404968
1761333859531517400,3.588517333984375,9.533005714416504,2.383251428604126,0.35892340540885925
1761333859550217500,3.607217529296875,9.585647583007812,2.400001049041748,0.4139583110809326
1761333859568917500,3.62591748046875,9.65503978729248,2.4574289321899414,0.5359922647476196
1761333859587617800,3.64461767578125,9.628718376159668,2.4885356426239014,0.6005984544754028
1761333859606317800,3.66331787109375,9.645467758178711,2.4406790733337402,0.5958128571510315
1761333859625017900,3.682017822265625,9.626325607299805,2.3162522315979004,0.5790630578994751
1761333859643718000,3.7007177734375,9.578469276428223,2.210968017578125,0.38763725757598877
1761333859662418200,3.719418212890625,9.44447135925293,2.1200408935546875,0.2727817893028259
1761333859681118200,3.7381181640625,9.44447135925293,2.2157537937164307,0.397208571434021
1761333859699818200,3.756818359375,9.468399047851562,2.4502503871917725,0.5790630578994751
1761333859718518300,3.775518310546875,9.573683738708496,2.8043880462646484,0.6484549641609192
1761333859737218600,3.794218505859375,9.69093132019043,3.170490026473999,0.8135597109794617
1761333859755918600,3.812918701171875,9.7005033493042,3.335594654083252,0.9523434042930603
1761333859774618600,3.83161865234375,9.722038269042969,3.2446675300598145,0.7585247755050659
1761333859793318700,3.850318603515625,9.745966911315918,2.981456995010376,0.4378865361213684
1761333859812019000,3.86901904296875,9.516255378723145,2.6177480220794678,0.19381862878799438
1761333859830719000,3.887718994140625,9.42772102355957,2.366501569747925,-0.05024927482008934
1761333859849419000,3.9064189453125,9.827322959899902,2.163111686706543,-0.07417750358581543
1761333859868119000,3.925119140625,10.176674842834473,2.053041934967041,0.10289137065410614
1761333859886819300,3.9438193359375,9.970891952514648,2.2229323387145996,0.064606212079525
1761333859905519400,3.962519287109375,9.595218658447266,2.3952155113220215,0.11724831163883209
1761333859924219400,3.981219482421875,9.42054271697998,2.4430718421936035,0.2847459018230438
1761333859942919700,3.999919677734375,9.401400566101074,2.328216314315796,0.5288137793540955
1761333859961619700,4.01861962890625,9.410971641540527,2.297109842300415,0.5886343717575073
1761333859980319700,4.03731982421875,9.410971641540527,2.3808584213256836,0.5383850932121277
1761333859999019800,4.056019775390625,9.475577354431152,2.469393014907837,0.5288137793540955
1761333860017719800,4.0747197265625,9.4660062789917,2.5387847423553467,0.5288137793540955
1761333860036420000,4.093420166015625,9.375079154968262,2.6464617252349854,0.5216353535652161
1761333860055120100,4.1121201171875,9.430113792419434,2.6009981632232666,0.397208571434021
1761333860073820200,4.130820068359375,9.643074989318848,2.510071039199829,0.30628129839897156
1761333860092520200,4.149520263671875,9.812965393066406,2.438286304473877,0.27756741642951965
1761333860111220500,4.168220458984375,9.774680137634277,2.3808584213256836,0.24646073579788208
1761333860129920500,4.18692041015625,9.712467193603516,2.3306093215942383,0.2679961323738098
1761333860148620500,4.20562060546875,9.58325481414795,2.344966173171997,0.32542386651039124
1761333860167320600,4.224320556640625,9.425328254699707,2.3976082801818848,0.38763725757598877
1761333860186020900,4.243020751953125,9.281759262084961,2.455035924911499,0.46420758962631226
1761333860204721000,4.261720947265625,9.370293617248535,2.50289249420166,0.5359922647476196
1761333860223421000,4.2804208984375,9.54496955871582,2.4885356426239014,0.5670989751815796
1761333860242121200,4.299121337890625,9.698110580444336,2.4047868251800537,0.6364908218383789
1761333860260821000,4.317821044921875,9.614361763000488,2.321038007736206,0.5575276613235474
1761333860279521300,4.336521240234375,9.41336441040039,2.234896421432495,0.46899324655532837
1761333860298221300,4.35522119140625,9.276973724365234,2.201396942138672,0.45942193269729614
1761333860316921300,4.37392138671875,9.312865257263184,2.117648124694824,0.4785645306110382
1761333860335621600,4.39262158203125,9.45164966583252,2.2133610248565674,0.41874396800994873
1761333860354321700,4.41132177734375,9.456435203552246,2.5076780319213867,0.5240281820297241
1761333860373021700,4.430021728515625,9.418149948120117,2.9001009464263916,0.638883650302887
1761333860391721700,4.4487216796875,9.554540634155273,3.16331148147583,0.8303094506263733
1761333860410422000,4.467422119140625,9.868000984191895,3.266202926635742,0.9427721500396729
1761333860429122000,4.4861220703125,10.210174560546875,3.1250264644622803,0.9930213689804077
1761333860447822000,4.504822021484375,10.25324535369873,2.825923442840576,0.8374879360198975
1761333860466522400,4.5235224609375,9.951749801635742,2.4837498664855957,0.45942193269729614
1761333860485222400,4.542222412109375,9.535398483276367,2.2947168350219727,0.12203395366668701
1761333860503922400,4.56092236328125,9.233902931213379,2.2133610248565674,-0.05503492057323456
1761333860522622500,4.57962255859375,9.186046600341797,2.2995026111602783,-0.11485548317432404
1761333860541322800,4.59832275390625,9.439684867858887,2.335394859313965,0.038285162299871445
1761333860560022800,4.617022705078125,9.707681655883789,2.4335005283355713,0.2632105052471161
1761333860578722800,4.635722900390625,9.755537986755371,2.526820659637451,0.35413774847984314
1761333860597423000,4.654423095703125,9.564111709594727,2.6153552532196045,0.49292147159576416
1761333860616123100,4.673123046875,9.43489933013916,2.581855535507202,0.6891329288482666
1761333860634823200,4.6918232421875,9.432506561279297,2.541177749633789,0.5288137793540955
1761333860653523200,4.710523193359375,9.516255378723145,2.4191436767578125,0.519242525100708
1761333860672223500,4.729223388671875,9.635896682739258,2.383251428604126,0.5623133182525635
1761333860690923500,4.747923583984375,9.559326171875,2.376072883605957,0.40677985548973083
1761333860709623600,4.76662353515625,9.439684867858887,2.4119651317596436,0.275174617767334
1761333860728323600,4.785323486328125,9.308079719543457,2.3712873458862305,0.30628129839897156
1761333860747023600,4.804023681640625,9.353543281555176,2.3808584213256836,0.19381862878799438
1761333860765724000,4.822723876953125,9.533005714416504,2.4406790733337402,0.3086741268634796
1761333860784424000,4.841423828125,9.588040351867676,2.541177749633789,0.4331009089946747
1761333860803124000,4.8601240234375,9.623932838439941,2.581855535507202,0.48813581466674805
1761333860821824300,4.87882421875,9.54496955871582,2.6057839393615723,0.4953143000602722
1761333860840524300,4.897524169921875,9.485149383544922,2.555534601211548,0.4833501875400543
1761333860859224300,4.916224365234375,9.45164966583252,2.4670002460479736,0.4426721930503845
1761333860877924400,4.93492431640625,9.499505996704102,2.335394859313965,0.4139583110809326
1761333860896624600,4.953624755859375,9.549755096435547,2.256431818008423,0.37088751792907715
1761333860915324700,4.97232470703125,9.518648147583008,2.2683959007263184,0.2560320198535919
1761333860934024700,4.991024658203125,9.375079154968262,2.344966173171997,0.20099709928035736
1761333860952725000,5.00972509765625,9.336793899536133,2.4813570976257324,0.39481574296951294
1761333860971425000,5.028425048828125,9.394221305847168,2.6703901290893555,0.5982056856155396
1761333860990125000,5.047125,9.67657470703125,2.775674343109131,0.7010970115661621
1761333861008825000,5.0658251953125,10.047462463378906,2.8929226398468018,0.7369893789291382
1761333861027525400,5.084525390625,10.195816993713379,3.0340991020202637,0.8590233325958252
1761333861046225400,5.103225341796875,9.980463027954102,3.0580272674560547,0.9020941257476807
1761333861064925400,5.121925537109375,9.832108497619629,2.919243574142456,0.8135597109794617
1761333861083625500,5.14062548828125,9.753145217895508,2.641676187515259,0.5599204897880554
1761333861102325800,5.15932568359375,9.626325607299805,2.4358935356140137,0.2392822653055191
1761333861121025800,5.17802587890625,9.437292098999023,2.242074728012085,0.06939185410737991
1761333861139725800,5.196725830078125,9.29611587524414,2.1439690589904785,-0.16271193325519562
1761333861158426000,5.215426025390625,9.329615592956543,2.1415762901306152,-0.20338992774486542
1761333861177126100,5.234126220703125,9.387042999267578,2.172683000564575,-0.1052841991186142
1761333861195826200,5.252826171875,9.355937004089355,2.280359983444214,0.02153540402650833
1761333861214526200,5.271526123046875,9.389435768127441,2.407179594039917,0.1052841991186142
1761333861233226500,5.2902265625,9.525827407836914,2.4358935356140137,0.31824541091918945
1761333861251926500,5.308926513671875,9.712467193603516,2.4885356426239014,0.5096712112426758
1761333861270626600,5.32762646484375,9.784252166748047,2.56510591506958,0.607776939868927
1761333861289326800,5.346326904296875,9.750752449035645,2.562713146209717,0.550349235534668
1761333861308027000,5.36502685546875,9.554540634155273,2.517249345779419,0.4546363055706024
1761333861326727000,5.383726806640625,9.410971641540527,2.4741785526275635,0.4211367964744568
1761333861345427000,5.402427001953125,9.449256896972656,2.3976082801818848,0.41874396800994873
1761333861364127200,5.421127197265625,9.511469841003418,2.3712873458862305,0.363709032535553
1761333861382827300,5.4398271484375,9.34157943725586,2.3712873458862305,0.38285163044929504
1761333861401527300,5.45852734375,9.133403778076172,2.4670002460479736,0.2919243574142456
1761333861420227600,5.4772275390625,9.339186668395996,2.431107759475708,0.22492532432079315
1761333861438927600,5.495927734375,9.772287368774414,2.352144718170166,0.31106695532798767
1761333861457628000,5.5146279296875,10.037891387939453,2.3090739250183105,0.34217363595962524
1761333861476328000,5.533327880859375,9.942177772521973,2.2755744457244873,0.30149564146995544
1761333861495028000,5.552028076171875,9.652647018432617,2.2683959007263184,0.30628129839897156
1761333861513728000,5.57072802734375,9.492327690124512,2.2205393314361572,0.39481574296951294
1761333861532428300,5.58942822265625,9.53061294555664,2.069791555404663,0.48574298620224
1761333861551128300,5.60812841796875,9.619147300720215,2.076970100402832,0.4713860750198364
1761333861569828400,5.626828369140625,9.487542152404785,2.227717876434326,0.41156548261642456
1761333861588528600,5.645528564453125,9.343972206115723,2.4813570976257324,0.48574298620224
1761333861607228700,5.664228759765625,9.34157943725586,2.713460922241211,0.6293123364448547
1761333861625928700,5.6829287109375,9.53061294555664,2.950350284576416,0.8446664214134216
1761333861644628700,5.701628662109375,9.7938232421875,3.091526746749878,0.9547362327575684
1761333861663329000,5.7203291015625,10.054640769958496,3.029313564300537,0.973878800868988
1761333861682029000,5.739029052734375,10.310672760009766,2.8115665912628174,0.8422735929489136
1761333861700729000,5.75772900390625,10.107282638549805,2.5196423530578613,0.48095735907554626
1761333861719429000,5.77642919921875,9.554540634155273,2.304288148880005,0.12203395366668701
1761333861738129400,5.79512939453125,9.193224906921387,2.0961127281188965,-0.1579262912273407
1761333861756829400,5.813829345703125,9.190832138061523,1.947757601737976,-0.3684946894645691
1761333861775529500,5.832529541015625,9.322437286376953,1.9214365482330322,-0.4139583110809326
1761333861794229800,5.851229736328125,9.454042434692383,2.0578274726867676,-0.275174617767334
1761333861812929800,5.8699296875,9.616754531860352,2.2995026111602783,-0.031106693670153618
1761333861831629800,5.8886298828125,9.714859962463379,2.4885356426239014,0.2632105052471161
1761333861850329900,5.907329833984375,9.731609344482422,2.572284460067749,0.5216353535652161
1761333861869030100,5.926030029296875,9.762716293334961,2.562713146209717,0.6149554252624512
1761333861887730200,5.944730224609375,9.738788604736328,2.4741785526275635,0.6580262184143066
1761333861906430500,5.963430419921875,9.623932838439941,2.3784656524658203,0.5431707501411438
1761333861925130500,5.982130615234375,9.463613510131836,2.3018953800201416,0.4450650215148926
1761333861943830500,6.00083056640625,9.343972206115723,2.2947168350219727,0.36610186100006104
1761333861962530800,6.01953076171875,9.241081237792969,2.2683959007263184,0.3278166949748993
1761333861981230800,6.03823095703125,9.255437850952148,2.282752752304077,0.349352091550827
1761333861999931000,6.056930908203125,9.442078590393066,2.304288148880005,0.4618147611618042
1761333862018631000,6.075630859375,9.609575271606445,2.3473589420318604,0.42352959513664246
1761333862037331200,6.094331298828125,9.659825325012207,2.383251428604126,0.380458801984787
1761333862056031200,6.11303125,9.643074989318848,2.407179594039917,0.31345975399017334
1761333862074731300,6.131731201171875,9.712467193603516,2.3952155113220215,0.3278166949748993
1761333862093431600,6.150431640625,9.851250648498535,2.3856441974639893,0.38763725757598877
1761333862112131600,6.169131591796875,9.89432144165039,2.4047868251800537,0.4570291340351105
1761333862130831600,6.18783154296875,9.78664493560791,2.383251428604126,0.48574298620224
1761333862149532000,6.206531982421875,9.511469841003418,2.3306093215942383,0.5240281820297241
1761333862168232000,6.22523193359375,9.22433090209961,2.256431818008423,0.40677985548973083
1761333862186932000,6.243931884765625,9.269794464111328,2.132004976272583,0.30149564146995544
1761333862205632300,6.26263232421875,9.595218658447266,2.076970100402832,0.34217363595962524
1761333862224332300,6.281332275390625,9.748359680175781,2.201396942138672,0.39960137009620667
1761333862243032300,6.3000322265625,9.58325481414795,2.3880369663238525,0.38285163044929504
1761333862261732400,6.318732421875,9.485149383544922,2.6153552532196045,0.4450650215148926
1761333862280432600,6.3374326171875,9.597611427307129,2.7517459392547607,0.5886343717575073
1761333862299132700,6.356132568359375,9.896714210510254,2.794816732406616,0.6699903607368469
1761333862317832700,6.374832763671875,10.107282638549805,2.68953275680542,0.6173482537269592
1761333862336533000,6.393532958984375,10.186245918273926,2.5435705184936523,0.5383850932121277
1761333862355233000,6.41223291015625,10.01874828338623,2.383251428604126,0.4977070987224579
1761333862373933300,6.430933349609375,9.643074989318848,2.3090739250183105,0.32303106784820557
1761333862392633300,6.44963330078125,9.358329772949219,2.2301106452941895,0.08374879509210587
1761333862411333400,6.46833349609375,9.305686950683594,2.201396942138672,0.11246266216039658
1761333862430033400,6.487033447265625,9.480362892150879,2.225325107574463,0.17706887423992157
1761333862448733700,6.505733642578125,9.628718376159668,2.1439690589904785,0.1866401731967926
1761333862467433700,6.524433837890625,9.561718940734863,2.1894326210021973,0.20817556977272034
1761333862486133800,6.5431337890625,9.55214786529541,2.196611166000366,0.31824541091918945
1761333862504834000,6.561833984375,9.573683738708496,2.256431818008423,0.33020952343940735
1761333862523534000,6.5805341796875,9.564111709594727,2.2923240661621094,0.4163511395454407
1761333862542234000,6.599234130859375,9.638289451599121,2.266003131866455,0.48574298620224
1761333862560934400,6.617934326171875,9.65503978729248,2.2755744457244873,0.4043870270252228
1761333862579634400,6.636634521484375,9.592825889587402,2.234896421432495,0.3326023519039154
1761333862598334500,6.65533447265625,9.489934921264648,2.2636101245880127,0.24646073579788208
1761333862617034800,6.67403466796875,9.403793334960938,2.2372891902923584,0.22013968229293823
1761333862635734800,6.69273486328125,9.382257461547852,2.225325107574463,0.1866401731967926
1761333862654434800,6.711434814453125,9.487542152404785,2.1990039348602295,0.20099709928035736
1761333862673134800,6.730134765625,9.518648147583008,2.210968017578125,0.2632105052471161
1761333862691835100,6.748835205078125,9.487542152404785,2.234896421432495,0.3326023519039154
1761333862710535200,6.76753515625,9.571290969848633,2.2779672145843506,0.32303106784820557
1761333862729235500,6.7862353515625,9.841679573059082,2.2636101245880127,0.5910272002220154
1761333862747935500,6.804935546875,9.879964828491211,2.3306093215942383,0.519242525100708
1761333862766635500,6.823635498046875,9.779465675354004,2.3234307765960693,0.5623133182525635
1761333862785335800,6.842335693359375,9.760323524475098,2.2995026111602783,0.5934200286865234
1761333862804035800,6.861035888671875,9.731609344482422,2.1990039348602295,0.5838487148284912
1761333862822736000,6.87973583984375,9.542576789855957,2.146361827850342,0.4905286431312561
1761333862841436000,6.898435791015625,9.372686386108398,2.122433662414551,0.43549370765686035
1761333862860136200,6.91713623046875,9.449256896972656,2.170290231704712,0.3924229145050049
1761333862878836200,6.935836181640625,9.68375301361084,2.273181438446045,0.47617170214653015
1761333862897536500,6.95453662109375,9.707681655883789,2.4095723628997803,0.7130611538887024
1761333862916236500,6.973236572265625,9.602396965026855,2.6225335597991943,0.7058826684951782
1761333862934936600,6.9919365234375,9.67657470703125,2.746960401535034,0.6580262184143066
1761333862953636900,7.010636962890625,9.896714210510254,2.830709218978882,0.7034898400306702
1761333862972337000,7.0293369140625,10.023533821105957,2.816352367401123,0.729810893535614
1761333862991037000,7.048036865234375,10.080962181091309,2.720639228820801,0.729810893535614
1761333863009737200,7.0667373046875,9.91107177734375,2.5052852630615234,0.48574298620224
1761333863028437200,7.085437255859375,9.513862609863281,2.3306093215942383,0.1579262912273407
1761333863047137300,7.10413720703125,9.214759826660156,2.117648124694824,-0.038285162299871445
1761333863065837600,7.122837646484375,9.238688468933105,2.0027925968170166,-0.15553347766399384
1761333863084537600,7.14153759765625,9.480362892150879,1.9980069398880005,-0.11485548317432404
1761333863103237600,7.160237548828125,9.595218658447266,2.093719720840454,-0.04785645380616188
1761333863121937700,7.178937744140625,9.592825889587402,2.242074728012085,0.11006984114646912
1761333863140638000,7.197637939453125,9.667003631591797,2.383251428604126,0.27038896083831787
1761333863159338000,7.216337890625,9.757930755615234,2.3497519493103027,0.4618147611618042
1761333863178038300,7.235038330078125,9.724431037902832,2.352144718170166,0.4043870270252228
1761333863196738300,7.25373828125,9.609575271606445,2.306680917739868,0.3756731450557709
1761333863215438300,7.272438232421875,9.53779125213623,2.3162522315979004,0.3397808074951172
1761333863234138600,7.291138671875,9.473184585571289,2.313859462738037,0.29431718587875366
1761333863252838700,7.309838623046875,9.430113792419434,2.313859462738037,0.34217363595962524
1761333863271539000,7.3285390625,9.4061861038208,2.306680917739868,0.3852444589138031
1761333863290239000,7.347239013671875,9.540184020996094,2.342573404312134,0.4666004180908203
1761333863308939000,7.36593896484375,9.564111709594727,2.3330020904541016,0.4737788736820221
1761333863327639000,7.38463916015625,9.449256896972656,2.342573404312134,0.3732803463935852
1761333863346339300,7.40333935546875,9.425328254699707,2.3306093215942383,0.2871387302875519
1761333863365039400,7.422039306640625,9.480362892150879,2.3234307765960693,0.27756741642951965
1761333863383739600,7.44073974609375,9.597611427307129,2.297109842300415,0.21296121180057526
1761333863402439700,7.459439697265625,9.657432556152344,2.280359983444214,0.20817556977272034
1761333863421139700,7.4781396484375,9.726823806762695,2.2923240661621094,0.275174617767334
1761333863439839700,7.49683984375,9.753145217895508,2.258824586868286,0.31824541091918945
1761333863458540000,7.5155400390625,9.671789169311523,2.1128623485565186,0.31824541091918945
1761333863477240000,7.534239990234375,9.590433120727539,2.0865414142608643,0.35413774847984314
1761333863495940400,7.5529404296875,9.518648147583008,2.0889341831207275,0.4953143000602722
1761333863514640400,7.571640380859375,9.482755661010742,2.179861545562744,0.5383850932121277
1761333863533340400,7.59034033203125,9.511469841003418,2.311466693878174,0.641276478767395
1761333863552040700,7.609040771484375,9.647860527038574,2.53399920463562,0.8015955686569214
1761333863570740700,7.62774072265625,9.796216011047363,2.754138946533203,0.9355936646461487
1761333863589440800,7.646440673828125,9.90149974822998,2.919243574142456,1.062413215637207
1761333863608141000,7.66514111328125,9.980463027954102,2.8905298709869385,1.0528420209884644
1761333863626841000,7.683841064453125,10.059426307678223,2.744567632675171,0.9810572862625122
1761333863645541000,7.702541015625,9.91107177734375,2.5387847423553467,0.8135597109794617
1761333863664241400,7.721241455078125,9.631111145019531,2.3784656524658203,0.37088751792907715
1761333863682941400,7.73994140625,9.540184020996094,2.1750757694244385,0.13639089465141296
1761333863701641500,7.758641357421875,9.698110580444336,1.9932212829589844,0.10049854964017868
1761333863720341800,7.777341796875,9.748359680175781,1.947757601737976,0.08614161610603333
1761333863739041800,7.796041748046875,9.494720458984375,2.0003998279571533,-0.02871387079358101
1761333863757741800,7.814741943359375,9.238688468933105,2.076970100402832,-0.009571290574967861
1761333863776442000,7.833442138671875,9.183652877807617,2.1367905139923096,0.11964113265275955
1761333863795142100,7.85214208984375,9.351150512695312,2.122433662414551,0.2392822653055191
1761333863813842400,7.870842529296875,9.57607650756836,2.2205393314361572,0.3756731450557709
1761333863832542500,7.88954248046875,9.7005033493042,2.2636101245880127,0.5934200286865234
1761333863851242500,7.908242431640625,9.779465675354004,2.3090739250183105,0.6580262184143066
1761333863869942800,7.92694287109375,9.734002113342285,2.3712873458862305,0.6795616149902344
1761333863888642800,7.945642822265625,9.674181938171387,2.383251428604126,0.5910272002220154
1761333863907343000,7.964343017578125,9.614361763000488,2.3401806354522705,0.5288137793540955
1761333863926043100,7.983043212890625,9.492327690124512,2.3641088008880615,0.44027936458587646
1761333863944743200,8.0017431640625,9.439684867858887,2.3545374870300293,0.4713860750198364
1761333863963443200,8.020443115234375,9.497113227844238,2.3401806354522705,0.4091726839542389
1761333863982143500,8.0391435546875,9.509077072143555,2.2851455211639404,0.380458801984787
1761333864000843500,8.057843505859376,9.533005714416504,2.258824586868286,0.38763725757598877
1761333864019543800,8.076543701171875,9.588040351867676,2.2468605041503906,0.4331009089946747
1761333864038243800,8.095243896484375,9.573683738708496,2.242074728012085,0.4331009089946747
1761333864056943900,8.11394384765625,9.540184020996094,2.2468605041503906,0.4618147611618042
1761333864075644200,8.13264404296875,9.56650447845459,2.2061824798583984,0.5048855543136597
1761333864094344200,8.15134423828125,9.511469841003418,2.1128623485565186,0.4977070987224579
1761333864113044200,8.170044189453124,9.600004196166992,2.029113531112671,0.49292147159576416
1761333864131744500,8.18874462890625,9.592825889587402,2.0027925968170166,0.5120640397071838
1761333864150444500,8.207444580078125,9.461220741271973,2.0410776138305664,0.44027936458587646
1761333864169144600,8.22614453125,9.298508644104004,2.1535403728485107,0.3684946894645691
1761333864187844900,8.244844970703125,9.415757179260254,2.4095723628997803,0.5335994362831116
1761333864206545000,8.263544921875,9.645467758178711,2.7086751461029053,0.9068797826766968
1761333864225245200,8.2822451171875,9.92542839050293,2.9694929122924805,1.124626636505127
1761333864243945200,8.3009453125,10.00439167022705,3.019742250442505,1.1150553226470947
1761333864262645200,8.319645263671875,10.155138969421387,2.950350284576416,0.9332008361816406
1761333864281345300,8.33834521484375,10.145567893981934,2.6081767082214355,0.6460621356964111
1761333864300045600,8.357045654296876,10.02592658996582,2.2301106452941895,0.3326023519039154
1761333864318745600,8.37574560546875,9.779465675354004,1.9046868085861206,-0.07178468257188797
1761333864337446000,8.39444580078125,9.511469841003418,1.710868239402771,-0.34217363595962524
1761333864356146000,8.41314599609375,9.116654396057129,1.7084753513336182,-0.2727817893028259
1761333864374846200,8.43184619140625,9.075976371765137,1.7635103464126587,-0.33020952343940735
1761333864393546200,8.450546142578125,9.375079154968262,1.9310078620910645,-0.15553347766399384
1761333864412246300,8.469246337890626,9.822537422180176,2.108076810836792,0.27756741642951965
1761333864430946300,8.4879462890625,10.021141052246094,2.3808584213256836,0.6436693072319031
1761333864449646600,8.506646484375,9.870393753051758,2.4813570976257324,0.7800601720809937
1761333864468346600,8.5253466796875,9.714859962463379,2.5124638080596924,0.6963114142417908
1761333864487047000,8.544046875,9.707681655883789,2.2947168350219727,0.5575276613235474
1761333864505747000,8.562746826171875,9.78664493560791,2.1535403728485107,0.40677985548973083
1761333864524447000,8.581447021484376,9.731609344482422,2.045863389968872,0.2871387302875519
1761333864543147300,8.600147216796875,9.525827407836914,1.9908283948898315,0.11485548317432404
1761333864561847300,8.618847412109375,9.355937004089355,2.03629207611084,0.13160525262355804
1761333864580547600,8.637547607421874,9.281759262084961,2.139183521270752,0.2991028428077698
1761333864599247600,8.65624755859375,9.370293617248535,2.2229323387145996,0.3852444589138031
1761333864617947600,8.67494775390625,9.499505996704102,2.273181438446045,0.4331009089946747
1761333864636648000,8.69364794921875,9.645467758178711,2.311466693878174,0.5168496966362
1761333864655348000,8.712347900390625,9.77707290649414,2.3090739250183105,0.5670989751815796
1761333864674048000,8.731048095703125,9.623932838439941,2.2612173557281494,0.5240281820297241
1761333864692748300,8.749748291015624,9.384650230407715,2.251646041870117,0.39960137009620667
1761333864711448300,8.7684482421875,9.377471923828125,2.146361827850342,0.35413774847984314
1761333864730148600,8.787148681640625,9.504291534423828,2.0410776138305664,0.3613162338733673
1761333864748848600,8.8058486328125,9.592825889587402,2.062613010406494,0.349352091550827
1761333864767548700,8.824548583984376,9.604789733886719,2.122433662414551,0.32303106784820557
1761333864786248700,8.843248779296875,9.678967475891113,2.2923240661621094,0.31345975399017334
1761333864804949000,8.861948974609374,9.748359680175781,2.4909284114837646,0.5048855543136597
1761333864823649000,8.88064892578125,9.915857315063477,2.60339093208313,0.6795616149902344
1761333864842349300,8.899349365234375,10.100104331970215,2.6536402702331543,0.7226324677467346
1761333864861049300,8.91804931640625,10.17428207397461,2.60339093208313,0.6460621356964111
1761333864879749600,8.93674951171875,10.021141052246094,2.478964328765869,0.5024927258491516
1761333864898449700,8.95544970703125,9.829715728759766,2.1535403728485107,0.38285163044929504
1761333864917149700,8.974149658203125,9.705288887023926,2.00518536567688,0.16749759018421173
1761333864935850000,8.99285009765625,9.547362327575684,1.8783657550811768,0.10289137065410614
1761333864954550000,9.011550048828125,9.477970123291016,1.8855443000793457,0.17706887423992157
1761333864973250300,9.030250244140625,9.497113227844238,1.9262222051620483,0.28235307335853577
1761333864991950300,9.048950439453124,9.561718940734863,2.0003998279571533,0.2871387302875519
1761333865010650400,9.067650390625,9.738788604736328,2.069791555404663,0.4091726839542389
1761333865029350700,9.0863505859375,9.619147300720215,2.2157537937164307,0.5359922647476196
1761333865048050700,9.10505078125,9.293723106384277,2.3162522315979004,0.42831525206565857
1761333865066750700,9.123750732421875,9.355937004089355,2.227717876434326,0.275174617767334
1761333865085451000,9.142450927734375,9.836894035339355,2.0721843242645264,0.3086741268634796
1761333865104151000,9.161151123046874,10.066604614257812,2.0171494483947754,0.33499518036842346
1761333865122851000,9.17985107421875,9.92542839050293,2.007578134536743,0.24646073579788208
1761333865141551400,9.19855126953125,9.626325607299805,2.0889341831207275,0.2512463629245758
1761333865160251400,9.21725146484375,9.367900848388672,2.201396942138672,0.34217363595962524
1761333865178951700,9.23595166015625,9.308079719543457,2.2444677352905273,0.380458801984787
1761333865197651700,9.254651611328125,9.480362892150879,2.2229323387145996,0.44027936458587646
1761333865216351700,9.273351806640624,9.609575271606445,2.1750757694244385,0.43549370765686035
1761333865235052000,9.292052001953126,9.559326171875,2.172683000564575,0.37088751792907715
1761333865253752000,9.310751953125,9.595218658447266,2.201396942138672,0.3206382393836975
1761333865272452400,9.329452392578125,9.645467758178711,2.1583259105682373,0.2871387302875519
1761333865291152400,9.34815234375,9.664610862731934,2.117648124694824,0.2991028428077698
1761333865309852400,9.366852294921875,9.789037704467773,2.0673987865448,0.30628129839897156
1761333865328552700,9.385552734375,9.903892517089844,2.03629207611084,0.3086741268634796
1761333865347252700,9.404252685546876,9.741181373596191,2.029113531112671,0.3397808074951172
1761333865365952800,9.422952880859375,9.487542152404785,2.0793628692626953,0.3732803463935852
1761333865384653000,9.441653076171875,9.284152030944824,2.117648124694824,0.3756731450557709
1761333865403353000,9.46035302734375,9.286544799804688,2.2133610248565674,0.3852444589138031
1761333865422053400,9.479053466796875,9.501898765563965,2.313859462738037,0.5168496966362
1761333865440753400,9.49775341796875,9.80100154876709,2.469393014907837,0.6628118753433228
1761333865459453400,9.516453369140624,10.00439167022705,2.548356056213379,0.729810893535614
1761333865478153700,9.53515380859375,10.198209762573242,2.5531418323516846,0.7202396392822266
1761333865496853800,9.553853759765625,10.1814603805542,2.4023938179016113,0.5862415432929993
1761333865515554000,9.572553955078124,9.93978500366211,2.227717876434326,0.363709032535553
1761333865534254000,9.591254150390625,9.643074989318848,2.1128623485565186,0.1698904037475586
1761333865552954400,9.609954345703125,9.55214786529541,1.978864312171936,0.07178468257188797
1761333865571654400,9.628654296875,9.600004196166992,1.9214365482330322,0.08614161610603333
1761333865590354400,9.6473544921875,9.611968994140625,1.954936146736145,0.1052841991186142
1761333865609054500,9.666054443359375,9.482755661010742,1.9860427379608154,0.09810572862625122
1761333865627754800,9.684754638671874,9.43489933013916,2.060220241546631,0.16271193325519562
1761333865646454800,9.703454833984376,9.501898765563965,2.0817556381225586,0.22492532432079315
1761333865665155000,9.722155029296875,9.693324089050293,2.093719720840454,0.3158525824546814
1761333865683855000,9.740855224609374,9.765109062194824,2.132004976272583,0.46420758962631226
1761333865702555400,9.759555419921876,9.77707290649414,2.172683000564575,0.4905286431312561
1761333865721255400,9.77825537109375,9.705288887023926,2.2133610248565674,0.5383850932121277
1761333865739955500,9.79695556640625,9.487542152404785,2.2755744457244873,0.5742774605751038
1761333865758655500,9.815655517578126,9.432506561279297,2.311466693878174,0.36610186100006104
1761333865777355800,9.834355712890625,9.724431037902832,2.187039852142334,0.3278166949748993
1761333865796055800,9.853055908203125,9.966106414794922,2.1415762901306152,0.38285163044929504
1761333865814756000,9.871756103515626,9.975677490234375,2.1822543144226074,0.3900300860404968
1761333865833456000,9.8904560546875,9.757930755615234,2.227717876434326,0.3445664644241333
1761333865852156400,9.909156494140625,9.4660062789917,2.313859462738037,0.32303106784820557
1761333865870856400,9.9278564453125,9.317651748657227,2.280359983444214,0.33499518036842346
1761333865889556500,9.946556396484375,9.30329418182373,2.2085752487182617,0.29431718587875366
1761333865908256500,9.965256591796875,9.454042434692383,2.139183521270752,0.3397808074951172
1761333865926956800,9.983956787109374,9.58325481414795,2.060220241546631,0.42352959513664246
1761333865945656800,10.00265673828125,9.604789733886719,2.062613010406494,0.41874396800994873
1761333865964357000,10.021357177734375,9.45164966583252,2.0482561588287354,0.27038896083831787
1761333865983057200,10.04005712890625,9.324830055236816,2.0721843242645264,0.2991028428077698
1761333866001757400,10.05875732421875,9.322437286376953,2.00518536567688,0.27038896083831787
1761333866020457500,10.07745751953125,9.45164966583252,1.8831514120101929,0.19142581522464752
1761333866039157500,10.096157470703124,9.265008926391602,2.234896421432495,0.035892341285943985
1761333866057857800,10.11485791015625,9.659825325012207,2.117648124694824,0.9882357716560364
1761333866076557800,10.133557861328125,10.676774978637695,2.306680917739868,1.25144624710083
1761333866095258000,10.152258056640624,11.181660652160645,2.4885356426239014,1.2418749332427979
