time,seconds_elapsed,z,y,x
1761333855996110000,0.053110107421875,-0.09162971377372742,0.01695149764418602,0.1493564397096634
1761333856014810000,0.07181005859375,-0.05864302068948746,0.004734201822429895,0.09498947113752365
1761333856033510400,0.090510498046875,-0.037262752652168274,-0.02519817277789116,0.03695731982588768
1761333856052210400,0.10921044921875,-0.000610864779446274,-0.042913250625133514,-0.01435532234609127
1761333856070910500,0.127910400390625,0.043371398001909256,-0.017256930470466614,-0.04428769648075104
1761333856089610500,0.146610595703125,0.0818558782339096,-0.005039634648710489,-0.029626941308379173
1761333856108310500,0.165310546875,0.13011419773101807,-0.011759147047996521,0.003359756199643016
1761333856127010800,0.1840107421875,0.17287473380565643,-0.03436114266514778,0.013133592903614044
1761333856145710800,0.2027109375,0.17837251722812653,-0.05757400393486023,0.0021380267571657896
1761333856164411000,0.221410888671875,0.1795942485332489,-0.03741546720266342,-0.011911863461136818
1761333856183111000,0.24011083984375,0.2009745091199875,-0.033139415085315704,-0.0204639695584774
1761333856201811000,0.25881103515625,0.17898337543010712,-0.07773254066705704,-0.00946840364485979
1761333856220511200,0.27751123046875,0.13255766034126282,-0.0025961752980947495,0.04428769648075104
1761333856239211300,0.296211181640625,0.11606431007385254,-0.0038179049734026194,0.0668896958231926
1761333856257911300,0.314911376953125,0.12461641430854797,-0.08261945843696594,0.035735588520765305
1761333856276611300,0.333611328125,0.12400554865598679,-0.10888664424419403,-0.016798781231045723
1761333856295311400,0.352311279296875,0.10323614627122879,-0.04657844081521034,-0.007024944759905338
1761333856314011600,0.37101171875,0.08307760953903198,-0.052687086164951324,0.018631376326084137
1761333856332711700,0.389711669921875,0.04886918142437935,-0.06979130208492279,0.024740023538470268
1761333856351411700,0.40841162109375,0.004276053514331579,-0.022754713892936707,0.029626941308379173
1761333856370111700,0.42711181640625,-0.0256563201546669,0.010842849500477314,0.029016077518463135
1761333856388811800,0.445811767578125,-0.05253437161445618,-0.0154243353754282,0.010079269297420979
1761333856407512000,0.464511962890625,-0.10201441496610641,-0.01847865991294384,-0.008857538923621178
1761333856426212000,0.483212158203125,-0.13683371245861053,0.005345067009329796,-0.022296564653515816
1761333856444912000,0.501912109375,-0.21380266547203064,0.03222311660647392,-0.008246674202382565
1761333856463612200,0.520612060546875,-0.2577849328517914,0.06643154472112656,-0.022296564653515816
1761333856482312200,0.539312255859375,-0.29016077518463135,0.056657709181308746,-0.04428769648075104
1761333856501012500,0.558012451171875,-0.26511532068252563,0.03283398225903511,-0.051618073135614395
1761333856519712500,0.57671240234375,-0.23884813487529755,0.02672533318400383,-0.0009162971982732415
1761333856538412500,0.59541259765625,-0.20647229254245758,0.037720900028944016,0.06811141967773438
1761333856557112600,0.614112548828125,-0.16859868168830872,0.01206457894295454,0.11087195575237274
1761333856575812600,0.6328125,-0.14110976457595825,-0.01908952370285988,0.13469567894935608
1761333856594513000,0.651512939453125,-0.12950333952903748,0.040775224566459656,0.18906265497207642
1761333856613213000,0.670212890625,-0.11911863088607788,0.037720900028944016,0.24037529528141022
1761333856631913000,0.688912841796875,-0.11056652665138245,-0.029474224895238876,0.25992295145988464
1761333856650613000,0.707613037109375,-0.12034036219120026,-0.03375028073787689,0.23365578055381775
1761333856669313000,0.72631298828125,-0.12950333952903748,-0.0013744457392022014,0.1847866028547287
1761333856688013300,0.745013427734375,-0.11667517572641373,-0.0038179049734026194,0.13713914155960083
1761333856706713300,0.76371337890625,-0.09834922850131989,-0.055741410702466965,0.08826996386051178
1761333856725413400,0.782413330078125,-0.08613193035125732,-0.04535670951008797,0.06933315098285675
1761333856744113400,0.801113525390625,-0.07513637095689774,-0.02214384824037552,0.06627883017063141
1761333856762813400,0.8198134765625,-0.02932151034474373,-0.04046979174017906,0.0308486707508564
1761333856781513700,0.838513671875,0.03176496922969818,-0.0642935186624527,-0.021685699000954628
1761333856800213800,0.8572138671875,0.06841685622930527,-0.08689551800489426,-0.05833758786320686
1761333856818913800,0.875913818359375,0.10506874322891235,-0.07223475724458694,-0.06627883017063141
1761333856837613800,0.89461376953125,0.14782927930355072,-0.06734783947467804,-0.07788526266813278
1761333856856313900,0.91331396484375,0.17776164412498474,-0.03558287397027016,-0.0925460159778595
1761333856875014100,0.93201416015625,0.185092031955719,-0.009926552884280682,-0.11453714966773987
1761333856893714200,0.950714111328125,0.18142683804035187,0.013286309316754341,-0.11148282140493393
1761333856912414200,0.969414306640625,0.19303326308727264,-0.02458730712532997,-0.10965022444725037
1761333856931114200,0.9881142578125,0.20708316564559937,-0.016035201027989388,-0.0870482325553894
1761333856949814300,1.006814208984375,0.19914191961288452,-0.0038179049734026194,-0.0668896958231926
1761333856968514600,1.0255146484375,0.18081597983837128,0.0206166859716177,-0.04917461425065994
1761333856987214600,1.044214599609375,0.15027274191379547,0.04627300798892975,-0.03940077871084213
1761333857005914600,1.06291455078125,0.12034036219120026,0.08048143237829208,-0.0412333719432354
1761333857024614700,1.08161474609375,0.09712749719619751,0.10063996911048889,-0.04734202101826668
1761333857043314700,1.100314697265625,0.08552107214927673,0.07498364895582199,-0.08460476994514465
1761333857062015000,1.119014892578125,0.06719512492418289,0.03222311660647392,-0.12614357471466064
1761333857080715000,1.137715087890625,0.06108647957444191,0.02977965772151947,-0.12186752259731293
1761333857099415000,1.1564150390625,0.08063415437936783,0.018784092739224434,-0.07910698652267456
1761333857118115000,1.175114990234375,0.10629047453403473,-0.0019853105768561363,-0.014966187067329884
1761333857136815000,1.193815185546875,0.12278381735086441,-0.01847865991294384,0.04428769648075104
1761333857155515400,1.212515380859375,0.11545344442129135,-0.0019853105768561363,0.0717766135931015
1761333857174215400,1.23121533203125,0.07941242307424545,0.006566796451807022,0.06200277432799339
1761333857192915500,1.24991552734375,0.020158538594841957,-0.019700389355421066,0.01435532234609127
1761333857211615500,1.268615478515625,-0.027488915249705315,-0.05024362727999687,-0.03329212963581085
1761333857230315500,1.2873154296875,-0.0824667438864708,-0.06123919412493706,-0.035735588520765305
1761333857249015800,1.306015869140625,-0.1386663019657135,-0.005039634648710489,0.03940077871084213
1761333857267715800,1.3247158203125,-0.16737695038318634,0.040775224566459656,0.12980876863002777
1761333857286416000,1.343415771484375,-0.16676609218120575,0.02000582218170166,0.1597411334514618
1761333857305116000,1.362115966796875,-0.14782927930355072,-0.004428769461810589,0.15179990231990814
1761333857323816200,1.380816162109375,-0.1386663019657135,0.031001387163996696,0.14508038759231567
1761333857342516200,1.39951611328125,-0.1081230640411377,0.02916879393160343,0.13164135813713074
1761333857361216300,1.41821630859375,-0.04581485688686371,-0.017867794260382652,0.10903936624526978
1761333857379916300,1.436916259765625,0.017715077847242355,-0.03558287397027016,0.09682206809520721
1761333857398616300,1.4556162109375,0.04276053607463837,-0.010537417605519295,0.1078176349401474
1761333857417316600,1.474316650390625,0.03298669680953026,-0.009926552884280682,0.1078176349401474
1761333857436016600,1.4930166015625,0.01282816007733345,-0.0001527161948615685,0.0766635313630104
1761333857454716700,1.511716552734375,-0.011606430634856224,0.006566796451807022,0.024740023538470268
1761333857473416700,1.530416748046875,-0.056810423731803894,0.010842849500477314,-0.02107483521103859
1761333857492116700,1.54911669921875,-0.09162971377372742,0.0334448479115963,-0.03940077871084213
1761333857510817000,1.567817138671875,-0.10567960888147354,0.0591011680662632,-0.0412333719432354
1761333857529517000,1.58651708984375,-0.10079269111156464,0.08536835014820099,-0.03329212963581085
1761333857548217000,1.605217041015625,-0.08979712426662445,0.0694858655333519,-0.028405211865901947
1761333857566917000,1.623917236328125,-0.05192350596189499,0.03711003437638283,-0.026572618633508682
1761333857585617200,1.6426171875,-0.011606430634856224,0.03222311660647392,-0.013133592903614044
1761333857604317400,1.6613173828125,0.025045456364750862,0.04505127668380737,0.005803215317428112
1761333857623017500,1.680017578125,0.06352993845939636,0.004123337101191282,-0.003359756199643016
1761333857641717500,1.698717529296875,0.08552107214927673,0.006566796451807022,-0.022907428443431854
1761333857660417500,1.71741748046875,0.09162971377372742,0.002901607658714056,-0.016187917441129684
1761333857679117600,1.73611767578125,0.09101885557174683,-0.005039634648710489,0.019853105768561363
1761333857697817900,1.75481787109375,0.07391463965177536,-0.0001527161948615685,0.03023780696094036
1761333857716518000,1.773517822265625,0.04886918142437935,0.014508038759231567,0.032681263983249664
1761333857735218000,1.792218017578125,0.03237583488225937,-0.0038179049734026194,0.03145953640341759
1761333857753918000,1.81091796875,0.027488915249705315,-0.01359174121171236,0.014966187067329884
1761333857772618000,1.829617919921875,0.02626718580722809,-0.014813470654189587,-0.005192350596189499
1761333857791318300,1.848318359375,0.01954767294228077,-0.04413498193025589,-0.03145953640341759
1761333857810018300,1.867018310546875,-0.0030543238390237093,-0.06001746281981468,-0.04550942778587341
1761333857828718300,1.88571826171875,-0.033597562462091446,-0.049021899700164795,-0.022296564653515816
1761333857847418400,1.90441845703125,-0.03543015569448471,-0.06979130208492279,0.024740023538470268
1761333857866118700,1.92311865234375,-0.040317077189683914,-0.05940660089254379,0.04001164436340332
1761333857884818700,1.941818603515625,-0.05864302068948746,-0.04413498193025589,0.029016077518463135
1761333857903518700,1.960518798828125,-0.06414080411195755,-0.03436114266514778,0.01435532234609127
1761333857922218800,1.97921875,-0.049480047076940536,-0.03558287397027016,0.0021380267571657896
1761333857940918800,1.997918701171875,-0.03176496922969818,-0.02458730712532997,0.010690134018659592
1761333857959619000,2.016619140625,-0.000610864779446274,-0.030695954337716103,0.024740023538470268
1761333857978319000,2.035319091796875,0.01954767294228077,-0.030695954337716103,0.022907428443431854
1761333857997019100,2.05401904296875,0.020769402384757996,-0.03252854943275452,0.016798781231045723
1761333858015719200,2.07271923828125,0.023212861269712448,-0.0386371985077858,0.011300998739898205
1761333858034419200,2.091419189453125,0.004886918235570192,-0.04108065739274025,-0.005192350596189499
1761333858053119500,2.110119384765625,-0.02932151034474373,-0.026419902220368385,-0.021685699000954628
1761333858071819500,2.128819580078125,-0.07757982611656189,0.002901607658714056,-0.00946840364485979
1761333858090519600,2.14751953125,-0.10995566099882126,0.046883873641490936,0.013744457624852657
1761333858109219600,2.166219482421875,-0.11911863088607788,0.07376192510128021,0.025961752980947495
1761333858127919600,2.184919677734375,-0.10751219838857651,0.0639880821108818,0.022296564653515816
1761333858146620000,2.203619873046875,-0.06475166976451874,0.04810560122132301,0.018631376326084137
1761333858165320000,2.22231982421875,-0.034208428114652634,0.05543597787618637,0.02412915788590908
1761333858184020000,2.24102001953125,-0.028099779039621353,0.05971203371882439,0.010690134018659592
1761333858202720000,2.259719970703125,-0.02260199747979641,0.0206166859716177,-0.01802051067352295
1761333858221420000,2.278419921875,-0.001832594396546483,0.004734201822429895,-0.025350889191031456
1761333858240120300,2.297120361328125,0.0054977829568088055,0.002901607658714056,-0.005803215317428112
1761333858258820400,2.3158203125,-0.004276053514331579,0.015729768201708794,0.0027488914784044027
1761333858277520400,2.334520263671875,-0.01954767294228077,0.02672533318400383,-0.005192350596189499
1761333858296220700,2.353220703125,-0.02871064469218254,0.03405570983886719,-0.019242240116000175
1761333858314920400,2.37192041015625,-0.030543239787220955,0.04932733252644539,-0.04550942778587341
1761333858333620700,2.390620849609375,-0.017715077847242355,0.046883873641490936,-0.06811141967773438
1761333858352320800,2.40932080078125,-0.001221729558892548,0.04566214233636856,-0.06811141967773438
1761333858371020800,2.428020751953125,0.028099779039621353,0.015729768201708794,-0.07605266571044922
1761333858389721000,2.44672119140625,0.059864748269319534,-0.02519817277789116,-0.09987638890743256
1761333858408421000,2.465421142578125,0.0824667438864708,-0.04169152304530144,-0.09804379940032959
1761333858427121200,2.48412109375,0.07819069176912308,-0.05818486958742142,-0.05711585655808449
1761333858445821200,2.5028212890625,0.03909534588456154,-0.06001746281981468,-0.011911863461136818
1761333858464521200,2.521521240234375,-0.027488915249705315,-0.036804601550102234,0.025350889191031456
1761333858483221500,2.540221435546875,-0.09529490768909454,-0.029474224895238876,0.06811141967773438
1761333858501921500,2.558921630859375,-0.12095122784376144,-0.016035201027989388,0.11759147047996521
1761333858520621600,2.57762158203125,-0.10690133273601532,0.024281874299049377,0.13530655205249786
1761333858539321600,2.596321533203125,-0.0720820426940918,0.016340631991624832,0.11392628401517868
1761333858558021600,2.615021728515625,-0.026878049597144127,-0.039248060435056686,0.0766635313630104
1761333858576722000,2.633721923828125,0.0030543238390237093,-0.030695954337716103,0.04428769648075104
1761333858595422000,2.652421875,0.013439024798572063,-0.005039634648710489,0.026572618633508682
1761333858614122000,2.6711220703125,0.028099779039621353,-0.009315688163042068,0.022296564653515816
1761333858632822000,2.689822021484375,0.06047561392188072,-0.03558287397027016,0.007635809946805239
1761333858651522300,2.708522216796875,0.0769689604640007,-0.03802633285522461,-0.005192350596189499
1761333858670222300,2.727222412109375,0.06475166976451874,-0.045967575162649155,0.0027488914784044027
1761333858688922400,2.74592236328125,0.046425722539424896,-0.030085090547800064,0.032681263983249664
1761333858707622400,2.764622314453125,0.033597562462091446,0.01206457894295454,0.06383536756038666
1761333858726322400,2.783322509765625,0.020769402384757996,0.006566796451807022,0.07910698652267456
1761333858745022700,2.802022705078125,0.014660755172371864,-0.02458730712532997,0.06200277432799339
1761333858763722800,2.82072265625,0.014049889519810677,-0.026419902220368385,0.0204639695584774
1761333858782422800,2.8394228515625,0.012217295356094837,-0.014202605932950974,-0.018631376326084137
1761333858801122800,2.858122802734375,0.008552107028663158,-0.020922118797898293,-0.029016077518463135
1761333858819822800,2.87682275390625,0.006108647678047419,-0.023365577682852745,-0.0204639695584774
1761333858838523100,2.895523193359375,0.010995565913617611,-0.007483093533664942,-0.016187917441129684
1761333858857223200,2.91422314453125,0.017715077847242355,0.0010690133785828948,-0.026572618633508682
1761333858875923200,2.932923095703125,0.018325943499803543,-0.0025961752980947495,-0.03451386094093323
1761333858894623200,2.951623291015625,0.017715077847242355,-0.011759147047996521,-0.03756818547844887
1761333858913323500,2.970323486328125,0.01649334840476513,-0.012980876490473747,-0.044898562133312225
1761333858932023600,2.9890234375,0.014660755172371864,-0.011759147047996521,-0.05406153202056885
1761333858950723600,3.0077236328125,0.000610864779446274,0.005345067009329796,-0.05894844979047775
1761333858969423600,3.026423583984375,-0.0256563201546669,0.03405570983886719,-0.0412333719432354
1761333858988123600,3.04512353515625,-0.05742128938436508,0.09392046183347702,-0.013133592903614044
1761333859006824000,3.063823974609375,-0.06719512492418289,0.1049160286784172,-0.03145953640341759
1761333859025524000,3.08252392578125,-0.02871064469218254,0.060322895646095276,-0.0766635313630104
1761333859044224000,3.10122412109375,0.030543239787220955,0.01206457894295454,-0.10048725455999374
1761333859062924300,3.11992431640625,0.047036588191986084,-0.011759147047996521,-0.0821613147854805
1761333859081624000,3.1386240234375,0.023212861269712448,0.010842849500477314,-0.03145953640341759
1761333859100324400,3.157324462890625,-0.011606430634856224,0.053603384643793106,0.03451386094093323
1761333859119024400,3.1760244140625,-0.04764745384454727,0.05971203371882439,0.07971785217523575
1761333859137724400,3.194724365234375,-0.08307760953903198,0.034666575491428375,0.09010255336761475
1761333859156424700,3.2134248046875,-0.08857539296150208,0.021838415414094925,0.07605266571044922
1761333859175124700,3.232124755859375,-0.05803215503692627,0.006566796451807022,0.06322450190782547
1761333859193824800,3.25082470703125,-0.023212861269712448,-0.01847865991294384,0.06566796451807022
1761333859212524800,3.26952490234375,0.017104214057326317,-0.023976443335413933,0.05833758786320686
1761333859231224800,3.288224853515625,0.04581485688686371,-0.03375028073787689,0.04367683082818985
1761333859249925000,3.306925048828125,0.0513126403093338,-0.05513054504990578,0.022296564653515816
1761333859268625200,3.325625244140625,0.04825831577181816,-0.06368265300989151,-0.008246674202382565
1761333859287325200,3.3443251953125,0.04581485688686371,-0.06001746281981468,-0.026572618633508682
1761333859306025200,3.363025146484375,0.04764745384454727,-0.04718930274248123,-0.008246674202382565
1761333859324725500,3.3817255859375,0.047036588191986084,-0.049632761627435684,0.022907428443431854
1761333859343425500,3.400425537109375,0.03848448023200035,-0.05696314200758934,0.04367683082818985
1761333859362125600,3.41912548828125,0.027488915249705315,-0.052076224237680435,0.05039634555578232
1761333859380825600,3.43782568359375,0.0256563201546669,-0.05940660089254379,0.04673115536570549
1761333859399525600,3.456525634765625,0.021380268037319183,-0.06979130208492279,0.04428769648075104
1761333859418226000,3.475225830078125,0.01649334840476513,-0.05635227635502815,0.041844237595796585
1761333859436926000,3.493926025390625,0.026878049597144127,-0.04169152304530144,0.0308486707508564
1761333859455626000,3.5126259765625,0.029932374134659767,-0.04046979174017906,0.006414080038666725
1761333859474326300,3.531326171875,0.031154103577136993,-0.03252854943275452,-0.021685699000954628
1761333859493026300,3.5500263671875,0.03543015569448471,-0.02519817277789116,-0.05222893878817558
1761333859511726300,3.568726318359375,0.039706211537122726,-0.0025961752980947495,-0.0668896958231926
1761333859530426400,3.58742626953125,0.043371398001909256,-0.0062613640911877155,-0.06933315098285675
1761333859549126400,3.60612646484375,0.06047561392188072,-0.016646064817905426,-0.05955931544303894
1761333859567826700,3.62482666015625,0.06475166976451874,-0.014813470654189587,-0.05283980444073677
1761333859586526700,3.643526611328125,0.053756099194288254,0.005345067009329796,-0.0461202897131443
1761333859605226800,3.662226806640625,0.0360410213470459,0.013286309316754341,-0.0412333719432354
1761333859623926800,3.6809267578125,0.017104214057326317,0.057268574833869934,-0.03695731982588768
1761333859642627000,3.699626953125,0.008552107028663158,0.07803797721862793,-0.029626941308379173
1761333859661327000,3.7183271484375,0.0256563201546669,0.0694858655333519,-0.022296564653515816
1761333859680027100,3.737027099609375,0.056199558079242706,0.03283398225903511,-0.022907428443431854
1761333859698727400,3.7557275390625,0.07147117704153061,0.037720900028944016,-0.021685699000954628
1761333859717427200,3.77442724609375,0.07757982611656189,0.03588830679655075,-0.022296564653515816
1761333859736127500,3.79312744140625,0.06902772188186646,0.02000582218170166,-0.013133592903614044
1761333859754827500,3.81182763671875,0.024434590712189674,0.014508038759231567,0.0027488914784044027
1761333859773527600,3.830527587890625,-0.04153880476951599,0.05787943676114082,0.007635809946805239
1761333859792227800,3.849227783203125,-0.06536252796649933,0.08292489498853683,0.026572618633508682
1761333859810927900,3.867927978515625,-0.06597339361906052,0.0591011680662632,0.051618073135614395
1761333859829628000,3.8866279296875,-0.04520399495959282,-0.014813470654189587,0.01802051067352295
1761333859848328000,3.905327880859375,-0.004276053514331579,-0.09117157012224197,-0.0204639695584774
1761333859867028200,3.9240283203125,0.03298669680953026,-0.08139773458242416,0.024740023538470268
1761333859885728300,3.942728271484375,0.0513126403093338,-0.029474224895238876,0.10965022444725037
1761333859904428300,3.96142822265625,0.07635809481143951,-0.02764163166284561,0.1432477980852127
1761333859923128600,3.980128662109375,0.08918625861406326,-0.06307178735733032,0.12125665694475174
1761333859941828600,3.99882861328125,0.07574722915887833,-0.0746782198548317,0.0870482325553894
1761333859960528600,4.017528564453125,0.04520399495959282,-0.04535670951008797,0.06383536756038666
1761333859979228700,4.036228759765625,0.0256563201546669,-0.02519817277789116,0.04306596517562866
1761333859997928700,4.0549287109375,0.01893680728971958,-0.02458730712532997,0.03390299528837204
1761333860016629000,4.07362890625,0.01649334840476513,-0.014202605932950974,0.03390299528837204
1761333860035329000,4.0923291015625,-0.000610864779446274,-0.016035201027989388,0.01802051067352295
1761333860054029000,4.111029052734375,-0.01893680728971958,-0.029474224895238876,-0.016187917441129684
1761333860072729000,4.12972900390625,-0.017104214057326317,-0.02519817277789116,-0.03695731982588768
1761333860091429400,4.148429443359375,-0.009162971749901772,-0.012370011769235134,-0.02107483521103859
1761333860110129400,4.16712939453125,-0.004886918235570192,-0.012980876490473747,0.015577051788568497
1761333860128829400,4.185829345703125,0.004276053514331579,-0.006872228812426329,0.03145953640341759
1761333860147529700,4.20452978515625,0.01649334840476513,0.008399390615522861,0.035735588520765305
1761333860166229800,4.223229736328125,0.029932374134659767,0.005955931730568409,0.026572618633508682
1761333860184929800,4.2419296875,0.033597562462091446,-0.011148282326757908,0.004581485874950886
1761333860203629800,4.2606298828125,0.03176496922969818,-0.025809036567807198,-0.03329212963581085
1761333860222330000,4.279330078125,0.027488915249705315,-0.014202605932950974,-0.05528326332569122
1761333860241030100,4.298030029296875,0.01588248461484909,0.004734201822429895,-0.044898562133312225
1761333860259730200,4.316730224609375,0,0.040775224566459656,-0.01802051067352295
1761333860278430200,4.33543017578125,0.004276053514331579,0.05238165333867073,-0.007635809946805239
1761333860297130200,4.354130126953125,0.008552107028663158,0.0383317656815052,-0.03023780696094036
1761333860315830500,4.37283056640625,0.006108647678047419,0.041386090219020844,-0.06811141967773438
1761333860334530600,4.391530517578125,0.009773836471140385,0.04932733252644539,-0.0766635313630104
1761333860353230600,4.410230712890625,0.031154103577136993,0.04566214233636856,-0.0565049909055233
1761333860371930600,4.4289306640625,0.04276053607463837,0.009621120058000088,-0.05345066636800766
1761333860390631000,4.447630859375,0.02932151034474373,-0.01847865991294384,-0.07299833744764328
1761333860409331000,4.4663310546875,-0.000610864779446274,-0.020311253145337105,-0.08460476994514465
1761333860428031000,4.485031005859375,-0.05864302068948746,-0.0013744457392022014,-0.047952886670827866
1761333860446731300,4.503731201171875,-0.13133592903614044,0.03222311660647392,0.032070402055978775
1761333860465431300,4.522431396484375,-0.16859868168830872,0.0792597085237503,0.11026109009981155
1761333860484131300,4.54113134765625,-0.15149445831775665,0.0792597085237503,0.14080433547496796
1761333860502831400,4.559831298828125,-0.10690133273601532,0.0383317656815052,0.11881320178508759
1761333860521531600,4.57853173828125,-0.059864748269319534,-0.019700389355421066,0.06017018109560013
1761333860540231700,4.597231689453125,-0.006719512399286032,-0.039248060435056686,0.00946840364485979
1761333860558931700,4.615931640625,0.015271619893610477,-0.05757400393486023,0.012522728182375431
1761333860577632000,4.634632080078125,0.009773836471140385,-0.058795735239982605,0.0461202897131443
1761333860596332000,4.65333203125,0.017715077847242355,-0.04046979174017906,0.060781046748161316
1761333860615032000,4.672031982421875,-0.01649334840476513,-0.01908952370285988,0.04245510324835777
1761333860633732000,4.690732177734375,-0.043982263654470444,-0.03436114266514778,0.01435532234609127
1761333860652432400,4.709432373046875,-0.04886918142437935,-0.05757400393486023,-0.011911863461136818
1761333860671132400,4.72813232421875,-0.050090912729501724,-0.022754713892936707,-0.01435532234609127
1761333860689832400,4.74683251953125,-0.059864748269319534,0.013897174037992954,-0.0015271619195118546
1761333860708532500,4.765532470703125,-0.04520399495959282,0.012675444595515728,0.000305432389723137
1761333860727232500,4.784232421875,-0.0360410213470459,0.00045814859913662076,-0.013744457624852657
1761333860745932800,4.802932861328125,-0.014660755172371864,-0.019700389355421066,-0.04001164436340332
1761333860764632800,4.8216328125,0.011606430634856224,-0.04535670951008797,-0.05833758786320686
1761333860783332900,4.840332763671875,0.013439024798572063,-0.030695954337716103,-0.0565049909055233
1761333860802033200,4.859033203125,0.003665188793092966,-0.023976443335413933,-0.048563748598098755
1761333860820733200,4.877733154296875,-0.0054977829568088055,-0.012370011769235134,-0.03817904740571976
1761333860839433200,4.89643310546875,-0.013439024798572063,-0.014813470654189587,-0.0412333719432354
1761333860858133200,4.91513330078125,-0.02260199747979641,-0.011759147047996521,-0.05283980444073677
1761333860876833500,4.93383349609375,-0.023823726922273636,0.004123337101191282,-0.06444623321294785
1761333860895533600,4.952533447265625,-0.028099779039621353,0.03405570983886719,-0.05833758786320686
1761333860914233600,4.971233642578125,-0.017715077847242355,0.04993819445371628,-0.038789913058280945
1761333860932934000,4.989933837890625,0.009773836471140385,0.03894263133406639,-0.029016077518463135
1761333860951634000,5.008634033203125,0.0360410213470459,0.007788525894284248,-0.0412333719432354
1761333860970334000,5.027333984375,0.03481929376721382,-0.0007635809597559273,-0.0668896958231926
1761333860989034000,5.046033935546875,0.007941242307424545,-0.01847865991294384,-0.09010255336761475
1761333861007734300,5.064734375,-0.006108647678047419,-0.0038179049734026194,-0.06933315098285675
1761333861026434300,5.083434326171875,-0.0256563201546669,0.005345067009329796,-0.0027488914784044027
1761333861045134300,5.10213427734375,-0.06719512492418289,-0.010537417605519295,0.060781046748161316
1761333861063834600,5.120834716796875,-0.12522727251052856,-0.026419902220368385,0.0772743970155716
1761333861082534700,5.13953466796875,-0.1649334877729416,0.028557928279042244,0.08032871782779694
1761333861101234700,5.158234619140625,-0.1698204129934311,0.02977965772151947,0.08826996386051178
1761333861119934700,5.176934814453125,-0.15210533142089844,0.021838415414094925,0.09010255336761475
1761333861138635000,5.195635009765625,-0.10567960888147354,0.017562363296747208,0.07238747924566269
1761333861157335000,5.2143349609375,-0.037262752652168274,-0.0025961752980947495,0.04673115536570549
1761333861176035000,5.23303515625,0.020769402384757996,-0.014813470654189587,0.03695731982588768
1761333861194735000,5.251735107421875,0.059864748269319534,-0.009315688163042068,0.022296564653515816
1761333861213435400,5.270435302734375,0.08124501258134842,-0.03252854943275452,-0.004581485874950886
1761333861232135400,5.289135498046875,0.09651663154363632,-0.042913250625133514,-0.02779434807598591
1761333861250835500,5.30783544921875,0.09101885557174683,-0.03558287397027016,-0.03329212963581085
1761333861269535700,5.32653564453125,0.0720820426940918,-0.009926552884280682,-0.01802051067352295
1761333861288235800,5.34523583984375,0.053145237267017365,0.008399390615522861,0.005192350596189499
1761333861306935800,5.363935791015625,0.049480047076940536,0.018784092739224434,0.024740023538470268
1761333861325635800,5.3826357421875,0.04459312930703163,0.002901607658714056,0.011300998739898205
1761333861344336100,5.401336181640625,0.03543015569448471,0.021227551624178886,-0.016187917441129684
1761333861363036200,5.4200361328125,0.037262752652168274,0.04627300798892975,-0.023518294095993042
1761333861381736200,5.438736083984375,0.03237583488225937,0.056657709181308746,-0.013744457624852657
1761333861400436500,5.4574365234375,0.027488915249705315,0.03283398225903511,-0.04978547990322113
1761333861419136500,5.476136474609375,0.03176496922969818,-0.008093958720564842,-0.11575887352228165
1761333861437836800,5.4948369140625,0.05497783049941063,0.0010690133785828948,-0.14569124579429626
1761333861456536800,5.513536865234375,0.06291907280683517,0.031001387163996696,-0.10476330667734146
1761333861475236900,5.53223681640625,0.06780599057674408,0.051159925758838654,-0.03451386094093323
1761333861493937000,5.55093701171875,0.07941242307424545,0.05543597787618637,0.0027488914784044027
1761333861512637200,5.56963720703125,0.07880155742168427,0.02977965772151947,-0.011300998739898205
1761333861531337200,5.588337158203125,0.07269290834665298,0.0487164668738842,-0.03634645417332649
1761333861550037200,5.607037353515625,0.06475166976451874,0.07681624591350555,-0.029626941308379173
1761333861568737500,5.625737548828125,0.07513637095689774,0.07376192510128021,-0.0009162971982732415
1761333861587437600,5.6444375,0.09590577334165573,0.03222311660647392,0.006414080038666725
1761333861606137600,5.6631376953125,0.10079269111156464,0.0206166859716177,-0.01740964688360691
1761333861624837600,5.681837646484375,0.08491020649671555,0.010842849500477314,-0.04673115536570549
1761333861643538000,5.700537841796875,0.03237583488225937,-0.014202605932950974,-0.05345066636800766
1761333861662238000,5.719238037109375,-0.031154103577136993,-0.014202605932950974,-0.03817904740571976
1761333861680938000,5.73793798828125,-0.08979712426662445,0.018784092739224434,0.011300998739898205
1761333861699638300,5.75663818359375,-0.13194678723812103,0.0591011680662632,0.10109812021255493
1761333861718338300,5.77533837890625,-0.13988803327083588,0.07620538026094437,0.14141519367694855
1761333861737038300,5.794038330078125,-0.11667517572641373,0.060322895646095276,0.10598503798246384
1761333861755738400,5.81273828125,-0.06902772188186646,0.0206166859716177,0.0461202897131443
1761333861774438700,5.831438720703125,0.002443459117785096,-0.009315688163042068,0.003359756199643016
1761333861793138700,5.850138671875,0.06841685622930527,-0.014202605932950974,-0.013133592903614044
1761333861811838700,5.868838623046875,0.10995566099882126,-0.03375028073787689,-0.014966187067329884
1761333861830538800,5.887538818359375,0.1233946830034256,-0.05146535858511925,-0.008246674202382565
1761333861849239000,5.906239013671875,0.1081230640411377,-0.036193739622831345,-0.006414080038666725
1761333861867939000,5.92493896484375,0.07513637095689774,-0.017256930470466614,-0.000305432389723137
1761333861886639400,5.943639404296875,0.037262752652168274,-0.0062613640911877155,0.016187917441129684
1761333861905339400,5.96233935546875,0.007330377586185932,0.004123337101191282,0.024740023538470268
1761333861924039400,5.981039306640625,-0.004886918235570192,0.017562363296747208,0.015577051788568497
1761333861942739700,5.99973974609375,-0.006108647678047419,0.02306014485657215,0.000305432389723137
1761333861961439700,6.018439697265625,-0.000610864779446274,0.00045814859913662076,-0.02718348242342472
1761333861980139800,6.037139892578125,0.004276053514331579,-0.03130681812763214,-0.06505709886550903
1761333861998839800,6.05583984375,0.003665188793092966,-0.03558287397027016,-0.09865466505289078
1761333862017540000,6.0745400390625,-0.0054977829568088055,-0.010537417605519295,-0.1078176349401474
1761333862036240100,6.093240234375,-0.007330377586185932,-0.012370011769235134,-0.09560033679008484
1761333862054940200,6.111940185546875,-0.000610864779446274,-0.03497200831770897,-0.0870482325553894
1761333862073640400,6.130640380859375,0.009773836471140385,-0.05024362727999687,-0.09010255336761475
1761333862092340500,6.149340576171875,0.020769402384757996,-0.03741546720266342,-0.07544180005788803
1761333862111040500,6.16804052734375,0.012217295356094837,-0.03741546720266342,-0.041844237595796585
1761333862129740500,6.186740478515625,0.006108647678047419,-0.01847865991294384,-0.008246674202382565
1761333862148440800,6.20544091796875,-0.001221729558892548,0.0206166859716177,0.010690134018659592
1761333862167140900,6.224140869140625,-0.01954767294228077,0.01695149764418602,-0.014966187067329884
1761333862185841200,6.242841064453125,-0.01954767294228077,-0.01908952370285988,-0.08032871782779694
1761333862204541200,6.261541259765625,0.0030543238390237093,0.0010690133785828948,-0.10170898586511612
1761333862223241200,6.2802412109375,0.009773836471140385,0.021838415414094925,-0.06383536756038666
1761333862241941500,6.29894140625,0.010995565913617611,0.02000582218170166,-0.01435532234609127
1761333862260641500,6.3176416015625,0.02260199747979641,0.002901607658714056,-0.018631376326084137
1761333862279341600,6.336341552734375,0.009162971749901772,0.001679878099821508,-0.04428769648075104
1761333862298041600,6.35504150390625,-0.0256563201546669,-0.0062613640911877155,-0.048563748598098755
1761333862316742000,6.373741943359375,-0.06291907280683517,0.004734201822429895,-0.01435532234609127
1761333862335442000,6.39244189453125,-0.07941242307424545,0.018173227086663246,0.03940077871084213
1761333862354142000,6.411141845703125,-0.09468404203653336,0.03894263133406639,0.11209368705749512
1761333862372842200,6.42984228515625,-0.0977383628487587,0.02611446939408779,0.15057817101478577
1761333862391542300,6.448542236328125,-0.08552107214927673,-0.01847865991294384,0.12980876863002777
1761333862410242300,6.4672421875,-0.0513126403093338,-0.027030766010284424,0.07788526266813278
1761333862428942600,6.485942626953125,-0.0256563201546669,-0.03497200831770897,0.03940077871084213
1761333862447642600,6.504642578125,-0.010995565913617611,-0.045967575162649155,0.047952886670827866
1761333862466342700,6.5233427734375,0.007941242307424545,-0.0386371985077858,0.05345066636800766
1761333862485043000,6.54204296875,0.017715077847242355,-0.03375028073787689,0.04001164436340332
1761333862503743000,6.560742919921875,0.015271619893610477,-0.0435241162776947,0.028405211865901947
1761333862522443000,6.579443115234375,0.020769402384757996,-0.05146535858511925,0.014966187067329884
1761333862541143000,6.59814306640625,0.010384701192378998,-0.04413498193025589,0.0021380267571657896
1761333862559843300,6.61684326171875,-0.004276053514331579,-0.02458730712532997,-0.0027488914784044027
1761333862578543400,6.63554345703125,-0.0030543238390237093,0.007788525894284248,0.0009162971982732415
1761333862597243600,6.65424365234375,0,-0.0013744457392022014,-0.003359756199643016
1761333862615943700,6.672943603515625,0.009162971749901772,-0.006872228812426329,-0.016798781231045723
1761333862634643700,6.691643798828125,0.014049889519810677,-0.023365577682852745,-0.04978547990322113
1761333862653344000,6.710343994140625,0.03176496922969818,-0.017256930470466614,-0.07422006875276566
1761333862672044000,6.7290439453125,0.04153880476951599,-0.023976443335413933,-0.08093958348035812
1761333862690744000,6.747744140625,0.04825831577181816,-0.02214384824037552,-0.08399390429258347
1761333862709444000,6.766444091796875,0.06597339361906052,-0.028863361105322838,-0.09621120244264603
1761333862728144400,6.785144287109375,0.06414080411195755,-0.004428769461810589,-0.09498947113752365
1761333862746844400,6.803844482421875,0.043982263654470444,0.02611446939408779,-0.060781046748161316
1761333862765544700,6.822544677734375,0.034208428114652634,0.013286309316754341,-0.03390299528837204
1761333862784244700,6.84124462890625,0.021380268037319183,0.024281874299049377,-0.02779434807598591
1761333862802944800,6.85994482421875,0.004886918235570192,0.0487164668738842,-0.010690134018659592
1761333862821644800,6.878644775390625,-0.003665188793092966,0.06276635825634003,0.003970621153712273
1761333862840345000,6.897344970703125,-0.001221729558892548,0.05482511222362518,-0.013744457624852657
1761333862859045000,6.916045166015625,0.009773836471140385,0.04566214233636856,-0.04673115536570549
1761333862877745400,6.934745361328125,0.02932151034474373,0.04810560122132301,-0.05100720748305321
1761333862896445400,6.953445556640625,0.024434590712189674,0.06582067906856537,-0.01740964688360691
1761333862915145500,6.9721455078125,-0.007330377586185932,0.0591011680662632,0.0027488914784044027
1761333862933845800,6.990845703125,-0.026878049597144127,0.009621120058000088,-0.004581485874950886
1761333862952545800,7.0095458984375,-0.029932374134659767,-0.0007635809597559273,0.000305432389723137
1761333862971245800,7.028245849609375,-0.053145237267017365,-0.0019853105768561363,0.03145953640341759
1761333862989945900,7.04694580078125,-0.09040798991918564,0.009621120058000088,0.08277218043804169
1761333863008646100,7.065646240234375,-0.1282816082239151,0.05604684352874756,0.14080433547496796
1761333863027346200,7.08434619140625,-0.13011419773101807,0.053603384643793106,0.16218459606170654
1761333863046046500,7.10304638671875,-0.1081230640411377,0.02367101050913334,0.13164135813713074
1761333863064746500,7.12174658203125,-0.07391463965177536,-0.0062613640911877155,0.06994401663541794
1761333863083446500,7.140446533203125,-0.03481929376721382,-0.02458730712532997,0.03329212963581085
1761333863102146800,7.159146728515625,0.0030543238390237093,-0.036804601550102234,0.035124726593494415
1761333863120846800,7.177846923828125,0.03237583488225937,-0.042913250625133514,0.038789913058280945
1761333863139547000,7.196546875,0.0360410213470459,-0.05818486958742142,0.02412915788590908
1761333863158247200,7.2152470703125,0.018325943499803543,-0.04841103404760361,0.022296564653515816
1761333863176947200,7.233947265625,-0.007330377586185932,-0.03802633285522461,0.03695731982588768
1761333863195647200,7.252647216796875,-0.018325943499803543,-0.03436114266514778,0.03695731982588768
1761333863214347500,7.271347412109375,-0.02260199747979641,-0.004428769461810589,0.03023780696094036
1761333863233047600,7.290047607421875,-0.018325943499803543,-0.0025961752980947495,0.02107483521103859
1761333863251747800,7.308747802734375,-0.013439024798572063,-0.03130681812763214,0.008857538923621178
1761333863270447900,7.32744775390625,-0.01282816007733345,-0.03558287397027016,-0.01435532234609127
1761333863289148000,7.34614794921875,-0.018325943499803543,-0.030695954337716103,-0.03756818547844887
1761333863307848000,7.364847900390625,-0.029932374134659767,-0.017867794260382652,-0.03940077871084213
1761333863326548200,7.38354833984375,-0.039706211537122726,-0.014202605932950974,-0.04367683082818985
1761333863345248300,7.402248291015625,-0.03909534588456154,-0.02519817277789116,-0.0668896958231926
1761333863363948300,7.4209482421875,-0.0256563201546669,-0.02519817277789116,-0.09132428467273712
1761333863382648600,7.439648681640625,-0.011606430634856224,-0.029474224895238876,-0.09682206809520721
1761333863401348600,7.4583486328125,0.009773836471140385,-0.036193739622831345,-0.08949168771505356
1761333863420049000,7.477048828125,0.025045456364750862,-0.02519817277789116,-0.08277218043804169
1761333863438749000,7.4957490234375,0.028099779039621353,-0.02458730712532997,-0.06627883017063141
1761333863457449000,7.514448974609375,0.031154103577136993,-0.012370011769235134,-0.04673115536570549
1761333863476149000,7.53314892578125,0.049480047076940536,0.007177661173045635,-0.04306596517562866
1761333863494849300,7.551849365234375,0.0513126403093338,0.003512472379952669,-0.03756818547844887
1761333863513549300,7.57054931640625,0.0513126403093338,0.002290742937475443,-0.035124726593494415
1761333863532249600,7.58924951171875,0.05803215503692627,-0.008093958720564842,-0.03817904740571976
1761333863550949600,7.60794970703125,0.05742128938436508,-0.016035201027989388,-0.03940077871084213
1761333863569649700,7.626649658203125,0.03176496922969818,-0.029474224895238876,-0.019853105768561363
1761333863588349700,7.645349609375,-0.011606430634856224,-0.04718930274248123,0.004581485874950886
1761333863607050000,7.664050048828125,-0.06719512492418289,-0.03375028073787689,0.026572618633508682
1761333863625750000,7.68275,-0.1233946830034256,-0.012370011769235134,0.06383536756038666
1761333863644450300,7.7014501953125,-0.18081597983837128,0.02367101050913334,0.11453714966773987
1761333863663150300,7.720150390625,-0.20769402384757996,0.00045814859913662076,0.1285870373249054
1761333863681850400,7.738850341796875,-0.18081597983837128,-0.05329795181751251,0.09926552325487137
1761333863700550700,7.757550537109375,-0.14110976457595825,-0.06856957077980042,0.0717766135931015
1761333863719250700,7.776250732421875,-0.10995566099882126,-0.023976443335413933,0.08155044913291931
1761333863737951000,7.794950927734375,-0.07147117704153061,0.0010690133785828948,0.1029307171702385
1761333863756651000,7.813651123046875,-0.0256563201546669,-0.03497200831770897,0.09071341902017593
1761333863775351000,7.83235107421875,0.006108647678047419,-0.04841103404760361,0.0412333719432354
1761333863794051000,7.851051025390625,0.02871064469218254,-0.027030766010284424,-0.015577051788568497
1761333863812751400,7.86975146484375,0.04153880476951599,-0.0435241162776947,-0.03940077871084213
1761333863831451400,7.888451416015625,0.04276053607463837,-0.05146535858511925,-0.032070402055978775
1761333863850151700,7.907151611328125,0.031154103577136993,-0.039858926087617874,-0.019242240116000175
1761333863868851700,7.925851806640625,0.010384701192378998,-0.019700389355421066,-0.011911863461136818
1761333863887551700,7.9445517578125,-0.006719512399286032,-0.0019853105768561363,-0.010690134018659592
1761333863906252000,7.963251953125,-0.010384701192378998,-0.0032070400193333626,-0.007635809946805239
1761333863924952000,7.9819521484375,-0.001221729558892548,-0.009926552884280682,-0.008246674202382565
1761333863943652000,8.000652099609376,0.002443459117785096,-0.008093958720564842,-0.02779434807598591
1761333863962352400,8.019352294921875,-0.000610864779446274,0.002901607658714056,-0.047952886670827866
1761333863981052400,8.038052490234374,0.004276053514331579,0.0010690133785828948,-0.05955931544303894
1761333863999752400,8.05675244140625,0.014660755172371864,-0.0007635809597559273,-0.0668896958231926
1761333864018452700,8.07545263671875,0.028099779039621353,0.009010255336761475,-0.06994401663541794
1761333864037152800,8.09415283203125,0.039706211537122726,0.014508038759231567,-0.06444623321294785
1761333864055853000,8.11285302734375,0.0513126403093338,0.017562363296747208,-0.061391908675432205
1761333864074553000,8.131552978515625,0.05558869615197182,0.005955931730568409,-0.057726722210645676
1761333864093253400,8.15025341796875,0.05192350596189499,0.01511890348047018,-0.06200277432799339
1761333864111953400,8.168953369140626,0.05070177838206291,0.03894263133406639,-0.06872228533029556
1761333864130653400,8.1876533203125,0.04520399495959282,0.06826414167881012,-0.054672397673130035
1761333864149353500,8.206353515625,0.04214967042207718,0.07376192510128021,-0.03756818547844887
1761333864168053800,8.2250537109375,0.06291907280683517,0.051159925758838654,-0.038789913058280945
1761333864186753800,8.24375390625,0.10506874322891235,0.006566796451807022,-0.06383536756038666
1761333864205454000,8.2624541015625,0.10323614627122879,-0.022754713892936707,-0.07360920310020447
1761333864224154000,8.281154052734376,0.04825831577181816,-0.02519817277789116,-0.06505709886550903
1761333864242854100,8.299854248046875,-0.021380268037319183,0.014508038759231567,-0.04428769648075104
1761333864261554200,8.31855419921875,-0.08674279600381851,0.02367101050913334,-0.01802051067352295
1761333864280254500,8.33725439453125,-0.12767073512077332,0.030390523374080658,0.035124726593494415
1761333864298954500,8.35595458984375,-0.1484401375055313,0.04199695214629173,0.07788526266813278
1761333864317654800,8.37465478515625,-0.1337793916463852,0.08536835014820099,0.09926552325487137
1761333864336354800,8.393354736328124,-0.07513637095689774,0.10247256606817245,0.10965022444725037
1761333864355054800,8.412054931640625,-0.000610864779446274,0.07620538026094437,0.08521563559770584
1761333864373755100,8.430755126953125,0.0616973415017128,0.04566214233636856,0.003359756199643016
1761333864392455200,8.449455078125,0.13561198115348816,-0.0435241162776947,-0.05833758786320686
1761333864411155500,8.468155517578126,0.1802051067352295,-0.05818486958742142,-0.06322450190782547
1761333864429855500,8.48685546875,0.1698204129934311,-0.010537417605519295,-0.022296564653515816
1761333864448555500,8.505555419921874,0.11728604137897491,0.025503603741526604,0.02779434807598591
1761333864467255800,8.524255859375,0.06108647957444191,0.024281874299049377,0.035124726593494415
1761333864485955800,8.542955810546875,0.03481929376721382,0.04321868345141411,0.016798781231045723
1761333864504656000,8.56165576171875,0.023212861269712448,0.056657709181308746,0.013744457624852657
1761333864523356200,8.580356201171876,0.024434590712189674,0.06704241037368774,0.032070402055978775
1761333864542056200,8.59905615234375,0.049480047076940536,0.06337722390890121,0.04001164436340332
1761333864560756500,8.617756591796875,0.09162971377372742,0.027947064489126205,0.026572618633508682
1761333864579456500,8.63645654296875,0.11239911615848541,0.003512472379952669,-0.005803215317428112
1761333864598156500,8.655156494140625,0.11484257876873016,-0.0032070400193333626,-0.044898562133312225
1761333864616856600,8.673856689453125,0.11056652665138245,-0.0001527161948615685,-0.06811141967773438
1761333864635556900,8.692556884765626,0.10323614627122879,0.0010690133785828948,-0.07360920310020447
1761333864654257000,8.7112568359375,0.08857539296150208,0.03405570983886719,-0.05100720748305321
1761333864672957200,8.729957275390625,0.06902772188186646,0.0591011680662632,-0.02107483521103859
1761333864691657200,8.7486572265625,0.06230820715427399,0.06154462695121765,-0.025350889191031456
1761333864710357500,8.767357421875,0.06291907280683517,0.05299251899123192,-0.06261363625526428
1761333864729057500,8.7860576171875,0.05742128938436508,0.050549060106277466,-0.08093958348035812
1761333864747757600,8.804757568359374,0.05192350596189499,0.04993819445371628,-0.07788526266813278
1761333864766457900,8.823457763671875,0.053756099194288254,0.05299251899123192,-0.06322450190782547
1761333864785158000,8.842157958984375,0.07391463965177536,0.031001387163996696,-0.05283980444073677
1761333864803858000,8.86085791015625,0.08857539296150208,0.007788525894284248,-0.04550942778587341
1761333864822558200,8.87955810546875,0.07024945318698883,0.003512472379952669,-0.041844237595796585
1761333864841258200,8.89825830078125,0.033597562462091446,0.02306014485657215,-0.015577051788568497
1761333864859958300,8.916958251953124,-0.007330377586185932,0.016340631991624832,0.032070402055978775
1761333864878658600,8.935658447265626,-0.04276053607463837,0.006566796451807022,0.07299833744764328
1761333864897358600,8.954358642578125,-0.06536252796649933,0.007177661173045635,0.09376774728298187
1761333864916059000,8.973058837890624,-0.06352993845939636,0.013286309316754341,0.09865466505289078
1761333864934759000,8.991759033203126,-0.040317077189683914,-0.010537417605519295,0.09498947113752365
1761333864953459200,9.010459228515625,-0.01649334840476513,-0.03802633285522461,0.07544180005788803
1761333864972159200,9.0291591796875,-0.006108647678047419,-0.04169152304530144,0.05100720748305321
1761333864990859300,9.047859375,-0.001221729558892548,-0.05451968312263489,0.029016077518463135
1761333865009559300,9.066559326171875,0.011606430634856224,-0.039248060435056686,0.02779434807598591
1761333865028259600,9.085259521484375,0.004276053514331579,-0.005650499369949102,0.05222893878817558
1761333865046959600,9.103959716796876,-0.024434590712189674,-0.012370011769235134,0.03390299528837204
1761333865065660000,9.122659912109375,-0.03481929376721382,-0.04780016839504242,-0.03756818547844887
1761333865084360000,9.14135986328125,-0.01649334840476513,-0.04841103404760361,-0.07055488228797913
1761333865103060200,9.160060302734376,-0.01893680728971958,-0.036804601550102234,-0.025961752980947495
1761333865121760000,9.178760009765625,-0.017104214057326317,-0.017256930470466614,0.032070402055978775
1761333865140460300,9.197460205078125,-0.002443459117785096,0.0010690133785828948,0.04978547990322113
1761333865159160300,9.216160400390624,0.0054977829568088055,-0.005039634648710489,0.03451386094093323
1761333865177860600,9.234860595703125,-0.0054977829568088055,-0.030085090547800064,-0.007635809946805239
1761333865196560600,9.253560546875,-0.010995565913617611,-0.017256930470466614,-0.05039634555578232
1761333865215261000,9.272260986328124,-0.02626718580722809,-0.01359174121171236,-0.057726722210645676
1761333865233961000,9.2909609375,-0.03176496922969818,-0.0025961752980947495,-0.057726722210645676
1761333865252661000,9.309660888671875,-0.030543239787220955,0.001679878099821508,-0.0668896958231926
1761333865271361300,9.328361328125,-0.026878049597144127,-0.012980876490473747,-0.06872228533029556
1761333865290061300,9.347061279296875,-0.02871064469218254,-0.030085090547800064,-0.06994401663541794
1761333865308761600,9.36576171875,-0.02871064469218254,-0.0025961752980947495,-0.07238747924566269
1761333865327461600,9.384461669921874,-0.02626718580722809,-0.0019853105768561363,-0.04062250629067421
1761333865346162000,9.403161865234376,-0.023212861269712448,0.016340631991624832,0.0015271619195118546
1761333865364862000,9.421862060546875,-0.02626718580722809,0.04016435891389847,0.008857538923621178
1761333865383562000,9.44056201171875,-0.029932374134659767,0.03955349326133728,-0.013133592903614044
1761333865402262300,9.45926220703125,-0.021991131827235222,0.015729768201708794,-0.048563748598098755
1761333865420962300,9.47796240234375,-0.015271619893610477,-0.016646064817905426,-0.07849612087011337
1761333865439662300,9.496662353515624,-0.026878049597144127,-0.02153298258781433,-0.08643736690282822
1761333865458362600,9.515362548828126,-0.05436696484684944,-0.017256930470466614,-0.06750056147575378
1761333865477062700,9.534062744140625,-0.0922405794262886,-0.009926552884280682,-0.02412915788590908
1761333865495763000,9.552762939453125,-0.12583814561367035,0.01206457894295454,0.03695731982588768
1761333865514463000,9.571462890625,-0.14110976457595825,0.017562363296747208,0.09010255336761475
1761333865533163000,9.5901630859375,-0.13500112295150757,-0.007483093533664942,0.1029307171702385
1761333865551863300,9.60886328125,-0.11911863088607788,-0.039248060435056686,0.0772743970155716
1761333865570563300,9.627563232421876,-0.09896009415388107,-0.029474224895238876,0.054672397673130035
1761333865589263400,9.646263427734375,-0.07880155742168427,-0.01847865991294384,0.05345066636800766
1761333865607963600,9.664963623046875,-0.06597339361906052,-0.03558287397027016,0.05283980444073677
1761333865626663700,9.68366357421875,-0.04214967042207718,-0.033139415085315704,0.019242240116000175
1761333865645364000,9.702364013671875,-0.03176496922969818,-0.04169152304530144,-0.011911863461136818
1761333865664064000,9.72106396484375,-0.01954767294228077,-0.058795735239982605,-0.01802051067352295
1761333865682764000,9.739763916015624,-0.024434590712189674,-0.05329795181751251,-0.005803215317428112
1761333865701464300,9.75846435546875,-0.04214967042207718,-0.02825249545276165,0.007024944759905338
1761333865720164400,9.777164306640625,-0.05558869615197182,-0.008093958720564842,0.024740023538470268
1761333865738864400,9.795864501953124,-0.07941242307424545,0.006566796451807022,0.029016077518463135
1761333865757564700,9.814564697265626,-0.09957095980644226,-0.03130681812763214,-0.006414080038666725
1761333865776264700,9.8332646484375,-0.09162971377372742,-0.08200860023498535,-0.041844237595796585
1761333865794965000,9.851965087890624,-0.07635809481143951,-0.06001746281981468,-0.03023780696094036
1761333865813665000,9.8706650390625,-0.06841685622930527,-0.03130681812763214,0.013744457624852657
1761333865832365000,9.889364990234375,-0.06902772188186646,-0.025809036567807198,0.05833758786320686
1761333865851065300,9.9080654296875,-0.06475166976451874,-0.030695954337716103,0.06261363625526428
1761333865869765400,9.926765380859376,-0.06291907280683517,-0.0435241162776947,0.02718348242342472
1761333865888465700,9.945465576171875,-0.0616973415017128,-0.04718930274248123,-0.0204639695584774
1761333865907165700,9.964165771484375,-0.04886918142437935,-0.049632761627435684,-0.05711585655808449
1761333865925866000,9.982865966796876,-0.040317077189683914,-0.03802633285522461,-0.06261363625526428
1761333865944566000,10.00156591796875,-0.040317077189683914,-0.006872228812426329,-0.04978547990322113
1761333865963266000,10.02026611328125,-0.043982263654470444,-0.01359174121171236,-0.041844237595796585
1761333865981966300,10.03896630859375,-0.027488915249705315,-0.026419902220368385,-0.06261363625526428
1761333866000666400,10.057666259765625,-0.0054977829568088055,-0.03375028073787689,-0.07299833744764328
1761333866019366400,10.076366455078125,-0.009773836471140385,-0.012980876490473747,0.03451386094093323
1761333866038066700,10.095066650390624,0.06108647957444191,-0.3068068325519562,-0.04306596517562866
1761333866056766700,10.1137666015625,0.0922405794262886,-0.1461493968963623,-0.17867794632911682
1761333866075467000,10.132467041015625,0.021991131827235222,0.007177661173045635,-0.231212317943573
1761333866094167000,10.1511669921875,-0.06536252796649933,0.031001387163996696,-0.023518294095993042
