time,seconds_elapsed,z,y,x
1761330870186808600,0.06980859375,11.540583610534668,3.1920254230499268,0.6508477330207825
1761330870205509400,0.08850927734375,12.009576797485352,2.63449764251709,0.23449662327766418
1761330870224210400,0.10721044921875,11.514262199401855,2.4526431560516357,0.33738797903060913
1761330870242911200,0.1259111328125,10.231709480285645,2.3880369663238525,0.7489534616470337
1761330870261612300,0.1446123046875,9.20279598236084,2.234896421432495,0.8207381963729858
1761330870280313000,0.16331298828125,8.748159408569336,2.273181438446045,0.6364908218383789
1761330870299014100,0.18201416015625,8.420342445373535,2.4837498664855957,0.10767702013254166
1761330870317715000,0.20071484375,8.032705307006836,2.7900311946868896,-0.41874396800994873
1761330870336416000,0.219416015625,7.865208148956299,2.8187451362609863,-0.5599204897880554
1761330870355116800,0.23811669921875,7.908278942108154,2.5842485427856445,-0.3397808074951172
1761330870373817900,0.25681787109375,8.195417404174805,2.5603201389312744,-0.4259224236011505
1761330870392518700,0.2755185546875,8.059026718139648,2.840280532836914,-0.30628129839897156
1761330870411219500,0.294219482421875,7.362715244293213,3.1992039680480957,0.09810572862625122
1761330870429920500,0.31292041015625,6.678368091583252,3.531806230545044,0.11485548317432404
1761330870448621600,0.33162158203125,6.350551128387451,3.751945972442627,0.16271193325519562
1761330870467322400,0.350322265625,6.50608491897583,3.8356947898864746,-0.05742774158716202
1761330870486023200,0.369023193359375,7.238288402557373,3.94097900390625,-0.7345965504646301
1761330870504724200,0.38772412109375,7.865208148956299,4.115654945373535,-1.007378339767456
1761330870523425000,0.406425048828125,8.434700012207031,3.964907169342041,-0.7345965504646301
1761330870542126000,0.4251259765625,8.86062240600586,3.6921253204345703,-0.24885354936122894
1761330870560827000,0.443826904296875,9.198010444641113,3.658625841140747,0.11964113265275955
1761330870579527700,0.462527587890625,9.42054271697998,3.735196113586426,0.1746760457754135
1761330870598228700,0.481228759765625,9.693324089050293,3.806980848312378,0.019142581149935722
1761330870616929800,0.4999296875,9.80817985534668,3.8596229553222656,-0.4546363055706024
1761330870635630600,0.518630615234375,9.607182502746582,4.0558342933654785,-0.6891329288482666
1761330870654331400,0.537331298828125,9.719645500183105,4.223331928253174,-0.5096712112426758
1761330870673032400,0.556032470703125,10.712666511535645,4.089334011077881,-0.3086741268634796
1761330870691733200,0.574733154296875,11.810972213745117,3.751945972442627,-0.5647061467170715
1761330870710434300,0.593434326171875,12.114861488342285,3.510270833969116,-0.6436693072319031
1761330870729135000,0.612135009765625,11.96172046661377,3.761517286300659,-0.6125625967979431
1761330870747836000,0.6308359375,11.344371795654297,4.599005222320557,-0.37806597352027893
1761330870766537000,0.649536865234375,10.514062881469727,4.809573650360107,-0.9475577473640442
1761330870785238000,0.668238037109375,10.38485050201416,4.6301116943359375,-2.124826431274414
1761330870803938800,0.686938720703125,11.095519065856934,4.132404804229736,-3.1896326541900635
1761330870822639600,0.7056396484375,11.667403221130371,3.5916268825531006,-3.5748770236968994
1761330870841340700,0.724340576171875,10.75813102722168,3.0867412090301514,-2.9383862018585205
1761330870860041500,0.74304150390625,9.233902931213379,2.7828526496887207,-1.9286150932312012
1761330870878742500,0.761742431640625,8.537590980529785,2.4741785526275635,-1.3902299404144287
1761330870897443300,0.780443359375,8.322237014770508,2.416750907897949,-1.098305583000183
1761330870916144400,0.799144287109375,8.109275817871094,2.5938198566436768,-1.0719845294952393
1761330870934845200,0.81784521484375,7.45364236831665,2.816352367401123,-0.973878800868988
1761330870953546200,0.836546142578125,6.721438884735107,2.950350284576416,-0.5359922647476196
1761330870972247000,0.8552470703125,6.338587284088135,2.940778970718384,-0.08853443711996078
1761330870990947800,0.87394775390625,6.441478729248047,2.799602508544922,0.4091726839542389
1761330871009649000,0.89264892578125,6.7692952156066895,2.737389087677002,0.8709874153137207
1761330871028349700,0.911349609375,7.015756130218506,2.861815929412842,1.1389836072921753
1761330871047050500,0.930050537109375,7.118647575378418,2.9144580364227295,0.885344386100769
1761330871065751600,0.94875146484375,7.164111137390137,2.9072794914245605,0.4331009089946747
1761330871084452600,0.96745263671875,7.149754047393799,2.8833513259887695,-0.3756731450557709
1761330871103153400,0.9861533203125,7.637889862060547,3.1680972576141357,-0.7010970115661621
1761330871121854200,1.004854248046875,8.81515884399414,2.0817556381225586,0.638883650302887
1761330871140555300,1.02355517578125,10.49252700805664,2.2779672145843506,1.3040883541107178
1761330871159256000,1.042256103515625,11.217552185058594,2.9359934329986572,0.9308080077171326
1761330871177956900,1.060956787109375,10.454241752624512,4.015156269073486,0.2584248483181
1761330871196658000,1.079657958984375,9.214759826660156,4.931607246398926,-0.38763725757598877
1761330871215358700,1.098358642578125,8.291130065917969,5.3934221267700195,-0.6915257573127747
1761330871234059800,1.117059814453125,8.003992080688477,5.472385406494141,0.9619147181510925
1761330871252760600,1.135760498046875,8.810373306274414,4.553541660308838,1.892722725868225
1761330871271461600,1.154461669921875,10.38485050201416,4.192225456237793,3.012563705444336
1761330871290162400,1.173162353515625,12.287144660949707,3.28773832321167,1.919043779373169
1761330871308863200,1.19186328125,14.275579452514648,3.373879909515381,1.1174482107162476
1761330871327564300,1.210564208984375,13.655838966369629,4.632504463195801,1.4476577043533325
1761330871346265000,1.22926513671875,12.0335054397583,4.498506546020508,2.0315065383911133
1761330871364966100,1.247966064453125,11.373085975646973,3.13220477104187,2.2468605041503906
1761330871383667000,1.2666669921875,12.057433128356934,1.7371892929077148,2.2325034141540527
1761330871402368000,1.285367919921875,13.170095443725586,0.6101697683334351,0.8757730722427368
1761330871421068800,1.30406884765625,12.021540641784668,0.26081767678260803,0.12203395366668701
1761330871439769600,1.32276953125,10.526026725769043,1.1676974296569824,-0.9547362327575684
1761330871458470700,1.341470703125,8.429914474487305,1.9573289155960083,-0.6364908218383789
1761330871477171500,1.36017138671875,7.77188777923584,2.1678972244262695,-0.5312066078186035
1761330871495872300,1.378872314453125,7.283751964569092,2.0650060176849365,-0.5742774605751038
1761330871514573300,1.3975732421875,7.436892986297607,2.1655044555664062,-0.6891329288482666
1761330871533274400,1.4162744140625,8.140382766723633,2.861815929412842,-2.486142635345459
1761330871551975200,1.43497509765625,8.458627700805664,3.3475589752197266,-3.8835511207580566
1761330871570676000,1.453676025390625,8.57348346710205,3.31884503364563,-3.620340585708618
1761330871589377000,1.472376953125,8.901300430297852,2.8833513259887695,-2.201396942138672
1761330871608077800,1.491077880859375,8.078168869018555,2.3497519493103027,-0.22971096634864807
1761330871626778600,1.509778564453125,7.779066562652588,2.007578134536743,2.00518536567688
1761330871645479700,1.528479736328125,7.113861560821533,2.0745773315429688,2.0961127281188965
1761330871664180700,1.5471806640625,6.912864685058594,2.926422119140625,-0.2512463629245758
1761330871682881500,1.565881591796875,7.489534854888916,2.8977081775665283,-1.2251251935958862
1761330871701582300,1.584582275390625,8.140382766723633,3.3092737197875977,-2.012363910675049
1761330871720283400,1.603283447265625,9.066405296325684,2.8450660705566406,-1.423729419708252
1761330871738984200,1.621984130859375,9.611968994140625,2.885744094848633,-1.1437692642211914
1761330871757685000,1.64068505859375,9.882357597351074,3.022135019302368,-0.43549370765686035
1761330871776386000,1.659385986328125,10.214960098266602,3.170490026473999,0.35892340540885925
1761330871795086800,1.6780869140625,9.640682220458984,4.223331928253174,-0.5240281820297241
1761330871813788000,1.696787841796875,9.868000984191895,4.974678039550781,0.6604190468788147
1761330871832488700,1.71548876953125,9.78664493560791,4.046263217926025,0.2727817893028259
1761330871851189500,1.734189453125,10.1814603805542,2.7493531703948975,-1.3854442834854126
1761330871869890600,1.752890625,10.913663864135742,2.59621262550354,-3.452843189239502
1761330871888591400,1.77159130859375,12.107682228088379,3.129812002182007,-3.4432718753814697
1761330871907292200,1.790292236328125,13.519448280334473,4.168296813964844,-2.258824586868286
1761330871925993200,1.8089931640625,13.179667472839355,3.3092737197875977,-1.5840486288070679
1761330871944694300,1.8276943359375,11.95454216003418,2.03629207611084,-2.100898265838623
1761330871963395000,1.84639501953125,11.411371231079102,1.1413763761520386,-3.366701364517212
1761330871982096000,1.865095947265625,11.7056884765625,0.9858429431915283,-4.41475772857666
1761330872000796700,1.883796630859375,11.662617683410645,0.5288137793540955,-4.122833251953125
1761330872019497700,1.902497802734375,11.337193489074707,0.6556333899497986,-1.8544375896453857
1761330872038198500,1.921198486328125,10.62413215637207,1.3208380937576294,-0.729810893535614
1761330872056899600,1.939899658203125,10.085747718811035,1.550549030303955,-0.4163511395454407
1761330872075600400,1.958600341796875,9.34157943725586,1.5074782371520996,-0.4426721930503845
1761330872094301400,1.977301513671875,8.26241683959961,1.7443677186965942,-0.4546363055706024
1761330872113002200,1.996002197265625,7.5086774826049805,1.9022940397262573,-0.6891329288482666
1761330872131703000,2.014703125,6.838686943054199,2.2947168350219727,-0.2799602448940277
1761330872150404000,2.033404052734375,6.759724140167236,2.5292134284973145,0.4713860750198364
1761330872169105000,2.05210498046875,6.843472957611084,2.5531418323516846,0.9978070259094238
1761330872187805700,2.0708056640625,6.687939167022705,2.6775684356689453,1.1748759746551514
1761330872206506800,2.0895068359375,6.31944465637207,3.06999135017395,1.0049854516983032
1761330872225207600,2.10820751953125,6.221338748931885,3.620340585708618,0.6245267391204834
1761330872243908600,2.12690869140625,6.5180487632751465,3.9672999382019043,0.44027936458587646
1761330872262609400,2.145609375,6.680760860443115,3.924229145050049,0.062213387340307236
1761330872281310200,2.164310302734375,6.865008354187012,3.87876558303833,0.38285163044929504
1761330872300011300,2.18301123046875,7.008577346801758,3.924229145050049,0.48813581466674805
1761330872318712000,2.201712158203125,7.625925540924072,3.9672999382019043,0.8135597109794617
1761330872337413000,2.2204130859375,8.654839515686035,3.950550079345703,0.7345965504646301
1761330872356114000,2.239114013671875,9.468399047851562,3.845266103744507,0.9834501147270203
1761330872374814700,2.257814697265625,10.169496536254883,3.706482172012329,0.9810572862625122
1761330872393515800,2.276515869140625,10.77966594696045,4.082155227661133,1.191625714302063
1761330872412216600,2.295216552734375,11.365907669067383,4.646861553192139,1.5050854682922363
1761330872430917400,2.31391748046875,11.284551620483398,4.587040901184082,1.4644074440002441
1761330872449618400,2.332618408203125,11.270195007324219,4.041477680206299,1.0265209674835205
1761330872468319200,2.3513193359375,11.732009887695312,3.5916268825531006,0.9379864931106567
1761330872487020300,2.370020263671875,12.220145225524902,4.366901397705078,1.5984054803848267
1761330872505721000,2.38872119140625,12.150753021240234,4.048655986785889,1.8735800981521606
1761330872524422000,2.407421875,12.011969566345215,3.4169507026672363,1.7419748306274414
1761330872543122700,2.426122802734375,12.129218101501465,2.273181438446045,1.5960127115249634
1761330872561823700,2.44482373046875,12.169896125793457,1.2634103298187256,1.6175481081008911
1761330872580524800,2.46352490234375,11.839686393737793,0.8446664214134216,1.3782658576965332
1761330872599225600,2.4822255859375,11.251051902770996,0.8709874153137207,1.0217353105545044
1761330872617926400,2.500926513671875,10.588240623474121,1.038485050201416,0.8015955686569214
1761330872636627200,2.519627197265625,9.674181938171387,1.3902299404144287,0.3158525824546814
1761330872655328300,2.538328369140625,8.671588897705078,1.8400806188583374,0.05503492057323456
1761330872674029000,2.557029052734375,7.759923934936523,2.029113531112671,0.08614161610603333
1761330872692730000,2.575730224609375,7.159325122833252,2.091326951980591,-0.02871387079358101
1761330872711431000,2.594430908203125,6.836294174194336,2.306680917739868,-0.12681959569454193
1761330872730131700,2.613131591796875,6.711867332458496,2.6775684356689453,0.13639089465141296
1761330872748832800,2.631832763671875,6.742974281311035,3.0388846397399902,0.2105683982372284
1761330872767533600,2.650533447265625,6.9104719161987305,3.34995174407959,-0.08374879509210587
1761330872786234400,2.669234375,7.061219692230225,3.4408788681030273,-0.3086741268634796
1761330872804935400,2.687935302734375,7.142575740814209,3.3643085956573486,-0.3445664644241333
1761330872823636200,2.70663623046875,7.386643409729004,3.0628130435943604,-0.5024927258491516
1761330872842337300,2.725337158203125,8.044670104980469,2.7278177738189697,-0.6221339106559753
1761330872861038000,2.7440380859375,9.016156196594238,2.768495798110962,-0.47617170214653015
1761330872879739000,2.76273876953125,9.860821723937988,2.816352367401123,-0.39481574296951294
1761330872898439700,2.781439697265625,10.162318229675293,2.9479575157165527,-0.3613162338733673
1761330872917140700,2.800140625,10.26042366027832,3.139383316040039,-0.24885354936122894
1761330872935841500,2.818841552734375,10.145567893981934,3.280559778213501,0.06699903309345245
1761330872954542600,2.83754248046875,9.77707290649414,3.7232320308685303,0.3924229145050049
1761330872973243400,2.856243408203125,9.233902931213379,4.3788652420043945,-0.2679961323738098
1761330872991944200,2.874944091796875,8.965906143188477,4.8191447257995605,-0.5120640397071838
1761330873010645000,2.89364501953125,8.7505521774292,4.831109046936035,-0.7489534616470337
1761330873029346000,2.912345947265625,8.602197647094727,4.488935470581055,-0.7920243144035339
1761330873048046800,2.931046875,9.18843936920166,4.625326156616211,-0.698704183101654
1761330873066748000,2.949747802734375,10.60977554321289,4.541577339172363,-1.0767701864242554
1761330873085448700,2.96844873046875,12.224930763244629,3.840480327606201,-1.3663017749786377
1761330873104149500,2.9871494140625,13.440485000610352,2.8354947566986084,-1.3208380937576294
1761330873122850600,3.0058505859375,13.823336601257324,1.674975872039795,-1.6055840253829956
1761330873141551400,3.02455126953125,13.569697380065918,1.1892328262329102,-1.9166508913040161
1761330873160252200,3.043252197265625,12.480962753295898,1.1389836072921753,-1.5361921787261963
1761330873178953200,3.061953125,10.863414764404297,1.0767701864242554,-1.1892328262329102
1761330873197654000,3.080654052734375,9.219545364379883,1.2729816436767578,-0.9619147181510925
1761330873216354800,3.099354736328125,8.135597229003906,1.5337992906570435,-0.44027936458587646
1761330873235055900,3.118055908203125,7.156932353973389,1.7611174583435059,0.007178467698395252
1761330873253756700,3.136756591796875,6.5419769287109375,2.045863389968872,0.16749759018421173
1761330873272457500,3.15545751953125,6.283552169799805,2.0745773315429688,0.07657032459974289
1761330873291158500,3.174158447265625,6.2189459800720215,2.242074728012085,0.22013968229293823
1761330873309859300,3.192859375,6.419943332672119,2.4837498664855957,0.27038896083831787
1761330873328560000,3.21156005859375,7.044469833374023,2.7086751461029053,0.11485548317432404
1761330873347261200,3.23026123046875,7.769495010375977,2.785245656967163,-0.35892340540885925
1761330873365962000,3.2489619140625,8.188239097595215,2.902493953704834,-0.5551348328590393
1761330873384662800,3.267662841796875,8.420342445373535,2.8905298709869385,-0.6364908218383789
1761330873403363800,3.28636376953125,8.7505521774292,2.8737800121307373,-0.6484549641609192
1761330873422064600,3.305064697265625,9.083154678344727,3.005385160446167,-0.2991028428077698
1761330873440765400,3.323765380859375,9.32722282409668,3.1130621433258057,0.08374879509210587
1761330873459466500,3.342466552734375,9.588040351867676,3.074777126312256,0.12203395366668701
1761330873478167300,3.361167236328125,9.757930755615234,3.280559778213501,0.3852444589138031
1761330873496868000,3.3798681640625,9.547362327575684,3.397808074951172,0.4713860750198364
1761330873515569200,3.398569091796875,9.34875774383545,3.469592809677124,-0.19381862878799438
1761330873534270000,3.41727001953125,9.308079719543457,4.230510234832764,1.0360921621322632
1761330873552971000,3.435970947265625,9.504291534423828,4.536791801452637,1.794616937637329
1761330873571671800,3.454671875,10.533205032348633,3.6681971549987793,1.3950155973434448
1761330873590372600,3.47337255859375,12.095718383789062,2.6081767082214355,0.4019941985607147
1761330873609073400,3.492073486328125,13.330414772033691,2.526820659637451,-0.05024927482008934
1761330873627774500,3.5107744140625,13.564911842346191,2.478964328765869,0.019142581149935722
1761330873646475300,3.529475341796875,13.76351547241211,2.589034080505371,1.9310078620910645
1761330873665176000,3.548176025390625,13.7108736038208,2.251646041870117,3.7088751792907715
1761330873683877000,3.566877197265625,12.713067054748535,1.734796404838562,3.900300979614258
1761330873702578000,3.585577880859375,11.361122131347656,0.6747759580612183,2.837887763977051
1761330873721278700,3.60427880859375,10.526026725769043,1.4333007335662842,2.093719720840454
1761330873739979800,3.622979736328125,9.999606132507324,1.7682958841323853,1.4261223077774048
1761330873758680600,3.6416806640625,9.511469841003418,1.4931213855743408,1.2011969089508057
1761330873777381400,3.66038134765625,8.941978454589844,1.3256237506866455,0.8183453679084778
1761330873796082400,3.67908251953125,8.360522270202637,1.4691931009292603,0.5048855543136597
1761330873814783200,3.697783203125,7.523034572601318,2.1296122074127197,1.643869161605835
1761330873833484000,3.716484130859375,6.891329288482666,2.4765713214874268,1.7252250909805298
1761330873852185000,3.73518505859375,6.809973239898682,2.7493531703948975,0.7896314859390259
1761330873870886000,3.753885986328125,6.565905570983887,2.864208698272705,0.36610186100006104
1761330873889586700,3.772586669921875,6.099305152893066,2.840280532836914,0.20817556977272034
1761330873908287700,3.791287841796875,6.10169792175293,3.6634113788604736,0.20817556977272034
1761330873926988500,3.809988525390625,6.211767673492432,4.00319242477417,0.02153540402650833
1761330873945689300,3.828689453125,6.915257453918457,3.7639100551605225,0.1052841991186142
1761330873964390400,3.847390380859375,8.164310455322266,2.7900311946868896,-0.2584248483181
1761330873983091200,3.86609130859375,9.58325481414795,2.383251428604126,-0.5742774605751038
1761330874001792000,3.8847919921875,10.53081226348877,2.4885356426239014,-1.5337992906570435
1761330874020492800,3.903492919921875,11.112268447875977,2.7086751461029053,-1.31365966796875
1761330874039193900,3.92219384765625,11.724830627441406,3.146561861038208,-0.380458801984787
1761330874057894700,3.940894775390625,11.23190975189209,3.6083765029907227,0.39960137009620667
1761330874076595700,3.959595703125,10.124032974243164,3.900300979614258,0.6915257573127747
1761330874095296500,3.978296630859375,8.879764556884766,4.563112735748291,-0.5455635786056519
1761330874113997300,3.996997314453125,8.281558990478516,4.965106964111328,-1.4835500717163086
1761330874132698000,4.015697998046875,8.980263710021973,4.752145767211914,-1.9573289155960083
1761330874151399200,4.034399169921875,10.305887222290039,4.268795490264893,-1.4859428405761719
1761330874170100000,4.053099853515625,10.956734657287598,4.847858905792236,-1.246660590171814
1761330874188800800,4.07180078125,10.882556915283203,4.409972190856934,-0.7226324677467346
1761330874207501800,4.090501708984375,11.184053421020508,2.5363919734954834,0.27756741642951965
1761330874226202600,4.10920263671875,11.784651756286621,1.9932212829589844,-0.9762716293334961
1761330874244903400,4.1279033203125,11.49512004852295,2.1750757694244385,-1.6965112686157227
1761330874263604500,4.1466044921875,10.518848419189453,2.620140790939331,-0.8063812255859375
1761330874282305300,4.16530517578125,9.535398483276367,2.641676187515259,-0.20817556977272034
1761330874301006000,4.184006103515625,9.183652877807617,2.4095723628997803,-0.39481574296951294
1761330874319707000,4.202706787109375,9.109476089477539,2.0578274726867676,-0.7824530005455017
1761330874338408000,4.221407958984375,8.925228118896484,1.6055840253829956,-0.9786644577980042
1761330874357108700,4.240108642578125,8.642875671386719,1.3878371715545654,-1.1150553226470947
1761330874375809500,4.2588095703125,8.578269004821777,1.6390835046768188,0.20338992774486542
1761330874394510600,4.277510498046875,8.025527000427246,1.9597218036651611,1.1102696657180786
1761330874413211400,4.29621142578125,7.1473612785339355,2.455035924911499,1.2634103298187256
1761330874431912200,4.314912109375,6.597012042999268,2.991028308868408,1.179661512374878
1761330874450613000,4.333613037109375,6.173482418060303,3.2207393646240234,0.2632105052471161
1761330874469314000,4.35231396484375,6.252445697784424,3.421736478805542,-0.39960137009620667
1761330874488014800,4.371014892578125,6.640082836151123,3.5820555686950684,-0.2871387302875519
1761330874506715600,4.389715576171875,7.195217609405518,3.3690943717956543,-0.2799602448940277
1761330874525416700,4.408416748046875,8.38684368133545,3.263810157775879,-0.27038896083831787
1761330874544117500,4.427117431640625,9.585647583007812,3.139383316040039,-0.12442677468061447
1761330874562818300,4.445818359375,10.549955368041992,3.10109806060791,0.39960137009620667
1761330874581519400,4.464519287109375,11.01416301727295,3.2829527854919434,0.9236295223236084
1761330874600220200,4.48322021484375,11.026126861572266,3.6777684688568115,0.9690931439399719
1761330874618921000,4.5019208984375,10.789237022399902,4.024727821350098,0.6699903607368469
1761330874637621800,4.520621826171875,10.320243835449219,4.295116424560547,0.7776673436164856
1761330874656322800,4.53932275390625,9.681360244750977,4.4243292808532715,0.9044869542121887
1761330874675023600,4.558023681640625,9.626325607299805,4.07258415222168,1.074377417564392
1761330874693724400,4.576724365234375,10.073782920837402,3.397808074951172,1.2059825658798218
1761330874712425200,4.59542529296875,10.971092224121094,3.242274761199951,0.9547362327575684
1761330874731126300,4.614126220703125,11.533405303955078,3.3164522647857666,1.057627558708191
1761330874749827000,4.6328271484375,12.110074996948242,3.0652058124542236,1.6175481081008911
1761330874768528100,4.651528076171875,12.485748291015625,2.3497519493103027,2.115255117416382
1761330874787229000,4.67022900390625,12.485748291015625,1.7563318014144897,2.1272194385528564
1761330874805929700,4.6889296875,11.645867347717285,1.459621787071228,1.789831280708313
1761330874824630500,4.707630615234375,10.64806079864502,1.5170495510101318,1.2275179624557495
1761330874843331300,4.726331298828125,9.91825008392334,1.4763715267181396,1.0336993932724
1761330874862032400,4.745032470703125,9.422935485839844,1.3112667798995972,1.00259268283844
1761330874880733200,4.763733154296875,8.906085968017578,1.368694543838501,1.0719845294952393
1761330874899434000,4.78243408203125,8.274380683898926,1.6701902151107788,0.9858429431915283
1761330874918135000,4.801135009765625,7.678567886352539,1.9046868085861206,0.9930213689804077
1761330874936835800,4.8198359375,7.561319351196289,2.0985054969787598,0.8087740540504456
1761330874955536600,4.83853662109375,7.779066562652588,2.148754835128784,0.3900300860404968
1761330874974237700,4.85723779296875,8.219346046447754,2.3976082801818848,0.1818545162677765
1761330874992938500,4.8759384765625,8.128418922424316,2.7110681533813477,0.04785645380616188
1761330875011639300,4.894639404296875,7.676175117492676,2.8809585571289062,0.28953152894973755
1761330875030340000,4.913340087890625,7.601997375488281,3.0077781677246094,0.7561319470405579
1761330875049041200,4.932041259765625,7.9657063484191895,2.864208698272705,1.0265209674835205
1761330875067742000,4.950741943359375,8.34138011932373,2.7349963188171387,0.8087740540504456
1761330875086442800,4.96944287109375,8.752944946289062,2.5914268493652344,0.641276478767395
1761330875105143600,4.9881435546875,9.190832138061523,2.7804598808288574,0.5335994362831116
1761330875123844400,5.00684423828125,9.497113227844238,3.0580272674560547,0.5742774605751038
1761330875142545400,5.02554541015625,9.829715728759766,3.352344512939453,0.2967100143432617
1761330875161246200,5.04424609375,9.92542839050293,3.4002010822296143,-0.02871387079358101
1761330875179947300,5.062947265625,9.805787086486816,3.4480574131011963,0.19381862878799438
1761330875198648000,5.08164794921875,9.755537986755371,3.8045880794525146,0.5240281820297241
1761330875217348900,5.100348876953125,9.322437286376953,4.168296813964844,0.2584248483181
1761330875236049700,5.119049560546875,8.973084449768066,4.42193603515625,-0.01196411345154047
1761330875254750700,5.137750732421875,9.312865257263184,4.371686935424805,-0.17228323221206665
1761330875273451500,5.156451416015625,10.258030891418457,3.658625841140747,0.2392822653055191
1761330875292152300,5.17515234375,11.499905586242676,3.3882367610931396,0.47617170214653015
1761330875310853000,5.19385302734375,12.629318237304688,3.531806230545044,0.42831525206565857
1761330875329554000,5.212553955078125,13.014562606811523,2.9001009464263916,0.5479564070701599
1761330875348255000,5.2312548828125,12.79442310333252,1.8831514120101929,0.4666004180908203
1761330875366955800,5.249955810546875,12.399606704711914,1.2490534782409668,-0.2727817893028259
1761330875385656600,5.268656494140625,11.511869430541992,1.155733346939087,-1.2490534782409668
1761330875404357600,5.287357666015625,10.269994735717773,1.6414763927459717,-0.7489534616470337
1761330875423058400,5.306058349609375,9.317651748657227,1.9812572002410889,0.3326023519039154
1761330875441759200,5.32475927734375,8.784051895141602,2.0721843242645264,0.4666004180908203
1761330875460460000,5.3434599609375,8.530412673950195,2.124826431274414,-0.3086741268634796
1761330875479161000,5.3621611328125,8.547162055969238,2.0650060176849365,-0.33738797903060913
1761330875497862000,5.38086181640625,8.183453559875488,2.00518536567688,0.0933200865983963
1761330875516562700,5.399562744140625,7.700103282928467,2.0338993072509766,0.576670229434967
1761330875535263700,5.418263671875,7.326822757720947,2.179861545562744,0.8877372145652771
1761330875553964500,5.436964599609375,7.154539585113525,2.447857618331909,0.8135597109794617
1761330875572665300,5.455665283203125,7.037291526794434,2.715853691101074,0.5910272002220154
1761330875591366100,5.4743662109375,7.1234331130981445,2.9288148880004883,0.5168496966362
1761330875610067000,5.49306689453125,7.168896675109863,2.957528829574585,0.4426721930503845
1761330875628768000,5.51176806640625,7.467999458312988,3.0269205570220947,0.3613162338733673
1761330875647468800,5.53046875,8.00638484954834,3.0317063331604004,0.23449662327766418
1761330875666169600,5.549169677734375,8.219346046447754,2.8809585571289062,0.11485548317432404
1761330875684870400,5.567870361328125,8.21695327758789,2.861815929412842,-0.1818545162677765
1761330875703571500,5.586571533203125,8.566305160522461,2.912065267562866,-0.43549370765686035
1761330875722272300,5.605272216796875,8.97787094116211,3.081955671310425,-0.4498506486415863
1761330875740973000,5.62397314453125,8.874979019165039,3.469592809677124,-0.48574298620224
1761330875759673900,5.642673828125,8.827122688293457,3.85483717918396,-0.1698904037475586
1761330875778375000,5.661375,9.020941734313965,4.371686935424805,0.23210379481315613
1761330875797075700,5.68007568359375,9.037691116333008,4.826323509216309,0.3445664644241333
1761330875815776500,5.698776611328125,9.506684303283691,4.7952165603637695,0.43549370765686035
1761330875834477300,5.717477294921875,10.97587776184082,4.295116424560547,0.4426721930503845
1761330875853178400,5.736178466796875,13.210773468017578,3.6442689895629883,0.24646073579788208
1761330875871879200,5.754879150390625,15.235101699829102,3.407379388809204,0.20338992774486542
1761330875890580000,5.773580078125,14.653645515441895,4.151547431945801,1.4620146751403809
1761330875909281000,5.792281005859375,13.249058723449707,4.211368083953857,3.084348440170288
1761330875927981800,5.81098193359375,12.500105857849121,3.531806230545044,4.235296249389648
1761330875946682600,5.8296826171875,12.138789176940918,2.524427890777588,4.170690059661865
1761330875965383400,5.848383544921875,11.497512817382812,1.7371892929077148,2.9958138465881348
1761330875984084500,5.86708447265625,10.425528526306152,1.490728497505188,1.5984054803848267
1761330876002785300,5.885785400390625,9.820143699645996,1.5194423198699951,0.9571290612220764
1761330876021486000,5.904486083984375,9.561718940734863,1.5649060010910034,0.7728816866874695
1761330876040187000,5.923186767578125,9.300901412963867,1.6271194219589233,0.8303094506263733
1761330876058887700,5.9418876953125,8.662017822265625,1.8185452222824097,1.007378339767456
1761330876077588700,5.960588623046875,8.059026718139648,1.8807586431503296,0.7824530005455017
1761330876096289500,5.97928955078125,7.8077802658081055,1.8592232465744019,0.10289137065410614
1761330876114990300,5.997990234375,7.4464640617370605,1.7922241687774658,-0.27038896083831787
1761330876133691100,6.016691162109375,7.269395351409912,2.0865414142608643,0.18903298676013947
1761330876152392200,6.03539208984375,7.405786037445068,2.3162522315979004,0.7704889178276062
1761330876171093000,6.054093017578125,7.836493968963623,2.4335005283355713,0.7824530005455017
1761330876189793800,6.072793701171875,7.956135272979736,2.4430718421936035,0.12203395366668701
1761330876208494600,6.09149462890625,7.637889862060547,2.675175666809082,-0.39960137009620667
1761330876227195400,6.1101953125,7.408178806304932,2.8666014671325684,-0.4833501875400543
1761330876245896400,6.128896484375,7.551748275756836,3.184846878051758,-0.059820566326379776
1761330876264597200,6.14759716796875,8.068597793579102,3.6777684688568115,0.2871387302875519
1761330876283298000,6.166298095703125,9.032905578613281,4.039084434509277,0.5647061467170715
1761330876301998800,6.184998779296875,9.650253295898438,4.393222332000732,0.6269195079803467
1761330876320700000,6.203699951171875,9.67657470703125,4.721039295196533,0.5000999569892883
1761330876339400700,6.222400634765625,9.461220741271973,4.766502857208252,0.6221339106559753
1761330876358101500,6.2411015625,9.425328254699707,4.766502857208252,0.5072783827781677
1761330876376802300,6.25980224609375,9.10229778289795,4.919643402099609,-0.27038896083831787
1761330876395503000,6.278503173828125,8.769695281982422,4.711467742919922,-0.9690931439399719
1761330876414204200,6.2972041015625,8.731410026550293,4.419543266296387,-1.4620146751403809
1761330876432905000,6.315905029296875,9.097511291503906,3.9912281036376953,-1.698904037475586
1761330876451605800,6.334605712890625,10.241280555725098,3.814159393310547,-1.5696916580200195
1761330876470306600,6.353306640625,11.057233810424805,4.398007869720459,-1.5696916580200195
1761330876489007400,6.37200732421875,11.176874160766602,4.431507587432861,-0.8039883971214294
1761330876507708400,6.39070849609375,11.373085975646973,4.278367042541504,-0.2967100143432617
1761330876526409200,6.4094091796875,11.60279655456543,3.359523057937622,-0.27756741642951965
1761330876545110000,6.428110107421875,11.523834228515625,2.526820659637451,-0.7680960893630981
1761330876563810800,6.446810791015625,11.33958625793457,2.3401806354522705,-1.4117653369903564
1761330876582511900,6.465511962890625,11.021341323852539,2.155933141708374,-1.4739787578582764
1761330876601212700,6.484212646484375,10.564311981201172,2.0315065383911133,-0.6843472719192505
1761330876619913500,6.50291357421875,9.659825325012207,2.1822543144226074,0.26081767678260803
1761330876638614300,6.5216142578125,8.602197647094727,2.5914268493652344,0.6460621356964111
1761330876657315000,6.540315185546875,7.817351341247559,2.7637102603912354,0.2967100143432617
1761330876676016000,6.55901611328125,7.465606689453125,2.7732813358306885,-0.5288137793540955
1761330876694717000,6.577717041015625,7.302894592285156,2.720639228820801,-1.0432707071304321
1761330876713417700,6.596417724609375,7.3052873611450195,2.933600664138794,-1.0289137363433838
1761330876732118500,6.615118408203125,7.128218650817871,3.242274761199951,-0.7561319470405579
1761330876750819600,6.633819580078125,6.410371780395508,3.538984775543213,-0.576670229434967
1761330876769520400,6.652520263671875,6.022734642028809,3.924229145050049,-0.5694918036460876
1761330876788221200,6.67122119140625,6.489335060119629,4.01754903793335,-0.6245267391204834
1761330876806922000,6.689921875,7.0923261642456055,3.862015724182129,-0.760917603969574
1761330876825622800,6.708622802734375,7.482356548309326,3.8979079723358154,-0.9092726111412048
1761330876844323800,6.72732373046875,7.970492362976074,4.110869407653809,-0.8327022790908813
1761330876863024600,6.746024658203125,8.798408508300781,4.223331928253174,-0.2632105052471161
1761330876881725400,6.764725341796875,9.626325607299805,4.256831645965576,0.35892340540885925
1761330876900426200,6.78342626953125,9.8871431350708,4.491328239440918,0.07417750358581543
1761330876919127300,6.802127197265625,9.44447135925293,4.780859470367432,-0.2153540402650833
1761330876937828000,6.820828125,9.078369140625,5.283352375030518,-0.27038896083831787
1761330876956529000,6.83952880859375,9.140582084655762,5.436492919921875,0.14117653667926788
1761330876975229700,6.858229736328125,9.753145217895508,5.087141036987305,1.2801600694656372
1761330876993930500,6.876930419921875,10.951949119567871,4.3070807456970215,2.337787628173828
1761330877012631600,6.895631591796875,12.272787094116211,3.675375461578369,2.431107759475708
1761330877031332400,6.914332275390625,12.368500709533691,4.187439441680908,1.057627558708191
1761330877050033200,6.933033203125,11.45683479309082,4.938786029815674,-0.08135596662759781
1761330877068734000,6.95173388671875,11.038090705871582,4.685146808624268,0.7010970115661621
1761330877087435000,6.97043505859375,11.411371231079102,3.579662561416626,2.139183521270752
1761330877106135800,6.9891357421875,12.08614730834961,2.589034080505371,3.0867412090301514
1761330877124836600,7.007836669921875,12.215359687805176,1.9645073413848877,3.0891339778900146
1761330877143537400,7.026537353515625,11.693724632263184,1.703689694404602,2.4287149906158447
1761330877162238200,7.04523828125,10.61695384979248,1.7419748306274414,1.6534404754638672
1761330877180939000,7.06393896484375,9.174081802368164,2.045863389968872,1.2035897970199585
1761330877199640000,7.08264013671875,7.520641803741455,2.4646072387695312,0.9475577473640442
1761330877218340900,7.1013408203125,6.183053493499756,2.7254250049591064,0.8973084688186646
1761330877237041700,7.120041748046875,5.520241737365723,2.854637384414673,1.0001999139785767
1761330877255742500,7.138742431640625,5.7547383308410645,2.9718856811523438,1.2299108505249023
1761330877274443300,7.157443359375,6.606583118438721,3.177668571472168,1.2418749332427979
1761330877293144000,7.17614404296875,7.5326056480407715,3.359523057937622,0.8638089895248413
1761330877311844900,7.194844970703125,8.094919204711914,3.4719855785369873,0.33738797903060913
1761330877330546000,7.2135458984375,8.563912391662598,3.483949661254883,0.3397808074951172
1761330877349246700,7.232246826171875,8.71226692199707,3.500699520111084,0.6005984544754028
1761330877367947500,7.250947509765625,8.788837432861328,3.5820555686950684,0.8709874153137207
1761330877386648300,7.2696484375,8.975478172302246,3.5772697925567627,1.0839486122131348
1761330877405349400,7.288349365234375,9.300901412963867,3.5988051891326904,0.973878800868988
1761330877424050200,7.30705029296875,9.609575271606445,3.737588882446289,0.4211367964744568
1761330877442751000,7.3257509765625,9.454042434692383,3.9601213932037354,-0.10767702013254166
1761330877461451800,7.34445166015625,9.119047164916992,4.2592244148254395,-0.21774685382843018
1761330877480152600,7.363152587890625,8.937192916870117,4.481756687164307,-0.06939185410737991
1761330877498853600,7.381853515625,8.738588333129883,4.687539577484131,-0.20338992774486542
1761330877517554400,7.400554443359375,8.212167739868164,5.103890895843506,-0.6675975322723389
1761330877536255200,7.419255126953125,7.829315662384033,5.632704734802246,-1.2634103298187256
1761330877554956000,7.4379560546875,8.039883613586426,5.608776092529297,-1.2610175609588623
1761330877573656800,7.45665673828125,8.62612533569336,4.811966419219971,0.01196411345154047
1761330877592357600,7.475357666015625,9.824930191040039,4.53200626373291,1.196411371231079
1761330877611058700,7.49405859375,11.093125343322754,4.66361141204834,1.0456634759902954
1761330877629759500,7.512759521484375,11.758330345153809,4.627718925476074,0.23688943684101105
1761330877648460300,7.531460205078125,11.782258987426758,4.139583110809326,-0.3732803463935852
1761330877667161000,7.5501611328125,11.657832145690918,3.3475589752197266,-0.7178468108177185
1761330877685862000,7.56886181640625,11.423335075378418,2.6632115840911865,-0.9092726111412048
1761330877704562700,7.587562744140625,11.033305168151855,2.306680917739868,-0.794417142868042
1761330877723263700,7.606263671875,10.334601402282715,2.1511476039886475,-0.3158525824546814
1761330877741964500,7.624964599609375,9.29611587524414,2.335394859313965,0.059820566326379776
1761330877760665300,7.643665283203125,8.389236450195312,2.715853691101074,0.10049854964017868
1761330877779366100,7.6623662109375,7.707281589508057,2.964707374572754,0.12681959569454193
1761330877798067000,7.68106689453125,7.441678524017334,3.129812002182007,0.17228323221206665
1761330877816768000,7.69976806640625,7.389036178588867,2.9623143672943115,0.21774685382843018
1761330877835468800,7.71846875,7.448856830596924,2.778067111968994,-0.04307080805301666
1761330877854169600,7.737169677734375,7.475177764892578,2.988635540008545,-0.576670229434967
1761330877872870400,7.755870361328125,7.152146816253662,3.25663161277771,-0.8422735929489136
1761330877891571200,7.7745712890625,6.939185619354248,3.579662561416626,-0.7657032608985901
1761330877910272000,7.79327197265625,7.0061845779418945,3.680161237716675,-0.3278166949748993
1761330877928972800,7.811972900390625,7.302894592285156,3.617947816848755,0.20338992774486542
1761330877947673900,7.830673828125,7.609176158905029,3.627519130706787,0.7202396392822266
1761330877966374700,7.849374755859375,7.8388872146606445,3.704089403152466,0.8590233325958252
1761330877985075500,7.868075439453125,8.15234661102295,3.8500516414642334,0.41874396800994873
1761330878003776300,7.8867763671875,8.819944381713867,3.8835511207580566,-0.20099709928035736
1761330878022477000,7.90547705078125,9.726823806762695,3.87876558303833,-0.6101697683334351
1761330878041178000,7.92417822265625,10.250852584838867,4.0079779624938965,-0.794417142868042
1761330878059879000,7.94287890625,10.456634521484375,4.256831645965576,-0.6101697683334351
1761330878078579700,7.961579833984375,10.77966594696045,4.453042984008789,-0.2560320198535919
1761330878097280500,7.980280517578125,11.016555786132812,4.398007869720459,0.1698904037475586
1761330878115981300,7.998981201171875,10.992627143859863,3.981656789779663,0.5958128571510315
1761330878134682000,8.01768212890625,11.559725761413574,3.4672000408172607,1.3208380937576294
1761330878153383000,8.0363828125,12.942777633666992,3.297309637069702,1.588834285736084
1761330878172084000,8.055083984375,12.89492130279541,3.8811583518981934,0.6364908218383789
1761330878190784800,8.07378466796875,11.542976379394531,3.589233875274658,0.1052841991186142
1761330878209485600,8.092485595703126,10.877771377563477,3.208775281906128,0.44745782017707825
1761330878228186400,8.111186279296875,11.243873596191406,2.768495798110962,1.0360921621322632
1761330878246887200,8.12988720703125,11.411371231079102,2.280359983444214,1.4883357286453247
1761330878265588200,8.148588134765625,10.815558433532715,1.9046868085861206,1.8807586431503296
1761330878284289000,8.1672890625,9.20997428894043,1.9573289155960083,1.9142581224441528
1761330878302989800,8.18598974609375,8.204988479614258,2.3712873458862305,1.4931213855743408
1761330878321690600,8.204690673828125,8.37727165222168,2.7254250049591064,1.2658032178878784
1761330878340391400,8.223391357421875,8.61894702911377,2.902493953704834,1.3088740110397339
1761330878359092200,8.24209228515625,8.243273735046387,2.943171739578247,1.1078768968582153
1761330878377793000,8.26079296875,7.568498134613037,2.967100143432617,0.7106683254241943
1761330878396493800,8.279493896484375,7.393822193145752,3.1250264644622803,0.20338992774486542
1761330878415195000,8.29819482421875,7.82692289352417,3.266202926635742,-0.20817556977272034
1761330878433895700,8.316895751953124,8.461020469665527,3.345165967941284,-0.30628129839897156
1761330878452596500,8.335596435546876,8.571090698242188,3.232703447341919,-0.04307080805301666
1761330878471297300,8.35429736328125,8.520841598510742,3.242274761199951,0.13878370821475983
1761330878489998000,8.372998046875,8.338987350463867,3.28773832321167,0.2847459018230438
1761330878508699000,8.391698974609374,8.458627700805664,3.3308091163635254,0.6293123364448547
1761330878527399700,8.410399658203126,8.662017822265625,3.610769271850586,0.5647061467170715
1761330878546100700,8.429100830078125,8.391629219055176,3.562912940979004,0.5982056856155396
1761330878564801500,8.447801513671875,8.032705307006836,3.2135608196258545,0.7154539823532104
1761330878583502300,8.46650244140625,8.37727165222168,3.6610186100006104,0.13878370821475983
1761330878602203100,8.485203125,8.891729354858398,4.254438877105713,-0.3924229145050049
1761330878620904000,8.503904052734375,8.992227554321289,4.402793884277344,-0.5288137793540955
1761330878639605000,8.52260498046875,9.044869422912598,4.6372904777526855,-0.97148597240448
1761330878658305800,8.541305908203125,9.150154113769531,4.996213912963867,-1.3902299404144287
1761330878677006600,8.560006591796874,9.269794464111328,5.233103275299072,-1.7778671979904175
1761330878695707400,8.578707275390625,9.461220741271973,5.259424209594727,-1.828116536140442
1761330878714408200,8.597408203125,9.930213928222656,5.149354457855225,-1.2634103298187256
1761330878733109000,8.61610888671875,10.782058715820312,6.259624004364014,-1.4428720474243164
1761330878751809800,8.634809814453124,10.820343971252441,5.257031440734863,-0.31106695532798767
1761330878770510600,8.653510498046876,10.612168312072754,4.40757942199707,-0.13878370821475983
1761330878789211600,8.672211669921875,10.621739387512207,3.955335855484009,-0.3278166949748993
1761330878807912400,8.690912353515625,10.705488204956055,4.211368083953857,-1.1054840087890625
1761330878826613200,8.70961328125,10.593026161193848,3.761517286300659,-1.0456634759902954
1761330878845314000,8.72831396484375,10.39920711517334,3.603590965270996,-0.7202396392822266
1761330878864014800,8.747014892578125,10.14317512512207,3.6777684688568115,-0.4019941985607147
1761330878882715600,8.765715576171875,9.688538551330566,3.0077781677246094,0.6747759580612183
1761330878901416400,8.78441650390625,9.305686950683594,2.964707374572754,0.8901300430297852
1761330878920117500,8.803117431640626,8.58784008026123,3.304488182067871,0.5958128571510315
1761330878938818300,8.821818359375,7.511070251464844,3.436093330383301,0.5431707501411438
1761330878957519000,8.84051904296875,6.97986364364624,3.6538400650024414,0.4259224236011505
1761330878976220000,8.859219970703125,6.984649181365967,3.6945180892944336,0.33499518036842346
1761330878994920700,8.877920654296876,6.853044033050537,3.627519130706787,0.04785645380616188
1761330879013621500,8.89662158203125,6.63051176071167,3.78544545173645,-0.4785645306110382
1761330879032322300,8.915322265625,6.594619274139404,4.015156269073486,-0.5910272002220154
1761330879051023000,8.934023193359375,6.92482852935791,4.201796531677246,-0.4043870270252228
1761330879069724200,8.95272412109375,7.178467750549316,4.240081787109375,-0.37088751792907715
1761330879088425000,8.971425048828126,7.03489875793457,4.287938117980957,-0.6029912829399109
1761330879107125800,8.990125732421875,6.833901405334473,4.364508628845215,-0.6939185857772827
1761330879125826600,9.00882666015625,7.176074981689453,4.656432628631592,-0.6125625967979431
1761330879144527400,9.02752734375,8.030312538146973,4.7952165603637695,-0.35892340540885925
1761330879163228200,9.046228271484376,8.86780071258545,4.886143684387207,-0.15314064919948578
1761330879181929000,9.064928955078125,9.394221305847168,5.07517671585083,-0.2632105052471161
1761330879200629800,9.083629638671875,9.425328254699707,5.278566837310791,-0.519242525100708
1761330879219330600,9.10233056640625,9.604789733886719,5.661418437957764,-0.6508477330207825
1761330879238031400,9.12103125,9.554540634155273,5.9198431968688965,-0.42352959513664246
1761330879256732200,9.139732177734375,9.212367057800293,6.065805435180664,0.08853443711996078
1761330879275433200,9.15843310546875,8.918049812316895,5.862415313720703,0.8446664214134216
1761330879294134000,9.177134033203124,9.688538551330566,5.663811206817627,1.34476637840271
1761330879312834800,9.195834716796876,11.322836875915527,5.4867424964904785,1.2035897970199585
1761330879331535600,9.21453564453125,11.674581527709961,4.591826438903809,0.9571290612220764
1761330879350236400,9.233236328125,11.679367065429688,4.419543266296387,0.8877372145652771
1761330879368937200,9.251937255859374,11.669795989990234,4.40757942199707,1.5960127115249634
1761330879387638000,9.270637939453126,11.557332992553711,4.177868366241455,2.407179594039917
1761330879406339000,9.289339111328125,10.861021995544434,3.8213376998901367,2.366501569747925
1761330879425040000,9.308039794921875,9.812965393066406,3.6059837341308594,1.588834285736084
1761330879443740700,9.32674072265625,9.119047164916992,3.658625841140747,0.8422735929489136
1761330879462441500,9.34544140625,8.83669376373291,3.6155550479888916,0.6556333899497986
1761330879481142300,9.364142333984375,8.595019340515137,3.548556089401245,0.8446664214134216
1761330879499843000,9.382843017578125,8.288737297058105,3.5030922889709473,1.1270195245742798
1761330879518544000,9.4015439453125,7.846065521240234,3.517449378967285,1.1318050622940063
1761330879537244700,9.42024462890625,7.489534854888916,3.6777684688568115,0.727418065071106
1761330879555945700,9.43894580078125,7.3292155265808105,3.8739798069000244,0.23210379481315613
1761330879574646500,9.457646484375,7.128218650817871,3.8907296657562256,-0.20817556977272034
1761330879593347000,9.47634716796875,6.932007312774658,3.933800458908081,-0.5862415432929993
1761330879612048100,9.495048095703124,7.200003147125244,4.096512317657471,-0.8327022790908813
1761330879630749000,9.5137490234375,7.609176158905029,4.077369689941406,-0.3924229145050049
1761330879649449700,9.53244970703125,7.810173034667969,4.237689018249512,0.1866401731967926
1761330879668150500,9.551150634765625,7.893921852111816,4.388436794281006,0.49292147159576416
1761330879686851300,9.569851318359374,8.02074146270752,4.48414945602417,0.2727817893028259
1761330879705552100,9.58855224609375,8.195417404174805,4.48414945602417,-0.12442677468061447
1761330879724253000,9.6072529296875,8.539983749389648,4.560719966888428,-0.31345975399017334
1761330879742953700,9.62595361328125,9.061619758605957,4.685146808624268,-0.20578274130821228
1761330879761654800,9.64465478515625,9.391828536987305,4.721039295196533,0.09092725813388824
1761330879780355600,9.66335546875,9.430113792419434,4.821537494659424,0.4570291340351105
1761330879799056400,9.682056396484375,9.355937004089355,5.01296329498291,0.4450650215148926
1761330879817757200,9.700757080078125,9.095118522644043,5.3216376304626465,0.10767702013254166
1761330879836458000,9.7194580078125,8.810373306274414,5.6590256690979,-0.4378865361213684
1761330879855158800,9.73815869140625,8.513663291931152,5.848058700561523,-0.6364908218383789
1761330879873859600,9.756859619140625,8.683553695678711,5.704489231109619,-0.08853443711996078
1761330879892560400,9.775560302734375,9.157332420349121,5.4556355476379395,0.6604190468788147
1761330879911261200,9.79426123046875,9.468399047851562,5.5034918785095215,0.6197410821914673
1761330879929962000,9.8129619140625,9.41336441040039,5.374279499053955,-0.016749758273363113
1761330879948662800,9.831662841796875,9.399007797241211,5.326423168182373,-0.6364908218383789
1761330879967363800,9.85036376953125,10.198209762573242,5.101497650146484,-0.8398807644844055
1761330879986064600,9.869064697265625,10.959127426147461,4.4482574462890625,-0.5216353535652161
1761330880004765400,9.887765380859374,11.176874160766602,4.0558342933654785,-0.5216353535652161
1761330880023466200,9.90646630859375,11.143375396728516,3.9074792861938477,-0.363709032535553
1761330880042167000,9.9251669921875,10.420742988586426,3.81655216217041,-0.07417750358581543
1761330880060867800,9.943867919921875,9.312865257263184,3.9864425659179688,-0.21774685382843018
1761330880079568600,9.962568603515624,8.283951759338379,4.070191383361816,-0.4378865361213684
1761330880098269400,9.98126953125,7.470392227172852,4.063013076782227,-0.5814558863639832
1761330880116970200,9.99997021484375,6.994220733642578,3.845266103744507,-0.1986042857170105
1761330880135671000,10.018671142578125,6.752545356750488,3.6873397827148438,-0.007178467698395252
1761330880154371800,10.037371826171874,6.778866767883301,3.617947816848755,-0.6317051649093628
1761330880173072600,10.05607275390625,6.965506553649902,3.6610186100006104,-1.3423734903335571
1761330880191773400,10.0747734375,7.2335028648376465,3.682554006576538,-1.581655740737915
1761330880210474200,10.09347412109375,7.910671710968018,4.417150497436523,-2.1032910346984863
1761330880229175300,10.11217529296875,6.192625045776367,4.610969066619873,-1.923829436302185
1761330880247876000,10.1308759765625,5.771488189697266,4.2209391593933105,-0.9116654396057129
1761330880266577000,10.149576904296875,6.180660724639893,4.431507587432861,-0.004785645287483931
1761330880285277700,10.168277587890625,6.8243303298950195,4.311866283416748,-0.5168496966362
