time,seconds_elapsed,z,y,x
1761330870167016700,0.0500166015625,0,0,0
1761330870185717800,0.0687177734375,0.02880573272705078,-0.5460019111633301,-0.24355566501617432
1761330870204418600,0.08741845703125,0.3968181610107422,-0.8509430885314941,-0.5007365942001343
1761330870223119400,0.106119384765625,0.34012508392333984,-0.9183614253997803,-0.547467052936554
1761330870241820400,0.1248203125,-0.5734281539916992,-0.8311350345611572,-0.16468727588653564
1761330870260521200,0.143521240234375,-1.5558395385742188,-0.8609504699707031,0.06345665454864502
1761330870279222300,0.16222216796875,-1.9100027084350586,-0.8561201095581055,0.10039126873016357
1761330870297923000,0.180923095703125,-1.9556961059570312,-0.6708805561065674,-0.21074336767196655
1761330870316624000,0.199623779296875,-2.0863466262817383,-0.2973928451538086,-0.6788783073425293
1761330870335325000,0.218324951171875,-2.1110801696777344,-0.08783888816833496,-0.9544157385826111
1761330870354026000,0.23702587890625,-1.9759764671325684,-0.15674042701721191,-0.7559257745742798
1761330870372726800,0.255726806640625,-1.645308494567871,-0.2679018974304199,-0.6514937877655029
1761330870391427600,0.274427490234375,-1.336984634399414,-0.06602787971496582,-0.6946953535079956
1761330870410128600,0.293128662109375,-1.720327377319336,0.20334434509277344,-0.30560025572776794
1761330870428829400,0.311829345703125,-2.324705123901367,0.5091383457183838,-0.06104972958564758
1761330870447530500,0.330530517578125,-2.636929988861084,0.7096281051635742,-0.01027698814868927
1761330870466231300,0.349231201171875,-2.6200790405273438,0.7898387908935547,0.05652845650911331
1761330870484932400,0.367932373046875,-1.9683928489685059,0.8652594089508057,-0.40963777899742126
1761330870503633200,0.386633056640625,-1.1741833686828613,1.0229852199554443,-0.89289790391922
1761330870522334200,0.405334228515625,-0.5869426727294922,1.0871353149414062,-0.7743218541145325
1761330870541035000,0.424034912109375,-0.09821891784667969,0.8370065689086914,-0.365905225276947
1761330870559736000,0.442736083984375,0.2760887145996094,0.6930968761444092,0.07270096987485886
1761330870578436900,0.461436767578125,0.4905834197998047,0.7442421913146973,0.28029170632362366
1761330870597137700,0.4801376953125,0.7055826187133789,0.8681743144989014,0.2680993676185608
1761330870615838700,0.498838623046875,0.8970880508422852,0.846508264541626,-0.12963521480560303
1761330870634539500,0.51753955078125,0.7982463836669922,0.8742260932922363,-0.4721296727657318
1761330870653240600,0.536240478515625,0.6128177642822266,1.0824754238128662,-0.5057883858680725
1761330870671941400,0.55494140625,1.1061687469482422,1.0934243202209473,-0.06468689441680908
1761330870690642400,0.573642333984375,2.293853759765625,0.7414736747741699,-0.12141963839530945
1761330870709343200,0.59234326171875,2.9196176528930664,0.39921045303344727,-0.23833969235420227
1761330870728044300,0.611044189453125,2.881681442260742,0.2849133014678955,-0.2278241515159607
1761330870746745000,0.6297451171875,2.4683523178100586,0.9579477310180664,-0.09103009104728699
1761330870765446000,0.64844580078125,1.516169548034668,1.4199302196502686,-0.21444249153137207
1761330870784147000,0.66714697265625,0.9479160308837891,1.3852858543395996,-1.1879451274871826
1761330870802847700,0.68584765625,1.2259273529052734,1.0249500274658203,-2.232511520385742
1761330870821548800,0.704548828125,2.0482044219970703,0.44817519187927246,-2.87870454788208
1761330870840249600,0.72324951171875,1.8740730285644531,-0.1524219512939453,-2.621767520904541
1761330870858950700,0.74195068359375,0.41524696350097656,-0.589256763458252,-1.6241002082824707
1761330870877651500,0.7606513671875,-0.6847295761108398,-0.903228759765625,-0.8501867055892944
1761330870896352300,0.779352294921875,-1.0713167190551758,-1.0745532512664795,-0.4791608452796936
1761330870915053300,0.79805322265625,-1.196380615234375,-0.9593582153320312,-0.3499158024787903
1761330870933754000,0.816754150390625,-1.564979076385498,-0.7585198879241943,-0.4204906225204468
1761330870952455200,0.835455078125,-2.265026092529297,-0.6044011116027832,-0.17188972234725952
1761330870971156000,0.854156005859375,-2.8051810264587402,-0.5169284343719482,0.2285705804824829
1761330870989857000,0.87285693359375,-2.907198429107666,-0.6154451370239258,0.6042666435241699
1761330871008557800,0.891557861328125,-2.5545129776000977,-0.7260963916778564,0.9852621555328369
1761330871027258600,0.910258544921875,-2.2116565704345703,-0.6314032077789307,1.2715681791305542
1761330871045959700,0.928959716796875,-2.0026121139526367,-0.46271538734436035,1.1640986204147339
1761330871064660500,0.947660400390625,-1.94122314453125,-0.42164039611816406,0.6923586130142212
1761330871083361500,0.966361572265625,-1.8087677955627441,-0.4196810722351074,0.10740388929843903
1761330871102062300,0.985062255859375,-1.77447509765625,-0.12771320343017578,-0.7259120941162109
1761330871120763400,1.003763427734375,-0.8113975524902344,-0.5377767086029053,0.3675556778907776
1761330871139464200,1.022464111328125,0.5456485748291016,-0.8624334335327148,1.1470041275024414
1761330871158165200,1.041165283203125,1.9634218215942383,-0.2728724479675293,1.3821672201156616
1761330871176866000,1.059865966796875,1.7986183166503906,0.4866220951080322,0.6418919563293457
1761330871195566800,1.07856689453125,0.6200752258300781,1.6604859828948975,-0.035012803971767426
1761330871214268000,1.097267822265625,-0.5629587173461914,2.2107977867126465,-0.9076076745986938
1761330871232968700,1.11596875,-1.110595703125,2.496145725250244,-0.03709499537944794
1761330871251669500,1.13466943359375,-0.9173860549926758,2.1735270023345947,1.323534607887268
1761330871270370600,1.15337060546875,0.42616939544677734,1.5476810932159424,2.633474826812744
1761330871289071600,1.172071533203125,1.9313592910766602,0.7851543426513672,2.200939893722534
1761330871307772400,1.1907724609375,4.160984992980957,0.28330421447753906,1.1442067623138428
1761330871326473200,1.20947314453125,4.874042510986328,1.2431933879852295,0.9006674289703369
1761330871345174300,1.22817431640625,3.262653350830078,1.9237678050994873,1.431973934173584
1761330871363875000,1.246875,2.0436763763427734,1.043567419052124,1.728297233581543
1761330871382575900,1.265575927734375,1.8896360397338867,-0.41496872901916504,1.9909428358078003
1761330871401277000,1.28427685546875,3.3153915405273438,-1.6851856708526611,1.4405927658081055
1761330871419977700,1.302977783203125,3.132126808166504,-2.423304796218872,0.06179197132587433
1761330871438678800,1.3216787109375,2.1256027221679688,-2.0007989406585693,-0.6164171099662781
1761330871457379600,1.340379638671875,-0.5193605422973633,-1.3282372951507568,-0.8803946375846863
1761330871476080600,1.35908056640625,-1.4994382858276367,-0.8121869564056396,-0.3855239748954773
1761330871494781400,1.377781494140625,-2.0631513595581055,-0.8902833461761475,-0.30209216475486755
1761330871513482200,1.396482177734375,-2.147487163543701,-0.8777511119842529,-0.11814188957214355
1761330871532183300,1.415183349609375,-1.6405620574951172,-0.43320417404174805,-0.8465244770050049
1761330871550884000,1.433884033203125,-1.2064476013183594,0.3197596073150635,-2.615144729614258
1761330871569585200,1.452585205078125,-1.0306901931762695,0.5195455551147461,-3.1301984786987305
1761330871588286000,1.471285888671875,-0.41854286193847656,0.24040675163269043,-2.29378080368042
1761330871606987000,1.489987060546875,-0.9125404357910156,-0.34540414810180664,-0.36974287033081055
1761330871625687800,1.508687744140625,-1.6212997436523438,-0.8887701034545898,1.8355908393859863
1761330871644388600,1.527388671875,-1.7201719284057617,-1.0963841676712036,3.2420449256896973
1761330871663089700,1.546089599609375,-2.4398813247680664,-0.6209201812744141,1.9924088716506958
1761330871681790500,1.56479052734375,-2.045426845550537,-0.38187670707702637,1.0627835988998413
1761330871700491300,1.5834912109375,-1.534487247467041,0.2218170166015625,-0.5734145641326904
1761330871719192300,1.6021923828125,-0.6347780227661133,0.4672691822052002,-0.6712243556976318
1761330871737893000,1.62089306640625,-0.03804779052734375,0.1386873722076416,-0.09345698356628418
1761330871756594000,1.639593994140625,0.4169187545776367,0.5417304039001465,0.24886870384216309
1761330871775295000,1.658294921875,0.763458251953125,0.29607367515563965,1.4381133317947388
1761330871793995800,1.676995849609375,0.5127573013305664,1.553812026977539,0.5226408839225769
1761330871812696800,1.69569677734375,0.10709953308105469,2.3294148445129395,0.39280396699905396
1761330871831397600,1.714397705078125,0.44501209259033203,2.5084705352783203,1.2519817352294922
1761330871850098700,1.7330986328125,0.37174034118652344,0.8828308582305908,0.31381112337112427
1761330871868799500,1.751799560546875,1.0610485076904297,0.6303565502166748,-1.9351649284362793
1761330871887500500,1.77050048828125,1.674520492553711,0.4044773578643799,-2.968644857406616
1761330871906201300,1.789201416015625,3.2615976333618164,1.6345043182373047,-1.8896009922027588
1761330871924902100,1.807902099609375,3.9854936599731445,1.550898790359497,-1.0760509967803955
1761330871943603200,1.826603271484375,3.029569625854492,0.5492410659790039,-0.8784598708152771
1761330871962304000,1.845303955078125,1.7484550476074219,-1.0877609252929688,-1.989150047302246
1761330871981005000,1.864005126953125,1.9086284637451172,-1.4877080917358398,-3.159505844116211
1761330871999705900,1.882705810546875,2.1862659454345703,-1.8480044603347778,-3.5388894081115723
1761330872018406700,1.90140673828125,1.888371467590332,-2.2905919551849365,-2.0280709266662598
1761330872037107700,1.920107666015625,1.4306087493896484,-1.908390760421753,-0.2169772982597351
1761330872055808500,1.93880859375,0.7550249099731445,-1.4701921939849854,0.313215434551239
1761330872074509300,1.95750927734375,0.2700834274291992,-1.7207974195480347,0.05004602670669556
1761330872093210400,1.97621044921875,-0.6931867599487305,-1.721299409866333,-0.05879291892051697
1761330872111911200,1.9949111328125,-1.5600757598876953,-1.5850279331207275,-0.3297026455402374
1761330872130612200,2.0136123046875,-2.2110729217529297,-1.410733938217163,-0.5158953070640564
1761330872149313000,2.03231298828125,-2.611259937286377,-1.0722510814666748,0.0029913783073425293
1761330872168013800,2.051013916015625,-2.5093326568603516,-0.9529058933258057,0.5365841388702393
1761330872186715000,2.06971484375,-2.4367752075195312,-0.9519309997558594,0.8047744035720825
1761330872205415700,2.088415771484375,-2.775773048400879,-0.6464135646820068,0.6116517782211304
1761330872224116500,2.107116455078125,-3.0296878814697266,-0.10406088829040527,0.3228626251220703
1761330872242817500,2.125817626953125,-2.817469596862793,0.3372979164123535,0.05096393823623657
1761330872261518300,2.144518310546875,-2.5730490684509277,0.5588574409484863,-0.30400553345680237
1761330872280219400,2.163219482421875,-2.368703842163086,0.40324926376342773,-0.48943406343460083
1761330872298920200,2.181920166015625,-2.2518815994262695,0.5308582782745361,-0.17379409074783325
1761330872317621000,2.20062109375,-1.9424352645874023,0.6609811782836914,-0.014080464839935303
1761330872336322000,2.219322021484375,-1.1107721328735352,0.7861952781677246,0.11208975315093994
1761330872355022800,2.23802294921875,-0.19260501861572266,0.9209568500518799,0.21502119302749634
1761330872373724000,2.256723876953125,0.5299930572509766,0.8541240692138672,0.43166834115982056
1761330872392424700,2.2754248046875,1.0914974212646484,0.9399631023406982,0.44177883863449097
1761330872411125500,2.29412548828125,1.7917556762695312,1.6141259670257568,0.930818498134613
1761330872429826600,2.31282666015625,1.9929485321044922,1.8564324378967285,1.08780038356781
1761330872448527400,2.33152734375,1.8314332962036133,1.4585561752319336,0.7309872508049011
1761330872467228200,2.350228271484375,2.0496015548706055,0.7978839874267578,0.31603527069091797
1761330872485929200,2.36892919921875,2.5670299530029297,1.0182311534881592,0.6688311100006104
1761330872504630000,2.387630126953125,2.7711830139160156,1.498631238937378,1.3073893785476685
1761330872523331000,2.4063310546875,2.52114200592041,0.9011290073394775,1.2822420597076416
1761330872542032000,2.425031982421875,2.5184860229492188,0.07992982864379883,1.0762699842453003
1761330872560732700,2.443732666015625,2.646845817565918,-1.0976245403289795,0.9891383051872253
1761330872579433700,2.462433837890625,2.468735694885254,-1.7667425870895386,1.0560619831085205
1761330872598134500,2.481134521484375,1.9812498092651367,-1.9547439813613892,0.8058818578720093
1761330872616835300,2.49983544921875,1.351454734802246,-1.8816330432891846,0.6565185785293579
1761330872635536400,2.518536376953125,0.6164817810058594,-1.7223093509674072,0.3902446925640106
1761330872654237200,2.5372373046875,-0.3729372024536133,-1.373908519744873,0.03294174373149872
1761330872672938000,2.55593798828125,-1.2843923568725586,-1.1226046085357666,0.04035383462905884
1761330872691639000,2.57463916015625,-2.049518585205078,-1.1272563934326172,0.10477104038000107
1761330872710339800,2.59333984375,-2.4510116577148438,-1.0507283210754395,0.010044030845165253
1761330872729040600,2.61204052734375,-2.62017822265625,-0.8016905784606934,0.19543719291687012
1761330872747741700,2.63074169921875,-2.6347122192382812,-0.42908167839050293,0.49868255853652954
1761330872766442500,2.6494423828125,-2.5218639373779297,-0.10737919807434082,0.40792515873908997
1761330872785143600,2.6681435546875,-2.2807984352111816,0.13855504989624023,0.13635315001010895
1761330872803844400,2.68684423828125,-2.217257499694824,0.14451861381530762,0.028083056211471558
1761330872822545200,2.705545166015625,-2.080166816711426,0.04076075553894043,0.05897095799446106
1761330872841246200,2.72424609375,-1.6567578315734863,-0.2724571228027344,-0.09377878904342651
1761330872859947000,2.742947021484375,-0.832606315612793,-0.3124830722808838,0.046716928482055664
1761330872878648000,2.76164794921875,0.1338062286376953,-0.1583268642425537,0.18556228280067444
1761330872897348900,2.780348876953125,0.6882705688476562,-0.012366056442260742,0.20975983142852783
1761330872916049700,2.799049560546875,0.7855911254882812,0.1831798553466797,0.24465447664260864
1761330872934750500,2.81775048828125,0.8475761413574219,0.32575273513793945,0.3826710283756256
1761330872953451500,2.836451416015625,0.5775241851806641,0.488400936126709,0.6515535116195679
1761330872972152300,2.85515234375,0.1635141372680664,1.017652988433838,0.5659455060958862
1761330872990853400,2.873853271484375,-0.2682771682739258,1.4705924987792969,-0.011478126049041748
1761330873009554200,2.89255419921875,-0.40825748443603516,1.5762965679168701,-0.2214946746826172
1761330873028255000,2.9112548828125,-0.6337728500366211,1.3336427211761475,-0.3688070774078369
1761330873046956000,2.9299560546875,-0.5134077072143555,1.1706390380859375,-0.3604543209075928
1761330873065656800,2.94865673828125,0.5133876800537109,1.548398494720459,-0.4904118478298187
1761330873084357600,2.967357666015625,2.043093681335449,1.2084882259368896,-0.9301881790161133
1761330873103058700,2.98605859375,3.450432777404785,0.563483476638794,-0.9363599419593811
1761330873121759700,3.004759765625,4.195489883422852,-0.4861307144165039,-0.7885702848434448
1761330873140460300,3.023460205078125,4.22794246673584,-1.2826313972473145,-1.120836615562439
1761330873159161300,3.042161376953125,3.5864944458007812,-1.4381780624389648,-0.9743703007698059
1761330873177862100,3.060862060546875,2.112834930419922,-1.4843060970306396,-0.3128189444541931
1761330873196563000,3.07956298828125,0.44846439361572266,-1.5012297630310059,-0.22103804349899292
1761330873215264000,3.098263916015625,-0.9531774520874023,-1.3965888023376465,0.05944103002548218
1761330873233964800,3.11696484375,-1.8990330696105957,-1.2702343463897705,0.38082003593444824
1761330873252665600,3.13566552734375,-2.684513568878174,-0.9877442121505737,0.6715981364250183
1761330873271366700,3.15436669921875,-3.100701332092285,-0.8853144645690918,0.6009377837181091
1761330873290067500,3.1730673828125,-3.2192163467407227,-0.8047070503234863,0.5107942223548889
1761330873308768300,3.191768310546875,-3.171236991882324,-0.5374460220336914,0.641783595085144
1761330873327469300,3.21046923828125,-2.7477035522460938,-0.23502635955810547,0.5255718231201172
1761330873346170000,3.229170166015625,-2.0085391998291016,-0.0633859634399414,0.13081912696361542
1761330873364871000,3.247870849609375,-1.430953025817871,0.07915616035461426,-0.3130474090576172
1761330873383572000,3.266572021484375,-1.121978759765625,0.2023622989654541,-0.4731036424636841
1761330873402272800,3.285272705078125,-0.9321804046630859,0.1952497959136963,-0.6537456512451172
1761330873420973600,3.3039736328125,-0.5480079650878906,0.3177220821380615,-0.5677213668823242
1761330873439674600,3.322674560546875,-0.28956031799316406,0.5225532054901123,-0.18085695803165436
1761330873458375400,3.34137548828125,-0.03338432312011719,0.5515239238739014,-0.10483317822217941
1761330873477076200,3.360076171875,0.23398303985595703,0.6419413089752197,0.008152037858963013
1761330873495777300,3.37877734375,0.16440105438232422,0.8540353775024414,0.21531599760055542
1761330873514478000,3.39747802734375,0.06180286407470703,0.2807178497314453,-0.8683649301528931
1761330873533179000,3.416178955078125,-0.1543292999267578,1.3625247478485107,0.12229639291763306
1761330873551880000,3.4348798828125,-0.12980175018310547,1.7685019969940186,1.0259819030761719
1761330873570580700,3.453580810546875,0.389434814453125,1.7719690799713135,1.377964735031128
1761330873589281500,3.472281494140625,1.807332992553711,0.35285425186157227,0.05939728021621704
1761330873607982600,3.490982666015625,3.253960609436035,0.3712899684906006,0.07352060079574585
1761330873626683400,3.509683349609375,4.0454301834106445,-0.25993800163269043,-1.298229694366455
1761330873645384200,3.52838427734375,4.04998779296875,0.22114992141723633,0.46856117248535156
1761330873664085200,3.547085205078125,4.185820579528809,0.05093574523925781,2.2731192111968994
1761330873682786000,3.5657861328125,3.7382001876831055,-0.3812227249145508,3.3221869468688965
1761330873701486800,3.58448681640625,2.45833683013916,-1.481897234916687,2.494448661804199
1761330873720188000,3.60318798828125,1.2679119110107422,-1.7513189315795898,1.6371994018554688
1761330873738888700,3.621888671875,0.6623754501342773,-0.9446886777877808,0.9893192648887634
1761330873757589500,3.640589599609375,0.2424144744873047,-1.2070358991622925,0.5254659056663513
1761330873776290600,3.65929052734375,-0.3036470413208008,-1.4001972675323486,0.47866421937942505
1761330873794991400,3.677991455078125,-0.7745523452758789,-1.7804064750671387,-0.34328168630599976
1761330873813692200,3.696692138671875,-1.5284266471862793,-1.2412688732147217,0.45434707403182983
1761330873832393200,3.715393310546875,-2.3008575439453125,-0.7636163234710693,1.5524919033050537
1761330873851094000,3.734093994140625,-2.6115570068359375,-0.618262529373169,0.9399940967559814
1761330873869794800,3.752794921875,-2.6143479347229004,-0.4693880081176758,0.34353554248809814
1761330873888495900,3.771495849609375,-2.9379701614379883,-0.761315107345581,0.15018682181835175
1761330873907196700,3.79019677734375,-3.1904478073120117,-0.241041898727417,0.3262293338775635
1761330873925897500,3.8088974609375,-3.041163444519043,0.34624147415161133,0.20274946093559265
1761330873944598300,3.827598388671875,-2.652785301208496,0.6278774738311768,0.18471704423427582
1761330873963299300,3.84629931640625,-1.8010826110839844,-0.15780949592590332,0.3793788552284241
1761330873982000000,3.865000244140625,-0.4082145690917969,-0.7274191379547119,-0.2536937892436981
1761330874000701200,3.883701171875,0.691162109375,-0.6611373424530029,-0.49496763944625854
1761330874019402000,3.902402099609375,1.4347095489501953,-0.3181264400482178,-0.9219381809234619
1761330874038102800,3.921102783203125,2.0555601119995117,0.11939215660095215,-0.11769849061965942
1761330874056803600,3.939803466796875,2.1518564224243164,0.442624568939209,0.9612792730331421
1761330874075504600,3.958504638671875,1.269124984741211,0.5409431457519531,1.8535045385360718
1761330874094205400,3.977205322265625,0.12462139129638672,1.2201554775238037,0.8286018371582031
1761330874112906200,3.99590625,-0.8840770721435547,1.6146059036254883,-0.3170672655105591
1761330874131607300,4.014607177734375,-0.7885875701904297,1.6876676082611084,-1.2324824333190918
1761330874150308000,4.03330810546875,0.31035900115966797,1.1150884628295898,-1.266988754272461
1761330874169009000,4.0520087890625,1.4179468154907227,0.9336788654327393,-0.7576466202735901
1761330874187710000,4.0707099609375,1.6543169021606445,1.964362382888794,-1.3606960773468018
1761330874206410800,4.08941064453125,1.581416130065918,-0.08742713928222656,0.32729730010032654
1761330874225111600,4.108111572265625,2.2070980072021484,-1.1359269618988037,-0.012126386165618896
1761330874243812600,4.1268125,2.433643341064453,-1.286545753479004,-1.2914646863937378
1761330874262513400,4.145513427734375,1.6536865234375,-0.9548003673553467,-0.9077144861221313
1761330874281214200,4.164214111328125,0.6448287963867188,-0.6872446537017822,-0.07934120297431946
1761330874299915300,4.182915283203125,-0.027435302734375,-0.8758869171142578,0.3323644697666168
1761330874318616000,4.201615966796875,-0.2261962890625,-1.056556224822998,-0.2879655063152313
1761330874337316900,4.22031689453125,-0.33580875396728516,-1.4077411890029907,-0.48198747634887695
1761330874356017700,4.239017578125,-0.6346559524536133,-1.7194960117340088,-0.9178762435913086
1761330874374718500,4.257718505859375,-0.8975181579589844,-1.5921404361724854,-0.4409236013889313
1761330874393419500,4.27641943359375,-1.0322999954223633,-1.2539093494415283,0.9337911605834961
1761330874412120300,4.295120361328125,-1.835245132446289,-0.9096038341522217,1.3391200304031372
1761330874430821400,4.3138212890625,-2.570425033569336,-0.33216381072998047,1.2975167036056519
1761330874449522200,4.332522216796875,-3.043400764465332,-0.03515481948852539,0.6118069887161255
1761330874468223000,4.351222900390625,-3.1829452514648438,0.11384963989257812,-0.37148016691207886
1761330874486923800,4.369923828125,-2.8701562881469727,0.40308618545532227,-0.7053069472312927
1761330874505624800,4.388624755859375,-2.4908876419067383,0.34583282470703125,-0.6333926916122437
1761330874524325600,4.40732568359375,-1.6086854934692383,0.2642173767089844,-0.7610062956809998
1761330874543026400,4.4260263671875,-0.32719898223876953,0.31952691078186035,-0.8206847906112671
1761330874561727200,4.444727294921875,0.7122440338134766,0.25278139114379883,-0.4703059792518616
1761330874580428300,4.46342822265625,1.4014472961425781,0.4119296073913574,0.17733561992645264
1761330874599129000,4.482129150390625,1.5660409927368164,0.7477691173553467,0.4603427052497864
1761330874617830100,4.500830078125,1.5422210693359375,1.120490312576294,0.21599942445755005
1761330874636531000,4.519531005859375,1.2020740509033203,1.351058006286621,0.129613995552063
1761330874655231700,4.538231689453125,0.5524368286132812,1.434835433959961,0.15735101699829102
1761330874673932500,4.5569326171875,0.2438526153564453,1.339878797531128,0.2615635395050049
1761330874692633600,4.575633544921875,0.3363656997680664,0.7328195571899414,0.355307936668396
1761330874711334400,4.59433447265625,1.1357593536376953,0.30851244926452637,0.29282402992248535
1761330874730035200,4.61303515625,1.8530035018920898,0.4549546241760254,0.21376550197601318
1761330874748736000,4.631736083984375,2.3208818435668945,0.5107698440551758,0.5367004871368408
1761330874767437000,4.65043701171875,2.804551124572754,0.13268423080444336,1.2791086435317993
1761330874786137900,4.669137939453125,2.9877967834472656,-0.5422122478485107,1.4818120002746582
1761330874804838700,4.687838623046875,2.542865753173828,-0.9663349390029907,1.4179487228393555
1761330874823539700,4.706539794921875,1.5236577987670898,-1.0751465559005737,0.8544018864631653
1761330874842240500,4.725240478515625,0.6452922821044922,-1.045766830444336,0.5149242877960205
1761330874860941300,4.74394140625,0.07643985748291016,-1.2546775341033936,0.41423237323760986
1761330874879642000,4.76264208984375,-0.3952751159667969,-1.360788345336914,0.3970053195953369
1761330874898343200,4.78134326171875,-0.9423675537109375,-1.1558208465576172,0.4301384687423706
1761330874917044000,4.8000439453125,-1.5888290405273438,-0.9215434789657593,0.42757219076156616
1761330874935744800,4.818744873046875,-1.9830989837646484,-0.7185962200164795,0.4452582001686096
1761330874954445600,4.837445556640625,-1.887491226196289,-0.6230473518371582,0.15806657075881958
1761330874973146600,4.856146728515625,-1.510162353515625,-0.4847695827484131,-0.09866893291473389
1761330874991847400,4.874847412109375,-1.2416810989379883,-0.2248210906982422,-0.1894325315952301
1761330875010548200,4.89354833984375,-1.5847091674804688,-0.004547595977783203,-0.18182049691677094
1761330875029249300,4.912249267578125,-1.9279155731201172,0.10629844665527344,0.24712792038917542
1761330875047950000,4.9309501953125,-1.6911935806274414,0.09670233726501465,0.6841058731079102
1761330875066651000,4.94965087890625,-1.2695693969726562,-0.024324893951416016,0.7193018794059753
1761330875085352000,4.96835205078125,-0.9158048629760742,-0.13488531112670898,0.49152860045433044
1761330875104052700,4.987052734375,-0.5231342315673828,-0.0992281436920166,0.4423813223838806
1761330875122753500,5.00575341796875,-0.12163066864013672,0.1872243881225586,0.39859992265701294
1761330875141454300,5.024454345703125,0.17775630950927734,0.5289468765258789,0.3597412705421448
1761330875160155100,5.043155029296875,0.4290170669555664,0.7318835258483887,-0.030390247702598572
1761330875178856200,5.061856201171875,0.4066190719604492,0.6399149894714355,-0.16114559769630432
1761330875197557000,5.080556884765625,0.32867431640625,0.82537841796875,0.3411497473716736
1761330875216257800,5.0992578125,0.14007568359375,1.126058578491211,0.31139200925827026
1761330875234958800,5.117958740234375,-0.33441925048828125,1.335270881652832,-0.008756756782531738
1761330875253659600,5.13665966796875,-0.3331594467163086,1.4585678577423096,-0.318006694316864
1761330875272360400,5.1553603515625,0.30630970001220703,1.0892503261566162,-0.21598926186561584
1761330875291061500,5.1740615234375,1.4108190536499023,0.50679612159729,0.1853514015674591
1761330875309762300,5.19276220703125,2.6680517196655273,0.6936647891998291,0.2709472179412842
1761330875328463000,5.211463134765625,3.417159080505371,0.5361316204071045,0.29180872440338135
1761330875347164000,5.230163818359375,3.401151657104492,-0.34595274925231934,0.3921787142753601
1761330875365864700,5.24886474609375,3.09063720703125,-1.22226881980896,-0.010407745838165283
1761330875384565800,5.267565673828125,2.474437713623047,-1.6177372932434082,-0.9830532073974609
1761330875403266600,5.2862666015625,1.335245132446289,-1.4508025646209717,-1.3862054347991943
1761330875421967400,5.30496728515625,0.22932815551757812,-1.0163633823394775,-0.3603728115558624
1761330875440668200,5.323668212890625,-0.5301713943481445,-0.8790533542633057,0.3630196154117584
1761330875459369200,5.342369140625,-0.8897256851196289,-0.8305485248565674,-0.12003269046545029
1761330875478070000,5.361070068359375,-0.8938865661621094,-0.7972357273101807,-0.6678941249847412
1761330875496770800,5.379770751953125,-1.0836877822875977,-0.9192490577697754,-0.41362348198890686
1761330875515471600,5.3984716796875,-1.5271668434143066,-0.9514133930206299,-0.0192507803440094
1761330875534172700,5.417172607421875,-1.9698739051818848,-0.9016079902648926,0.4298945665359497
1761330875552873500,5.43587353515625,-2.2093138694763184,-0.6720705032348633,0.4696372151374817
1761330875571574300,5.45457421875,-2.3595480918884277,-0.4049403667449951,0.29857638478279114
1761330875590275300,5.473275390625,-2.338529586791992,-0.11452102661132812,0.07747969031333923
1761330875608976100,5.49197607421875,-2.251718521118164,-0.04064488410949707,0.0562291145324707
1761330875627677000,5.510677001953125,-2.128089427947998,0.061026811599731445,-0.08000552654266357
1761330875646377700,5.529377685546875,-1.6662821769714355,0.1345963478088379,-0.1500917673110962
1761330875665078800,5.548078857421875,-1.2298593521118164,0.09273481369018555,-0.2902848720550537
1761330875683779600,5.566779541015625,-1.2351369857788086,-0.009281158447265625,-0.44701915979385376
1761330875702480400,5.58548046875,-1.0900659561157227,0.06357526779174805,-0.8178133964538574
1761330875721181200,5.60418115234375,-0.5724620819091797,0.13942599296569824,-0.9098600149154663
1761330875739882200,5.62288232421875,-0.42797374725341797,0.45119333267211914,-0.9279447793960571
1761330875758583000,5.6415830078125,-0.6094474792480469,0.84140944480896,-0.7873579859733582
1761330875777283800,5.660283935546875,-0.4637155532836914,1.2458181381225586,-0.3329586386680603
1761330875795984600,5.678984619140625,-0.38155651092529297,1.8314416408538818,-0.09740528464317322
1761330875814685400,5.697685546875,-0.26618289947509766,2.103945732116699,0.020511150360107422
1761330875833386500,5.716386474609375,0.6639413833618164,1.9685814380645752,-0.008221089839935303
1761330875852087300,5.73508740234375,2.4956865310668945,1.4697892665863037,-0.022160351276397705
1761330875870788000,5.7537880859375,4.850428581237793,1.0462818145751953,-0.38329100608825684
1761330875889489000,5.772489013671875,5.669262886047363,1.4124751091003418,0.30191370844841003
1761330875908190000,5.79118994140625,4.340568542480469,1.9078490734100342,1.6396424770355225
1761330875926890800,5.809890869140625,3.1882638931274414,1.4541621208190918,3.0762228965759277
1761330875945591600,5.828591552734375,2.7035036087036133,0.4731132984161377,3.460995674133301
1761330875964292400,5.847292236328125,2.3409929275512695,-0.5903635025024414,2.7025747299194336
1761330875982993400,5.865993408203125,1.3918962478637695,-1.176833987236023,1.2853367328643799
1761330876001694200,5.884694091796875,0.5023984909057617,-1.2992900609970093,0.2993534803390503
1761330876020395000,5.90339501953125,0.13028430938720703,-1.2695869207382202,-0.009483695030212402
1761330876039095800,5.922095703125,-0.03217124938964844,-1.3019788265228271,0.017143607139587402
1761330876057796900,5.940796875,-0.4768190383911133,-1.2612429857254028,0.2138921618461609
1761330876076497700,5.95949755859375,-1.1631650924682617,-1.1327288150787354,0.35120224952697754
1761330876095198500,5.978198486328125,-1.5778474807739258,-1.175029993057251,-0.024559706449508667
1761330876113899500,5.9968994140625,-1.7959027290344238,-1.2611061334609985,-0.5103062987327576
1761330876132600300,6.015600341796875,-2.141263484954834,-1.2342180013656616,-0.4312775731086731
1761330876151301000,6.034301025390625,-2.044170379638672,-0.9511885643005371,0.2949158549308777
1761330876170002000,6.053001953125,-1.7461514472961426,-0.8649060726165771,0.738057017326355
1761330876188702700,6.07170263671875,-1.3779816627502441,-0.8919773101806641,0.35422903299331665
1761330876207403500,6.090403564453125,-1.510488510131836,-0.8405721187591553,-0.2494054138660431
1761330876226104600,6.1091044921875,-1.7993955612182617,-0.6580846309661865,-0.5669803023338318
1761330876244805400,6.127805419921875,-1.8472375869750977,-0.44625067710876465,-0.29286396503448486
1761330876263506200,6.146506103515625,-1.5158262252807617,0.018685102462768555,0.10553372651338577
1761330876282207200,6.165207275390625,-0.7442140579223633,0.48459625244140625,0.4721846282482147
1761330876300908000,6.183907958984375,0.1378021240234375,0.8735818862915039,0.7190628051757812
1761330876319608800,6.20260888671875,0.46665477752685547,1.1771562099456787,0.657956600189209
1761330876338309600,6.2213095703125,0.2702503204345703,1.3277091979980469,0.6825226545333862
1761330876357010400,6.240010498046875,0.26077842712402344,1.2058131694793701,0.7495781183242798
1761330876375711500,6.25871142578125,0.0797739028930664,1.2143304347991943,0.2572486996650696
1761330876394412300,6.277412353515625,-0.22785377502441406,1.108062505722046,-0.5288460850715637
1761330876413113000,6.296113037109375,-0.37085914611816406,0.7853655815124512,-1.086927890777588
1761330876431814000,6.31481396484375,-0.32671165466308594,0.35968947410583496,-1.4776365756988525
1761330876450515000,6.333514892578125,0.4762706756591797,0.018661975860595703,-1.4620736837387085
1761330876469215700,6.3522158203125,1.5997238159179688,0.4268631935119629,-1.4501712322235107
1761330876487916500,6.37091650390625,1.9509820938110352,0.7477140426635742,-0.9827073812484741
1761330876506617300,6.389617431640625,2.0500612258911133,0.8345134258270264,-0.22723376750946045
1761330876525318100,6.408318115234375,2.27864933013916,0.2570490837097168,0.14168477058410645
1761330876544019200,6.427019287109375,2.30179500579834,-0.7286865711212158,-0.1720300018787384
1761330876562720000,6.445719970703125,2.1599597930908203,-1.1716587543487549,-0.824566125869751
1761330876581420800,6.4644208984375,1.9237728118896484,-1.3461787700653076,-1.3621164560317993
1761330876600121600,6.48312158203125,1.5581998825073242,-1.5545449256896973,-1.0764899253845215
1761330876618822700,6.50182275390625,0.8888931274414062,-1.561361312866211,-0.14221857488155365
1761330876637523500,6.5205234375,-0.1294727325439453,-1.2730116844177246,0.5153681635856628
1761330876656224300,6.539224365234375,-1.111236572265625,-0.9668574333190918,0.5669922828674316
1761330876674925000,6.557925048828125,-1.6404175758361816,-0.8655774593353271,-0.08687463402748108
1761330876693625900,6.5766259765625,-1.8849239349365234,-0.9051496982574463,-0.8583945035934448
1761330876712327000,6.595326904296875,-1.9243454933166504,-0.8165743350982666,-1.076048493385315
1761330876731027700,6.61402783203125,-1.892991542816162,-0.5941708087921143,-0.9281682372093201
1761330876749728500,6.632728515625,-2.4072976112365723,-0.3616952896118164,-0.6824007630348206
1761330876768429300,6.65142919921875,-3.013456344604492,-0.04754352569580078,-0.6883392930030823
1761330876787130400,6.67013037109375,-2.9614648818969727,0.2137446403503418,-0.7651349902153015
1761330876805831200,6.6888310546875,-2.270786762237549,0.1352705955505371,-0.9260208606719971
1761330876824532000,6.707531982421875,-1.764052391052246,0.04119610786437988,-1.2101582288742065
1761330876843232800,6.726232666015625,-1.3944063186645508,0.21088051795959473,-1.2687411308288574
1761330876861933600,6.74493359375,-0.7211170196533203,0.43746495246887207,-1.0507068634033203
1761330876880634600,6.763634521484375,0.166107177734375,0.46228981018066406,-0.28283023834228516
1761330876899335400,6.78233544921875,0.7652082443237305,0.5911753177642822,-0.1475875973701477
1761330876918036200,6.8010361328125,0.6618185043334961,0.7987964153289795,-0.5621692538261414
1761330876936737000,6.819737060546875,0.12668991088867188,1.146336317062378,-0.7508536577224731
1761330876955437800,6.838437744140625,0.024347305297851562,1.5398306846618652,-0.7223665714263916
1761330876974139000,6.857138916015625,0.3139076232910156,1.4538137912750244,-0.03759521245956421
1761330876992839700,6.875839599609375,1.2362642288208008,0.929450273513794,1.047407627105713
1761330877011540500,6.89454052734375,2.4982528686523438,0.2429502010345459,1.70045804977417
1761330877030241300,6.9132412109375,3.306180953979492,0.2100965976715088,1.0221924781799316
1761330877048942000,6.931942138671875,2.7982559204101562,0.9951515197753906,-0.32684341073036194
1761330877067643000,6.950642822265625,1.8809270858764648,1.477963924407959,-0.7860628962516785
1761330877086344000,6.969343994140625,1.9137258529663086,0.5847790241241455,0.636857271194458
1761330877105044700,6.988044677734375,2.480945587158203,-0.42495107650756836,1.7888610363006592
1761330877123745500,7.00674560546875,2.953641891479492,-1.1898605823516846,2.2706496715545654
1761330877142446300,7.0254462890625,2.668201446533203,-1.6111122369766235,1.9044067859649658
1761330877161147100,7.044147216796875,1.8498706817626953,-1.7079565525054932,1.1503338813781738
1761330877179848000,7.062847900390625,0.6518030166625977,-1.6697325706481934,0.6331475973129272
1761330877198549000,7.081549072265625,-0.9059324264526367,-1.373856544494629,0.36964571475982666
1761330877217249800,7.100249755859375,-2.4319515228271484,-1.1500988006591797,0.2874835133552551
1761330877235950600,7.11895068359375,-3.3826494216918945,-1.0358130931854248,0.34406185150146484
1761330877254651400,7.1376513671875,-3.6074676513671875,-0.9697349071502686,0.5829972624778748
1761330877273352400,7.1563525390625,-2.957155227661133,-0.7868082523345947,0.7968201637268066
1761330877292053200,7.17505322265625,-1.9943580627441406,-0.5388364791870117,0.6602128744125366
1761330877310754000,7.193754150390625,-1.2821846008300781,-0.39154481887817383,0.20967188477516174
1761330877329454800,7.212454833984375,-0.7455024719238281,-0.3047008514404297,-0.03450074791908264
1761330877348155600,7.23115576171875,-0.47136878967285156,-0.30079221725463867,0.17617812752723694
1761330877366856700,7.249856689453125,-0.36983489990234375,-0.24760031700134277,0.4037669599056244
1761330877385557500,7.2685576171875,-0.27651214599609375,-0.17156982421875,0.6694717407226562
1761330877404258300,7.28725830078125,-0.04960441589355469,-0.16066217422485352,0.8026325702667236
1761330877422959000,7.305958984375,0.3374767303466797,-0.0027980804443359375,0.4538804888725281
1761330877441660000,7.324659912109375,0.4093904495239258,0.1538245677947998,-0.05715646594762802
1761330877460361000,7.34336083984375,0.08057498931884766,0.43920016288757324,-0.3395175337791443
1761330877479061800,7.362061767578125,-0.16170787811279297,0.6547036170959473,-0.20549413561820984
1761330877497762600,7.380762451171875,-0.2671957015991211,0.7490036487579346,-0.1107504740357399
1761330877516463400,7.39946337890625,-0.5577421188354492,0.9719805717468262,-0.3430342972278595
1761330877535164200,7.4181640625,-1.1070499420166016,1.4025459289550781,-0.8799458146095276
1761330877553865000,7.436864990234375,-1.1422710418701172,1.7034902572631836,-1.3212027549743652
1761330877572565800,7.455565673828125,-0.7211208343505859,1.1614594459533691,-0.7150846719741821
1761330877591266800,7.474266845703125,0.11279773712158203,0.507044792175293,0.6076253652572632
1761330877609967600,7.492967529296875,1.4657821655273438,0.6539607048034668,1.15566086769104
1761330877628668400,7.51166845703125,2.4049110412597656,0.8044998645782471,0.5696550607681274
1761330877647369200,7.530369140625,2.6608028411865234,0.6401488780975342,-0.12373736500740051
1761330877666070000,7.549070068359375,2.554905891418457,-0.003210783004760742,-0.5510812401771545
1761330877684771000,7.56777099609375,2.3252382278442383,-0.7737390995025635,-0.8310931324958801
1761330877703471900,7.586471923828125,2.033299446105957,-1.2523281574249268,-1.0071375370025635
1761330877722172700,7.605172607421875,1.519251823425293,-1.5229759216308594,-0.7790517210960388
1761330877740873500,7.62387353515625,0.6057500839233398,-1.5708668231964111,-0.33621519804000854
1761330877759574500,7.642574462890625,-0.40392208099365234,-1.206047773361206,-0.17486163973808289
1761330877778275300,7.661275390625,-1.2143816947937012,-0.8753042221069336,-0.10407967865467072
1761330877796976000,7.67997607421875,-1.66571044921875,-0.6493346691131592,-0.06127576529979706
1761330877815677000,7.698677001953125,-1.798811435699463,-0.6149659156799316,-0.05033470690250397
1761330877834377700,7.717377685546875,-1.7875080108642578,-0.845848798751831,-0.11716842651367188
1761330877853078500,7.73607861328125,-1.7030601501464844,-0.7588143348693848,-0.546242356300354
1761330877871779300,7.754779296875,-1.8864398002624512,-0.4863553047180176,-0.9502605199813843
1761330877890480000,7.773480224609375,-2.1763253211975098,-0.17801237106323242,-1.0668644905090332
1761330877909181200,7.79218115234375,-2.2541370391845703,0.10323476791381836,-0.8468679189682007
1761330877927882000,7.810882080078125,-2.041598320007324,0.10049223899841309,-0.4396311640739441
1761330877946582800,7.829582763671875,-1.758133888244629,0.11133837699890137,0.01012563705444336
1761330877965283600,7.84828369140625,-1.462681770324707,0.21770834922790527,0.35405558347702026
1761330877983984600,7.866984619140625,-1.2849745750427246,0.4025735855102539,0.1913565993309021
1761330878002685400,7.885685546875,-0.8361854553222656,0.5849111080169678,-0.4334021210670471
1761330878021386200,7.90438623046875,0.032164573669433594,0.6439540386199951,-0.9066849946975708
1761330878040087000,7.923087158203125,0.7211389541625977,0.7504875659942627,-1.1556135416030884
1761330878058787800,7.941787841796875,1.0748777389526367,0.9601283073425293,-1.1850237846374512
1761330878077488600,7.960488525390625,1.280716896057129,1.133434772491455,-0.898086428642273
1761330878096189400,7.979189453125,1.6637744903564453,1.2376766204833984,-0.5127528309822083
1761330878114890200,7.99789013671875,1.7285518646240234,0.9099526405334473,-0.1558075249195099
1761330878133591300,8.01659130859375,1.8101062774658203,0.4360659122467041,0.32803964614868164
1761330878152292000,8.0352919921875,2.928018569946289,-0.008846521377563477,1.0229886770248413
1761330878170993000,8.053992919921875,3.8678417205810547,0.4217212200164795,0.7464033961296082
1761330878189693700,8.072693603515624,2.831003189086914,0.5072202682495117,-0.12698133289813995
1761330878208394500,8.09139453125,1.6866655349731445,0.1224970817565918,-0.060876935720443726
1761330878227095600,8.110095458984375,1.5511665344238281,-0.28586530685424805,0.38008302450180054
1761330878245796400,8.12879638671875,2.0459070205688477,-0.7189764976501465,0.8188289403915405
1761330878264497200,8.1474970703125,1.8157072067260742,-1.235994815826416,1.2343754768371582
1761330878283198000,8.166197998046876,0.6971225738525391,-1.5199151039123535,1.6047762632369995
1761330878301898800,8.184898681640625,-0.8208112716674805,-1.2587966918945312,1.365527868270874
1761330878320599600,8.203599609375,-1.1601285934448242,-0.8195371627807617,1.0305802822113037
1761330878339300400,8.22230029296875,-0.7741670608520508,-0.5759985446929932,1.028135061264038
1761330878358001400,8.24100146484375,-0.8056116104125977,-0.47417187690734863,0.9919166564941406
1761330878376702200,8.2597021484375,-1.4572439193725586,-0.49561572074890137,0.7557700872421265
1761330878395403000,8.278403076171875,-1.9064817428588867,-0.3942592144012451,0.35848450660705566
1761330878414103800,8.297103759765625,-1.7729854583740234,-0.22470951080322266,-0.03742365539073944
1761330878432804600,8.3158046875,-1.1025962829589844,-0.06954050064086914,-0.22844216227531433
1761330878451505400,8.33450537109375,-0.7148904800415039,-0.16930007934570312,-0.05216066539287567
1761330878470206200,8.353206298828125,-0.6116704940795898,-0.1768944263458252,0.1812305748462677
1761330878488907000,8.371906982421875,-0.8614616394042969,-0.26097655296325684,0.4038029909133911
1761330878507608000,8.390608154296874,-0.8755073547363281,-0.2386481761932373,0.6427172422409058
1761330878526308900,8.409308837890626,-0.6275634765625,-0.1807231903076172,0.8685821294784546
1761330878545009700,8.428009765625,-0.5790977478027344,0.19284510612487793,0.6061944961547852
1761330878563710500,8.44671044921875,-1.0466079711914062,-0.34395647048950195,1.0024235248565674
1761330878582411300,8.465411376953124,-1.029653549194336,-0.3122258186340332,0.8084101676940918
1761330878601112300,8.4841123046875,-0.4719810485839844,0.3680877685546875,0.10740973055362701
1761330878619813000,8.502813232421875,-0.1599292755126953,0.6632943153381348,-0.09115594625473022
1761330878638514000,8.521513916015625,-0.12095165252685547,0.7764315605163574,-0.2478587031364441
1761330878657214700,8.540214599609374,-0.01750659942626953,1.0297634601593018,-0.666444718837738
1761330878675915500,8.55891552734375,0.12733078002929688,1.251929759979248,-0.9711145162582397
1761330878694616300,8.5776162109375,0.3054380416870117,1.3690617084503174,-1.3018786907196045
1761330878713317000,8.596317138671875,0.6085805892944336,1.1172032356262207,-1.0555367469787598
1761330878732018200,8.61501806640625,1.4180231094360352,1.77028226852417,-1.0642576217651367
1761330878750719000,8.633718994140626,1.8728065490722656,1.6324162483215332,-0.40472009778022766
1761330878769419800,8.652419677734375,1.7642183303833008,0.5588750839233398,0.16304609179496765
1761330878788120600,8.67112060546875,1.604161262512207,-0.25658369064331055,0.19222939014434814
1761330878806821400,8.6898212890625,1.7629098892211914,-0.17287683486938477,-0.5360909700393677
1761330878825522200,8.708522216796876,1.760502815246582,-0.40572547912597656,-0.912216067314148
1761330878844223000,8.727222900390625,1.6381196975708008,-0.8306975364685059,-0.7858030796051025
1761330878862923800,8.745923828125,1.4295482635498047,-0.8157494068145752,-0.6012634634971619
1761330878881624800,8.764624755859375,1.0495710372924805,-1.2683484554290771,0.12616419792175293
1761330878900325600,8.78332568359375,0.65338134765625,-1.606144905090332,0.675848662853241
1761330878919026400,8.8020263671875,0.14169788360595703,-1.3881793022155762,0.4765933156013489
1761330878937727200,8.820727294921875,-0.8068065643310547,-1.1985316276550293,0.3446955680847168
1761330878956428000,8.839427978515625,-1.6850109100341797,-1.0280556678771973,0.2916126847267151
1761330878975128800,8.85812890625,-1.877263069152832,-0.8236815929412842,0.17468148469924927
1761330878993829600,8.87682958984375,-1.8729896545410156,-0.8711683750152588,-0.002924874424934387
1761330879012530400,8.895530517578125,-2.0890321731567383,-0.795635461807251,-0.43610069155693054
1761330879031231500,8.9142314453125,-2.261228084564209,-0.6126470565795898,-0.7842327356338501
1761330879049932300,8.932932373046874,-2.031641960144043,-0.3631725311279297,-0.7190985083580017
1761330879068633000,8.951633056640626,-1.6913418769836426,-0.268552303314209,-0.6127931475639343
1761330879087334000,8.970333984375,-1.6484785079956055,-0.2162470817565918,-0.7666527032852173
1761330879106034700,8.98903466796875,-1.8522796630859375,-0.17596006393432617,-1.035220980644226
1761330879124735500,9.007735595703124,-1.8675971031188965,0.0026264190673828125,-1.0339044332504272
1761330879143436300,9.026436279296876,-1.2198243141174316,0.33478355407714844,-0.9898392558097839
1761330879162137300,9.045137451171875,-0.3159923553466797,0.4361305236816406,-0.7021556496620178
1761330879180838100,9.063838134765625,0.38687705993652344,0.6141595840454102,-0.6395502090454102
1761330879199539000,9.0825390625,0.5697021484375,0.8080363273620605,-0.824960470199585
1761330879218239700,9.10123974609375,0.6851644515991211,1.0453600883483887,-1.0490686893463135
1761330879236940500,9.1199404296875,0.8549900054931641,1.3127741813659668,-1.00236177444458
1761330879255641300,9.138641357421875,0.6777591705322266,1.4379091262817383,-0.659460186958313
1761330879274342100,9.157342041015625,0.2577390670776367,1.3343000411987305,-0.02324119210243225
1761330879293043000,9.17604296875,0.422393798828125,1.1553025245666504,0.5904346704483032
1761330879311743700,9.19474365234375,1.8761405944824219,0.9392709732055664,0.7608721256256104
1761330879330444500,9.213444580078125,2.8732757568359375,0.5452594757080078,0.4330912232398987
1761330879349145300,9.232145263671875,2.8558998107910156,-0.1863112449645996,0.41000092029571533
1761330879367846400,9.250846435546874,2.8502140045166016,-0.03885602951049805,0.6640269756317139
1761330879386547200,9.269547119140626,2.8126163482666016,-0.18214654922485352,1.6373021602630615
1761330879405248000,9.288248046875,2.409444808959961,-0.45232629776000977,2.0674705505371094
1761330879423948800,9.30694873046875,1.4563446044921875,-0.8171834945678711,1.6987695693969727
1761330879442649600,9.325649658203124,0.5083799362182617,-0.8663549423217773,0.9314851760864258
1761330879461350400,9.344350341796876,0.09374809265136719,-0.8367362022399902,0.5087084174156189
1761330879480051200,9.36305126953125,-0.12221431732177734,-0.9507579803466797,0.5880696773529053
1761330879498752000,9.381751953125,-0.4120168685913086,-0.9975409507751465,0.9396749138832092
1761330879517453000,9.400453125,-0.7860727310180664,-1.0088658332824707,1.1318360567092896
1761330879536153900,9.41915380859375,-1.232790470123291,-0.9629685878753662,1.0237256288528442
1761330879554854700,9.437854736328125,-1.4451160430908203,-0.7265455722808838,0.5672261714935303
1761330879573555500,9.456555419921875,-1.6002497673034668,-0.6309657096862793,0.23349227011203766
1761330879592256300,9.47525634765625,-1.8448762893676758,-0.6024773120880127,-0.06363257765769958
1761330879610957000,9.49395703125,-1.8724164962768555,-0.4297609329223633,-0.4376559555530548
1761330879629657900,9.512657958984375,-1.3852214813232422,-0.3431215286254883,-0.32598960399627686
1761330879648358700,9.531358642578125,-1.0981807708740234,-0.3056821823120117,0.275091290473938
1761330879667059500,9.5500595703125,-0.9812154769897461,-0.0861215591430664,0.7659329175949097
1761330879685760300,9.56876025390625,-0.8912725448608398,0.03243398666381836,0.8134741187095642
1761330879704461300,9.58746142578125,-0.7095756530761719,0.0871281623840332,0.3778420388698578
1761330879723162000,9.606162109375,-0.5585041046142578,0.12409210205078125,0.04630056023597717
1761330879741863000,9.62486279296875,-0.07006168365478516,0.27947330474853516,-0.02641475200653076
1761330879760563700,9.643563720703124,0.47031497955322266,0.32967424392700195,0.17344674468040466
1761330879779264500,9.662264404296875,0.5539493560791016,0.3776521682739258,0.44057023525238037
1761330879797965300,9.68096533203125,0.5938692092895508,0.48981666564941406,0.6375069618225098
1761330879816666000,9.699666015625,0.4902801513671875,0.6548566818237305,0.482841432094574
1761330879835367000,9.718366943359374,0.17330646514892578,0.885077953338623,0.022797629237174988
1761330879854067700,9.737067626953126,-0.06976509094238281,1.0915756225585938,-0.4460088610649109
1761330879872768500,9.7557685546875,-0.12848663330078125,1.0343527793884277,-0.2429002821445465
1761330879891469300,9.77446923828125,0.2499685287475586,0.7518525123596191,0.30769577622413635
1761330879910170400,9.79317041015625,0.6455240249633789,0.6391611099243164,0.7518277764320374
1761330879928871200,9.81187109375,0.8711576461791992,0.6555123329162598,0.25802987813949585
1761330879947572000,9.830572021484375,0.6048374176025391,0.5550541877746582,-0.3078003227710724
1761330879966272800,9.849272705078125,1.0121822357177734,0.5998539924621582,-0.6691368222236633
1761330879984973600,9.8679736328125,1.8851079940795898,0.14811229705810547,-0.5327624082565308
1761330880003674400,9.88667431640625,2.3108863830566406,-0.4181208610534668,-0.33259281516075134
1761330880022375200,9.905375244140625,2.4269590377807617,-0.6248164176940918,-0.4099918007850647
1761330880041076000,9.924075927734375,2.052811622619629,-0.8119401931762695,-0.1495925486087799
1761330880059776800,9.94277685546875,1.1372976303100586,-0.7926888465881348,-0.12837757170200348
1761330880078477600,9.9614775390625,0.03581428527832031,-0.7680983543395996,-0.3522888422012329
1761330880097178400,9.980178466796875,-0.8710412979125977,-0.7183876037597656,-0.5960679650306702
1761330880115879200,9.998879150390625,-1.511730670928955,-0.8758609294891357,-0.4620632529258728
1761330880134580200,10.017580322265625,-1.847865104675293,-1.0348811149597168,0.03276387229561806
1761330880153281000,10.036281005859376,-1.9915647506713867,-1.0954902172088623,-0.12064173817634583
1761330880171981800,10.05498193359375,-1.8143930435180664,-1.073099136352539,-0.8107903599739075
1761330880190682600,10.0736826171875,-1.7458810806274414,-0.9456958770751953,-1.1520521640777588
1761330880209383400,10.092383544921875,-0.7093000411987305,-0.8626883029937744,-1.1346375942230225
1761330880228084200,10.111084228515624,-1.5565786361694336,-0.00841522216796875,-1.9736822843551636
1761330880246785000,10.129784912109375,-2.8076257705688477,-0.570281982421875,-1.3244377374649048
1761330880265485800,10.14848583984375,-2.673457622528076,-0.41672611236572266,-0.4161103665828705
1761330880284186600,10.1671865234375,-2.12185001373291,-0.4819183349609375,-0.20416155457496643
