time,seconds_elapsed,z,y,x
1761330870185717800,0.0687177734375,-0.2577849328517914,-0.0409279391169548,0.034208428114652634
1761330870204418600,0.08741845703125,-0.27427828311920166,-0.2779434621334076,-0.015271619893610477
1761330870223119400,0.106119384765625,-0.22663083672523499,-0.40317076444625854,0.14233149588108063
1761330870241820400,0.1248203125,-0.20463970303535461,-0.23884813487529755,0.3402516841888428
1761330870260521200,0.143521240234375,-0.24373504519462585,0.09712749719619751,0.4013381600379944
1761330870279222300,0.16222216796875,-0.31642794609069824,0.27488914132118225,0.3194822669029236
1761330870297923000,0.180923095703125,-0.3897317349910736,0.17592905461788177,0.14172062277793884
1761330870316624000,0.199623779296875,-0.38850998878479004,-0.026878049597144127,-0.056199558079242706
1761330870335325000,0.218324951171875,-0.31459537148475647,-0.17837251722812653,-0.20402882993221283
1761330870354026000,0.23702587890625,-0.25045454502105713,-0.22663083672523499,-0.2779434621334076
1761330870372726800,0.255726806640625,-0.2156352698802948,-0.19792018830776215,-0.22418737411499023
1761330870391427600,0.274427490234375,-0.15577052533626556,-0.12705987691879272,-0.03176496922969818
1761330870410128600,0.293128662109375,-0.1282816082239151,-0.0360410213470459,0.1649334877729416
1761330870428829400,0.311829345703125,-0.14294235408306122,0.09529490768909454,0.2211330533027649
1761330870447530500,0.330530517578125,-0.1637117564678192,0.21197007596492767,0.14477495849132538
1761330870466231300,0.349231201171875,-0.1954767256975174,0.2761108875274658,-0.04153880476951599
1761330870484932400,0.367932373046875,-0.16310089826583862,0.2254091054201126,-0.2406807243824005
1761330870503633200,0.386633056640625,-0.024434590712189674,0.11056652665138245,-0.37323838472366333
1761330870522334200,0.405334228515625,0.12950333952903748,0.056199558079242706,-0.4361574649810791
1761330870541035000,0.424034912109375,0.19914191961288452,0.011606430634856224,-0.42821621894836426
1761330870559736000,0.442736083984375,0.17531819641590118,-0.02871064469218254,-0.3634645342826843
1761330870578436900,0.461436767578125,0.1130099818110466,-0.036651886999607086,-0.2730565667152405
1761330870597137700,0.4801376953125,0.06780599057674408,0.002443459117785096,-0.15638138353824615
1761330870615838700,0.498838623046875,0.05558869615197182,0.06597339361906052,-0.001221729558892548
1761330870634539500,0.51753955078125,0.1026252806186676,0.09162971377372742,0.1026252806186676
1761330870653240600,0.536240478515625,0.20952661335468292,0.2559523284435272,0.11117739230394363
1761330870671941400,0.55494140625,0.3023780584335327,0.5277871489524841,0.0769689604640007
1761330870690642400,0.573642333984375,0.34147340059280396,0.6316341757774353,0.08857539296150208
1761330870709343200,0.59234326171875,0.30604326725006104,0.3805687427520752,0.08613193035125732
1761330870728044300,0.611044189453125,0.18814635276794434,-0.04886918142437935,0.07147117704153061
1761330870746745000,0.6297451171875,0.08429934084415436,-0.379347026348114,0.10079269111156464
1761330870765446000,0.64844580078125,0.03298669680953026,-0.2626718580722809,0.06841685622930527
1761330870784147000,0.66714697265625,0.09040798991918564,0.1484401375055313,-0.0360410213470459
1761330870802847700,0.68584765625,0.2657261788845062,0.5222893953323364,-0.10323614627122879
1761330870821548800,0.704548828125,0.5613847374916077,0.6120865345001221,0.01588248461484909
1761330870840249600,0.72324951171875,0.8594867587089539,0.43371400237083435,0.20402882993221283
1761330870858950700,0.74195068359375,1.0195332765579224,0.2577849328517914,0.20708316564559937
1761330870877651500,0.7606513671875,1.0415244102478027,0.13927717506885529,0.07269290834665298
1761330870896352300,0.779352294921875,0.9938769936561584,0.07452550530433655,-0.013439024798572063
1761330870915053300,0.79805322265625,0.9706641435623169,0.07147117704153061,0.017104214057326317
1761330870933754000,0.816754150390625,1.0274745225906372,0.03543015569448471,0.0873536616563797
1761330870952455200,0.835455078125,1.1343759298324585,-0.007941242307424545,0.08491020649671555
1761330870971156000,0.854156005859375,1.2272273302078247,-0.006108647678047419,0.014660755172371864
1761330870989857000,0.87285693359375,1.278540015220642,0.020158538594841957,-0.07391463965177536
1761330871008557800,0.891557861328125,1.2437206506729126,-0.004886918235570192,-0.13622283935546875
1761330871027258600,0.910258544921875,1.1270455121994019,-0.0824667438864708,-0.17653992772102356
1761330871045959700,0.928959716796875,0.9859357476234436,-0.1588248461484909,-0.22846342623233795
1761330871064660500,0.947660400390625,0.8906408548355103,-0.1484401375055313,-0.29443681240081787
1761330871083361500,0.966361572265625,0.8466585874557495,-0.0409279391169548,-0.39828383922576904
1761330871102062300,0.985062255859375,0.9425643682479858,0.44348782300949097,-0.49602219462394714
1761330871120763400,1.003763427734375,0.952949047088623,0.7220421433448792,-0.5766563415527344
1761330871139464200,1.022464111328125,0.6224712133407593,0.7599157691001892,-0.526565432548523
1761330871158165200,1.041165283203125,0.1905898153781891,0.3292561173439026,-0.26450446248054504
1761330871176866000,1.059865966796875,-0.0030543238390237093,-0.29504770040512085,-0.025045456364750862
1761330871195566800,1.07856689453125,0.031154103577136993,-0.5754346251487732,0.05497783049941063
1761330871214268000,1.097267822265625,0.25411975383758545,-0.5797106623649597,0.06047561392188072
1761330871232968700,1.11596875,0.4825831651687622,-0.37751442193984985,-0.007941242307424545
1761330871251669500,1.13466943359375,0.5387827157974243,-0.06841685622930527,-0.22724169492721558
1761330871270370600,1.15337060546875,0.2987128794193268,0.1233946830034256,-0.4312705397605896
1761330871289071600,1.172071533203125,-0.015271619893610477,0.258395791053772,-0.5729911923408508
1761330871307772400,1.1907724609375,-0.22174391150474548,0.11362084746360779,-0.4410443603992462
1761330871326473200,1.20947314453125,-0.277332603931427,-0.21502439677715302,-0.10629047453403473
1761330871345174300,1.22817431640625,-0.25534147024154663,-0.2706131041049957,0.001221729558892548
1761330871363875000,1.246875,-0.3451386094093323,-0.09834922850131989,-0.11178825795650482
1761330871382575900,1.265575927734375,-0.5400044918060303,0.16615521907806396,-0.18814635276794434
1761330871401277000,1.28427685546875,-0.7415898442268372,0.3194822669029236,0.03787361457943916
1761330871419977700,1.302977783203125,-0.9260709881782532,0.2510654330253601,0.3072649836540222
1761330871438678800,1.3216787109375,-1.0054833889007568,-0.09590577334165573,0.4459312856197357
1761330871457379600,1.340379638671875,-0.7550288438796997,0.36163195967674255,0.47036588191986084
1761330871476080600,1.35908056640625,-0.748920202255249,0.6267472505569458,0.3194822669029236
1761330871494781400,1.377781494140625,-0.6542361974716187,0.7012727856636047,0.1185077652335167
1761330871513482200,1.396482177734375,-0.6511818766593933,0.7660244107246399,-0.11178825795650482
1761330871532183300,1.415183349609375,-0.5613847374916077,0.4740310609340668,-0.23823726177215576
1761330871550884000,1.433884033203125,-0.1282816082239151,0.3946186602115631,-0.2003636509180069
1761330871569585200,1.452585205078125,0.44898560643196106,0.4373791813850403,-0.03848448023200035
1761330871588286000,1.471285888671875,0.9028581380844116,0.28038692474365234,0.19364413619041443
1761330871606987000,1.489987060546875,1.0238093137741089,0.36224281787872314,0.3591884970664978
1761330871625687800,1.508687744140625,0.6902772188186646,0.3298669755458832,0.39339691400527954
1761330871644388600,1.527388671875,-0.011606430634856224,0.05925388261675835,0.2565632164478302
1761330871663089700,1.546089599609375,-0.49113526940345764,0.4581485986709595,-0.1178968995809555
1761330871681790500,1.56479052734375,-0.5882627964019775,0.47525280714035034,-0.39400777220726013
1761330871700491300,1.5834912109375,-0.5235111117362976,0.379347026348114,-0.5711585879325867
1761330871719192300,1.6021923828125,-0.3610210716724396,0.2364046722650528,-0.6695078015327454
1761330871737893000,1.62089306640625,-0.2761108875274658,-0.053145237267017365,-0.6890554428100586
1761330871756594000,1.639593994140625,-0.1692095398902893,-0.4404335021972656,-0.6334667801856995
1761330871775295000,1.658294921875,-0.2669478952884674,-1.285259485244751,-0.637742817401886
1761330871793995800,1.676995849609375,-0.3017672002315521,-1.6029092073440552,-0.6236929297447205
1761330871812696800,1.69569677734375,-0.24495677649974823,-0.8222240209579468,-0.5027416944503784
1761330871831397600,1.714397705078125,-0.31581708788871765,0.14782927930355072,-0.34697118401527405
1761330871850098700,1.7330986328125,-0.14049890637397766,0.4269944727420807,-0.2205221801996231
1761330871868799500,1.751799560546875,0.3585776388645172,0.5027416944503784,-0.13683371245861053
1761330871887500500,1.77050048828125,0.7055488228797913,0.36163195967674255,-0.047036588191986084
1761330871906201300,1.789201416015625,0.6145299673080444,0.1233946830034256,-0.06841685622930527
1761330871924902100,1.807902099609375,0.7788525819778442,-0.026878049597144127,0.21991132199764252
1761330871943603200,1.826603271484375,0.740368127822876,0.2260199636220932,0.5088503360748291
1761330871962304000,1.845303955078125,0.7971785664558411,0.37751442193984985,0.5522217750549316
1761330871981005000,1.864005126953125,0.8814778923988342,0.38667741417884827,0.5827649831771851
1761330871999705900,1.882705810546875,0.988990068435669,0.27916520833969116,0.6615665555000305
1761330872018406700,1.90140673828125,0.9773836731910706,0.1178968995809555,0.7531962990760803
1761330872037107700,1.920107666015625,0.6621774435043335,-0.3335321843624115,0.8161153197288513
1761330872055808500,1.93880859375,0.3170388340950012,-0.8466585874557495,0.8301652073860168
1761330872074509300,1.95750927734375,0.13622283935546875,-1.1233803033828735,0.8668171167373657
1761330872093210400,1.97621044921875,0.07330377399921417,-0.924238383769989,0.833219587802887
1761330872111911200,1.9949111328125,0.17653992772102356,-0.8222240209579468,0.6957749724388123
1761330872130612200,2.0136123046875,0.3402516841888428,-0.8552106618881226,0.44348782300949097
1761330872149313000,2.03231298828125,0.45020735263824463,-0.9004147052764893,0.1380554437637329
1761330872168013800,2.051013916015625,0.5009090900421143,-0.7629700899124146,0.003665188793092966
1761330872186715000,2.06971484375,0.5039634704589844,-0.4355465769767761,0.036651886999607086
1761330872205415700,2.088415771484375,0.46486809849739075,-0.15638138353824615,0.05497783049941063
1761330872224116500,2.107116455078125,0.42332929372787476,-0.14477495849132538,0.036651886999607086
1761330872242817500,2.125817626953125,0.38850998878479004,-0.16615521907806396,-0.006108647678047419
1761330872261518300,2.144518310546875,0.42271843552589417,-0.11545344442129135,-0.10506874322891235
1761330872280219400,2.163219482421875,0.5626064538955688,-0.002443459117785096,-0.24251331388950348
1761330872298920200,2.181920166015625,0.7055488228797913,0.11728604137897491,-0.4202749729156494
1761330872317621000,2.20062109375,0.8045089244842529,0.2101374864578247,-0.6273581385612488
1761330872336322000,2.219322021484375,0.841160774230957,0.2822195291519165,-0.7739656567573547
1761330872355022800,2.23802294921875,0.8063415288925171,0.40317076444625854,-0.7629700899124146
1761330872373724000,2.256723876953125,0.6963858604431152,0.6401863098144531,-0.5870410799980164
1761330872392424700,2.2754248046875,0.5803215503692627,0.637742817401886,-0.3384190797805786
1761330872411125500,2.29412548828125,0.3799578845500946,0.3500255048274994,-0.06597339361906052
1761330872429826600,2.31282666015625,0.12156209349632263,0.030543239787220955,0.16065743565559387
1761330872448527400,2.33152734375,-0.040317077189683914,-0.27000224590301514,0.17592905461788177
1761330872467228200,2.350228271484375,-0.0054977829568088055,-0.328645259141922,-0.03543015569448471
1761330872485929200,2.36892919921875,0.018325943499803543,0.06291907280683517,-0.18264856934547424
1761330872504630000,2.387630126953125,-0.13194678723812103,0.12278381735086441,-0.15027274191379547
1761330872523331000,2.4063310546875,-0.28405213356018066,-0.10690133273601532,-0.13133592903614044
1761330872542032000,2.425031982421875,-0.35124725103378296,-0.23029601573944092,-0.17837251722812653
1761330872560732700,2.443732666015625,-0.34208428859710693,-0.007941242307424545,-0.1747073233127594
1761330872579433700,2.462433837890625,-0.34086254239082336,0.38789913058280945,-0.047036588191986084
1761330872598134500,2.481134521484375,-0.3445277214050293,0.6236929297447205,0.1588248461484909
1761330872616835300,2.49983544921875,-0.3750709891319275,0.5528326034545898,0.38301220536231995
1761330872635536400,2.518536376953125,-0.4050033390522003,0.37690356373786926,0.5326740741729736
1761330872654237200,2.5372373046875,-0.3329212963581085,0.31642794609069824,0.5974257588386536
1761330872672938000,2.55593798828125,-0.22296564280986786,0.3072649836540222,0.5760455131530762
1761330872691639000,2.57463916015625,-0.1545487940311432,0.347582072019577,0.47952884435653687
1761330872710339800,2.59333984375,-0.13500112295150757,0.39889469742774963,0.35735589265823364
1761330872729040600,2.61204052734375,-0.20341797173023224,0.3634645342826843,0.24495677649974823
1761330872747741700,2.63074169921875,-0.33047783374786377,0.23884813487529755,0.1496618688106537
1761330872766442500,2.6494423828125,-0.43004879355430603,0.0769689604640007,0.06414080411195755
1761330872785143600,2.6681435546875,-0.4453204274177551,-0.014660755172371864,-0.03787361457943916
1761330872803844400,2.68684423828125,-0.40744680166244507,0.03176496922969818,-0.20402882993221283
1761330872822545200,2.705545166015625,-0.3329212963581085,0.24923282861709595,-0.379347026348114
1761330872841246200,2.72424609375,-0.21868959069252014,0.3995055556297302,-0.4990765154361725
1761330872859947000,2.742947021484375,-0.13622283935546875,0.2620609998703003,-0.5479456782341003
1761330872878648000,2.76164794921875,-0.07635809481143951,0.04214967042207718,-0.4868592321872711
1761330872897348900,2.780348876953125,0.004276053514331579,-0.11484257876873016,-0.3139844834804535
1761330872916049700,2.799049560546875,0.10934479534626007,-0.26450446248054504,-0.08002328872680664
1761330872934750500,2.81775048828125,0.21930044889450073,-0.35613417625427246,0.19242240488529205
1761330872953451500,2.836451416015625,0.26878049969673157,-0.23945899307727814,0.4575377106666565
1761330872972152300,2.85515234375,0.25900667905807495,-0.01282816007733345,0.6340776681900024
1761330872990853400,2.873853271484375,0.2577849328517914,0.0977383628487587,0.6359102129936218
1761330873009554200,2.89255419921875,0.2370155304670334,0.09712749719619751,0.47097674012184143
1761330873028255000,2.9112548828125,0.26389357447624207,0.0256563201546669,0.13561198115348816
1761330873046956000,2.9299560546875,0.31093016266822815,-0.09651663154363632,-0.41905322670936584
1761330873065656800,2.94865673828125,0.3488037884235382,-0.1081230640411377,-0.8967494964599609
1761330873084357600,2.967357666015625,0.40744680166244507,0.15515965223312378,-1.0836740732192993
1761330873103058700,2.98605859375,0.42332929372787476,0.6065887212753296,-0.9645555019378662
1761330873121759700,3.004759765625,0.3543015718460083,0.9645555019378662,-0.6786707639694214
1761330873140460300,3.023460205078125,0.29993459582328796,0.8998038172721863,-0.3543015718460083
1761330873159161300,3.042161376953125,0.29016077518463135,0.5467239618301392,-0.02260199747979641
1761330873177862100,3.060862060546875,0.2626718580722809,0.13927717506885529,0.25961753726005554
1761330873196563000,3.07956298828125,0.29565855860710144,-0.19120067358016968,0.4428769648075104
1761330873215264000,3.098263916015625,0.3481929302215576,-0.35063639283180237,0.5021308660507202
1761330873233964800,3.11696484375,0.3494146466255188,-0.3549124300479889,0.4612029194831848
1761330873252665600,3.13566552734375,0.28466299176216125,-0.3952295184135437,0.33047783374786377
1761330873271366700,3.15436669921875,0.21135921776294708,-0.500298261642456,0.15088360011577606
1761330873290067500,3.1730673828125,0.1545487940311432,-0.49602219462394714,-0.03176496922969818
1761330873308768300,3.191768310546875,0.08918625861406326,-0.3274235129356384,-0.20830489695072174
1761330873327469300,3.21046923828125,0.05742128938436508,-0.19608759880065918,-0.31154105067253113
1761330873346170000,3.229170166015625,0.06108647957444191,-0.24495677649974823,-0.31031930446624756
1761330873364871000,3.247870849609375,0.12767073512077332,-0.3897317349910736,-0.2522871494293213
1761330873383572000,3.266572021484375,0.21319180727005005,-0.49663305282592773,-0.2467893660068512
1761330873402272800,3.285272705078125,0.3170388340950012,-0.462424635887146,-0.2877173125743866
1761330873420973600,3.3039736328125,0.4098902642726898,-0.3597993552684784,-0.2864955961704254
1761330873439674600,3.322674560546875,0.43493571877479553,-0.258395791053772,-0.22968515753746033
1761330873458375400,3.34137548828125,0.42271843552589417,-0.24495677649974823,-0.15027274191379547
1761330873477076200,3.360076171875,0.38667741417884827,-0.18814635276794434,-0.020769402384757996
1761330873495777300,3.37877734375,0.29565855860710144,-0.12400554865598679,0.15577052533626556
1761330873514478000,3.39747802734375,0.3072649836540222,-0.22357651591300964,0.2657261788845062
1761330873533179000,3.416178955078125,0.2412915825843811,-0.42455101013183594,0.24251331388950348
1761330873551880000,3.4348798828125,0.01893680728971958,-0.545502245426178,0.04825831577181816
1761330873570580700,3.453580810546875,-0.14721840620040894,-0.5082395076751709,-0.25473061203956604
1761330873589281500,3.472281494140625,0.025045456364750862,-0.1441640853881836,-0.5076286196708679
1761330873607982600,3.490982666015625,0.21807873249053955,0.36835145950317383,-0.5057960152626038
1761330873626683400,3.509683349609375,0.4575377106666565,0.3536907136440277,-0.2767217457294464
1761330873645384200,3.52838427734375,0.3689623177051544,-0.19608759880065918,-0.06108647957444191
1761330873664085200,3.547085205078125,0.05192350596189499,-0.6212494969367981,0.1386663019657135
1761330873682786000,3.5657861328125,-0.25961753726005554,-0.5729911923408508,0.3249800503253937
1761330873701486800,3.58448681640625,-0.3842339515686035,-0.21930044889450073,0.46608981490135193
1761330873720188000,3.60318798828125,-0.4728093445301056,0.05925388261675835,0.5626064538955688
1761330873738888700,3.621888671875,-0.5088503360748291,0.12644900381565094,0.5381718873977661
1761330873757589500,3.640589599609375,-0.4276053309440613,0.10567960888147354,0.43493571877479553
1761330873776290600,3.65929052734375,-0.29504770040512085,0.16676609218120575,0.36224281787872314
1761330873794991400,3.677991455078125,-0.08368847519159317,0.29565855860710144,0.3689623177051544
1761330873813692200,3.696692138671875,-0.06780599057674408,0.48991355299949646,0.4679224193096161
1761330873832393200,3.715393310546875,-0.33108872175216675,0.6224712133407593,0.5693259835243225
1761330873851094000,3.734093994140625,-0.5980366468429565,0.6145299673080444,0.646905779838562
1761330873869794800,3.752794921875,-0.7874047160148621,0.5271763205528259,0.6847794055938721
1761330873888495900,3.771495849609375,-0.831997811794281,0.23396120965480804,0.6181951761245728
1761330873907196700,3.79019677734375,-0.8240565657615662,0.04214967042207718,0.36163195967674255
1761330873925897500,3.8088974609375,-0.6969966888427734,0.1380554437637329,0.020158538594841957
1761330873944598300,3.827598388671875,-0.5943714380264282,0.25900667905807495,-0.34147340059280396
1761330873963299300,3.84629931640625,-0.5693259835243225,0.35185810923576355,-0.7220421433448792
1761330873982000000,3.865000244140625,-0.4068359434604645,0.5693259835243225,-0.9230166673660278
1761330874000701200,3.883701171875,-0.16737695038318634,0.758083164691925,-0.9425643682479858
1761330874019402000,3.902402099609375,0.1698204129934311,0.7623592615127563,-0.7819069027900696
1761330874038102800,3.921102783203125,0.48075059056282043,0.46059203147888184,-0.42332929372787476
1761330874056803600,3.939803466796875,0.5974257588386536,0.16554436087608337,0.12034036219120026
1761330874075504600,3.958504638671875,0.3035998046398163,0.20952661335468292,0.6010909676551819
1761330874094205400,3.977205322265625,-0.06780599057674408,0.009162971749901772,0.8100066781044006
1761330874112906200,3.99590625,-0.3176496922969818,-0.3799578845500946,0.7250964641571045
1761330874131607300,4.014607177734375,-0.30054548382759094,-0.8765909671783447,0.44470956921577454
1761330874150308000,4.03330810546875,0.04581485688686371,-0.9767727851867676,0.15699224174022675
1761330874169009000,4.0520087890625,0.5571087002754211,-0.5375609993934631,0.04825831577181816
1761330874187710000,4.0707099609375,1.0580178499221802,-0.13561198115348816,-0.034208428114652634
1761330874206410800,4.08941064453125,0.9755510687828064,-0.014660755172371864,-0.1905898153781891
1761330874225111600,4.108111572265625,0.6365211009979248,0.2828303873538971,-0.14294235408306122
1761330874243812600,4.1268125,0.430659681558609,0.6346884965896606,0.14660754799842834
1761330874262513400,4.145513427734375,0.2932150959968567,0.5766563415527344,0.30970844626426697
1761330874281214200,4.164214111328125,0.1698204129934311,0.2370155304670334,0.1905898153781891
1761330874299915300,4.182915283203125,0.07819069176912308,-0.13927717506885529,-0.09712749719619751
1761330874318616000,4.201615966796875,0.10079269111156464,-0.25350889563560486,-0.35246896743774414
1761330874337316900,4.22031689453125,0.18081597983837128,-0.19242240488529205,-0.4838049113750458
1761330874356017700,4.239017578125,0.27000224590301514,-0.2571740746498108,-0.49480047821998596
1761330874374718500,4.257718505859375,0.3170388340950012,-0.34574946761131287,-0.36774060130119324
1761330874393419500,4.27641943359375,0.21135921776294708,-0.35124725103378296,-0.07880155742168427
1761330874412120300,4.295120361328125,0.056810423731803894,-0.3341430425643921,0.1997527778148651
1761330874430821400,4.3138212890625,-0.053145237267017365,-0.44409868121147156,0.29993459582328796
1761330874449522200,4.332522216796875,-0.07574722915887833,-0.5534434914588928,0.27427828311920166
1761330874468223000,4.351222900390625,0.013439024798572063,-0.6731730103492737,0.1331685185432434
1761330874486923800,4.369923828125,0.12461641430854797,-0.6169734001159668,-0.08979712426662445
1761330874505624800,4.388624755859375,0.1802051067352295,-0.4422661066055298,-0.36224281787872314
1761330874524325600,4.40732568359375,0.25045454502105713,-0.3494146466255188,-0.6108647584915161
1761330874543026400,4.4260263671875,0.3500255048274994,-0.2101374864578247,-0.6792816519737244
1761330874561727200,4.444727294921875,0.401949018239975,-0.07330377399921417,-0.5955931544303894
1761330874580428300,4.46342822265625,0.34697118401527405,0.008552107028663158,-0.35796675086021423
1761330874599129000,4.482129150390625,0.19303326308727264,0.09468404203653336,-0.036651886999607086
1761330874617830100,4.500830078125,0.08674279600381851,-0.009773836471140385,0.2932150959968567
1761330874636531000,4.519531005859375,-0.036651886999607086,-0.17348559200763702,0.5045742988586426
1761330874655231700,4.538231689453125,-0.2003636509180069,-0.4196641147136688,0.4831940531730652
1761330874673932500,4.5569326171875,-0.3488037884235382,-0.5986474752426147,0.20952661335468292
1761330874692633600,4.575633544921875,-0.38728827238082886,-0.4740310609340668,-0.17287473380565643
1761330874711334400,4.59433447265625,-0.31154105067253113,0.040317077189683914,-0.47525280714035034
1761330874730035200,4.61303515625,-0.2626718580722809,0.33658650517463684,-0.5888736248016357
1761330874748736000,4.631736083984375,-0.29504770040512085,0.11362084746360779,-0.6389645338058472
1761330874767437000,4.65043701171875,-0.37751442193984985,-0.12034036219120026,-0.5723803043365479
1761330874786137900,4.669137939453125,-0.4318813979625702,-0.0922405794262886,-0.37201663851737976
1761330874804838700,4.687838623046875,-0.47525280714035034,0.1954767256975174,-0.037262752652168274
1761330874823539700,4.706539794921875,-0.5241219997406006,0.1288924664258957,0.17898337543010712
1761330874842240500,4.725240478515625,-0.5534434914588928,-0.14721840620040894,0.22663083672523499
1761330874860941300,4.74394140625,-0.5412262082099915,-0.3194822669029236,0.21502439677715302
1761330874879642000,4.76264208984375,-0.48013970255851746,-0.22968515753746033,0.19303326308727264
1761330874898343200,4.78134326171875,-0.41294458508491516,0.033597562462091446,0.16737695038318634
1761330874917044000,4.8000439453125,-0.39278605580329895,0.1905898153781891,0.10995566099882126
1761330874935744800,4.818744873046875,-0.4367683231830597,0.2162461280822754,0.04153880476951599
1761330874954445600,4.837445556640625,-0.4789179861545563,0.2162461280822754,0.043371398001909256
1761330874973146600,4.856146728515625,-0.4935787320137024,0.18631376326084137,0.11484257876873016
1761330874991847400,4.874847412109375,-0.49541133642196655,0.12644900381565094,0.20769402384757996
1761330875010548200,4.89354833984375,-0.4612029194831848,0.023823726922273636,0.20830489695072174
1761330875029249300,4.912249267578125,-0.42882707715034485,-0.08429934084415436,0.08124501258134842
1761330875047950000,4.9309501953125,-0.3970620930194855,-0.07574722915887833,-0.0769689604640007
1761330875066651000,4.94965087890625,-0.347582072019577,0.04459312930703163,-0.185092031955719
1761330875085352000,4.96835205078125,-0.26450446248054504,0.1484401375055313,-0.23823726177215576
1761330875104052700,4.987052734375,-0.18814635276794434,0.18570289015769958,-0.2162461280822754
1761330875122753500,5.00575341796875,-0.10140355676412582,0.10201441496610641,-0.14172062277793884
1761330875141454300,5.024454345703125,-0.012217295356094837,-0.004276053514331579,-0.0513126403093338
1761330875160155100,5.043155029296875,0.10995566099882126,-0.03909534588456154,0.07269290834665298
1761330875178856200,5.061856201171875,0.2528980076313019,-0.010995565913617611,0.19792018830776215
1761330875197557000,5.080556884765625,0.2889390289783478,0.08552107214927673,0.32009315490722656
1761330875216257800,5.0992578125,0.235793799161911,0.14721840620040894,0.4172206521034241
1761330875234958800,5.117958740234375,0.1948658674955368,0.04153880476951599,0.3347539007663727
1761330875253659600,5.13665966796875,0.2003636509180069,-0.13500112295150757,0.09407317638397217
1761330875272360400,5.1553603515625,0.27855435013771057,-0.25350889563560486,-0.1905898153781891
1761330875291061500,5.1740615234375,0.4056142270565033,0.01282816007733345,-0.3952295184135437
1761330875309762300,5.19276220703125,0.44837474822998047,0.2516762912273407,-0.4013381600379944
1761330875328463000,5.211463134765625,0.3909534513950348,0.164322629570961,-0.268169641494751
1761330875347164000,5.230163818359375,0.30115634202957153,0.015271619893610477,-0.12034036219120026
1761330875365864700,5.24886474609375,0.25534147024154663,0.05253437161445618,0.04459312930703163
1761330875384565800,5.267565673828125,0.3335321843624115,0.19608759880065918,0.25473061203956604
1761330875403266600,5.2862666015625,0.472198486328125,0.14294235408306122,0.370184063911438
1761330875421967400,5.30496728515625,0.5033525824546814,-0.004276053514331579,0.34147340059280396
1761330875440668200,5.323668212890625,0.4459312856197357,-0.004276053514331579,0.22968515753746033
1761330875459369200,5.342369140625,0.4202749729156494,0.03787361457943916,0.11056652665138245
1761330875478070000,5.361070068359375,0.4459312856197357,0.023823726922273636,0.05558869615197182
1761330875496770800,5.379770751953125,0.4355465769767761,-0.10506874322891235,0.07330377399921417
1761330875515471600,5.3984716796875,0.36835145950317383,-0.23945899307727814,0.1081230640411377
1761330875534172700,5.417172607421875,0.2461785078048706,-0.24434591829776764,0.10323614627122879
1761330875552873500,5.43587353515625,0.13439024984836578,-0.1496618688106537,0.07880155742168427
1761330875571574300,5.45457421875,0.056810423731803894,-0.0720820426940918,0.037262752652168274
1761330875590275300,5.473275390625,0.04214967042207718,-0.03848448023200035,-0.023212861269712448
1761330875608976100,5.49197607421875,0.04764745384454727,-0.009162971749901772,-0.07513637095689774
1761330875627677000,5.510677001953125,0.05864302068948746,-0.0409279391169548,-0.14233149588108063
1761330875646377700,5.529377685546875,0.0513126403093338,-0.0818558782339096,-0.17653992772102356
1761330875665078800,5.548078857421875,0.023823726922273636,-0.07574722915887833,-0.14599667489528656
1761330875683779600,5.566779541015625,-0.023212861269712448,-0.050090912729501724,-0.1233946830034256
1761330875702480400,5.58548046875,-0.023212861269712448,-0.06108647957444191,-0.13072505593299866
1761330875721181200,5.60418115234375,0.03298669680953026,0.046425722539424896,-0.06963858753442764
1761330875739882200,5.62288232421875,0.11728604137897491,0.17837251722812653,0.027488915249705315
1761330875758583000,5.6415830078125,0.20463970303535461,0.1594357043504715,0.018325943499803543
1761330875777283800,5.660283935546875,0.22785256803035736,0.09040798991918564,-0.05253437161445618
1761330875795984600,5.678984619140625,0.17715078592300415,0.05742128938436508,-0.185092031955719
1761330875814685400,5.697685546875,0.12156209349632263,-0.06414080411195755,-0.46914416551589966
1761330875833386500,5.716386474609375,0.12705987691879272,-0.14538581669330597,-0.778241753578186
1761330875852087300,5.73508740234375,0.24251331388950348,-0.06597339361906052,-0.8839213252067566
1761330875870788000,5.7537880859375,0.5057960152626038,0.12217295914888382,-0.5510000586509705
1761330875889489000,5.772489013671875,0.6310232877731323,0.10873392969369888,0.08368847519159317
1761330875908190000,5.79118994140625,0.4318813979625702,-0.5540543794631958,0.38301220536231995
1761330875926890800,5.809890869140625,0.10323614627122879,-1.0311397314071655,0.41783151030540466
1761330875945591600,5.828591552734375,-0.2809978127479553,-0.8588758707046509,0.36163195967674255
1761330875964292400,5.847292236328125,-0.6133082509040833,-0.3659079968929291,0.3555232882499695
1761330875982993400,5.865993408203125,-0.7806851863861084,0.009773836471140385,0.35246896743774414
1761330876001694200,5.884694091796875,-0.8081740736961365,0.12767073512077332,0.29443681240081787
1761330876020395000,5.90339501953125,-0.7855721116065979,0.11667517572641373,0.26389357447624207
1761330876039095800,5.922095703125,-0.7202095985412598,0.11972949653863907,0.2706131041049957
1761330876057796900,5.940796875,-0.6646208763122559,0.22724169492721558,0.29993459582328796
1761330876076497700,5.95949755859375,-0.6585122346878052,0.32559093832969666,0.2822195291519165
1761330876095198500,5.978198486328125,-0.6627882719039917,0.3585776388645172,0.2577849328517914
1761330876113899500,5.9968994140625,-0.618806004524231,0.3750709891319275,0.2864955961704254
1761330876132600300,6.015600341796875,-0.6071996092796326,0.27427828311920166,0.2993237376213074
1761330876151301000,6.034301025390625,-0.7177661061286926,0.13988803327083588,0.31093016266822815
1761330876170002000,6.053001953125,-0.9077450633049011,-0.001832594396546483,0.31093016266822815
1761330876188702700,6.07170263671875,-1.0158681869506836,-0.0922405794262886,0.3585776388645172
1761330876207403500,6.090403564453125,-0.9798271059989929,-0.16065743565559387,0.36224281787872314
1761330876226104600,6.1091044921875,-0.8350521326065063,-0.17104214429855347,0.25411975383758545
1761330876244805400,6.127805419921875,-0.6554579138755798,-0.17043127119541168,0.06841685622930527
1761330876263506200,6.146506103515625,-0.5051851868629456,-0.08429934084415436,-0.10995566099882126
1761330876282207200,6.165207275390625,-0.3946186602115631,0.05436696484684944,-0.17531819641590118
1761330876300908000,6.183907958984375,-0.34086254239082336,0.1380554437637329,-0.056810423731803894
1761330876319608800,6.20260888671875,-0.31031930446624756,0.09590577334165573,0.13683371245861053
1761330876338309600,6.2213095703125,-0.3231474757194519,-0.04764745384454727,0.3335321843624115
1761330876357010400,6.240010498046875,-0.41355544328689575,-0.2571740746498108,0.516791582107544
1761330876375711500,6.25871142578125,-0.5442805290222168,-0.2828303873538971,0.6194168925285339
1761330876394412300,6.277412353515625,-0.5864301919937134,-0.1893680840730667,0.5332849621772766
1761330876413113000,6.296113037109375,-0.49968740344047546,-0.11178825795650482,0.2968802750110626
1761330876431814000,6.31481396484375,-0.2822195291519165,-0.10384701192378998,-0.021991131827235222
1761330876450515000,6.333514892578125,0.007330377586185932,0.013439024798572063,-0.2828303873538971
1761330876469215700,6.3522158203125,0.31520622968673706,0.3035998046398163,-0.34208428859710693
1761330876487916500,6.37091650390625,0.4728093445301056,0.48441576957702637,-0.29993459582328796
1761330876506617300,6.389617431640625,0.3530798554420471,0.33719736337661743,-0.2809978127479553
1761330876525318100,6.408318115234375,0.10567960888147354,0.10384701192378998,-0.19181154668331146
1761330876544019200,6.427019287109375,-0.05436696484684944,-0.13439024984836578,-0.043371398001909256
1761330876562720000,6.445719970703125,-0.05436696484684944,-0.3591884970664978,0.06291907280683517
1761330876581420800,6.4644208984375,0.11178825795650482,-0.5192350745201111,0.13500112295150757
1761330876600121600,6.48312158203125,0.3133736252784729,-0.5174024701118469,0.15821397304534912
1761330876618822700,6.50182275390625,0.3946186602115631,-0.2577849328517914,0.16798780858516693
1761330876637523500,6.5205234375,0.3274235129356384,0.011606430634856224,0.1130099818110466
1761330876656224300,6.539224365234375,0.1802051067352295,0.16004657745361328,0.004276053514331579
1761330876674925000,6.557925048828125,0.10384701192378998,0.13439024984836578,-0.05497783049941063
1761330876693625900,6.5766259765625,0.1954767256975174,0.03298669680953026,-0.020769402384757996
1761330876712327000,6.595326904296875,0.3433060050010681,-0.01588248461484909,0.08613193035125732
1761330876731027700,6.61402783203125,0.4367683231830597,0.010384701192378998,0.26389357447624207
1761330876749728500,6.632728515625,0.4379900395870209,-0.06597339361906052,0.37751442193984985
1761330876768429300,6.65142919921875,0.37751442193984985,-0.29016077518463135,0.29565855860710144
1761330876787130400,6.67013037109375,0.3176496922969818,-0.4361574649810791,0.12461641430854797
1761330876805831200,6.6888310546875,0.29504770040512085,-0.37323838472366333,0.004886918235570192
1761330876824532000,6.707531982421875,0.35613417625427246,-0.1844811588525772,-0.07269290834665298
1761330876843232800,6.726232666015625,0.4428769648075104,-0.040317077189683914,-0.14233149588108063
1761330876861933600,6.74493359375,0.4923570156097412,-0.04276053607463837,-0.15027274191379547
1761330876880634600,6.763634521484375,0.43982264399528503,-0.029932374134659767,-0.04825831577181816
1761330876899335400,6.78233544921875,0.3347539007663727,0.06902772188186646,0.15821397304534912
1761330876918036200,6.8010361328125,0.29504770040512085,0.043982263654470444,0.3280344009399414
1761330876936737000,6.819737060546875,0.2614501118659973,-0.19914191961288452,0.29626941680908203
1761330876955437800,6.838437744140625,0.2254091054201126,-0.5516108870506287,0.08857539296150208
1761330876974139000,6.857138916015625,0.17531819641590118,-0.8197805285453796,-0.26939135789871216
1761330876992839700,6.875839599609375,0.08124501258134842,-0.6615665555000305,-0.6017017960548401
1761330877011540500,6.89454052734375,-0.02626718580722809,-0.09896009415388107,-0.6646208763122559
1761330877030241300,6.9132412109375,-0.06047561392188072,0.5021308660507202,-0.3689623177051544
1761330877048942000,6.931942138671875,-0.07024945318698883,0.3915643095970154,-0.04153880476951599
1761330877067643000,6.950642822265625,0.002443459117785096,-0.39828383922576904,-0.1081230640411377
1761330877086344000,6.969343994140625,0.01282816007733345,-0.5247328281402588,-0.2309068888425827
1761330877105044700,6.988044677734375,-0.03481929376721382,-0.3249800503253937,-0.33108872175216675
1761330877123745500,7.00674560546875,-0.10506874322891235,0.020769402384757996,-0.25534147024154663
1761330877142446300,7.0254462890625,-0.14599667489528656,0.2577849328517914,-0.04520399495959282
1761330877161147100,7.044147216796875,-0.10873392969369888,0.36285367608070374,0.26389357447624207
1761330877179848000,7.062847900390625,-0.06230820715427399,0.3854556679725647,0.5864301919937134
1761330877198549000,7.081549072265625,-0.0360410213470459,0.35124725103378296,0.7470875978469849
1761330877217249800,7.100249755859375,-0.033597562462091446,0.3225366175174713,0.6921098232269287
1761330877235950600,7.11895068359375,-0.046425722539424896,0.24801109731197357,0.4508182108402252
1761330877254651400,7.1376513671875,-0.09101885557174683,0.17287473380565643,0.13683371245861053
1761330877273352400,7.1563525390625,-0.19730933010578156,0.20280711352825165,-0.07574722915887833
1761330877292053200,7.17505322265625,-0.32131487131118774,0.25411975383758545,-0.15699224174022675
1761330877310754000,7.193754150390625,-0.3610210716724396,0.24801109731197357,-0.14172062277793884
1761330877329454800,7.212454833984375,-0.3066541254520416,0.1130099818110466,-0.08796452730894089
1761330877348155600,7.23115576171875,-0.2577849328517914,-0.05864302068948746,-0.040317077189683914
1761330877366856700,7.249856689453125,-0.23762640357017517,-0.20830489695072174,-0.06963858753442764
1761330877385557500,7.2685576171875,-0.22968515753746033,-0.1899789422750473,-0.16249002516269684
1761330877404258300,7.28725830078125,-0.2315177470445633,0.021380268037319183,-0.23396120965480804
1761330877422959000,7.305958984375,-0.185092031955719,0.2938259541988373,-0.19181154668331146
1761330877441660000,7.324659912109375,-0.07574722915887833,0.40378162264823914,-0.03909534588456154
1761330877460361000,7.34336083984375,0.04520399495959282,0.33169957995414734,0.12522727251052856
1761330877479061800,7.362061767578125,0.11606431007385254,0.29138249158859253,0.2730565667152405
1761330877497762600,7.380762451171875,0.11972949653863907,0.3659079968929291,0.43493571877479553
1761330877516463400,7.39946337890625,0.0977383628487587,0.4153880476951599,0.5424479246139526
1761330877535164200,7.4181640625,0.0977383628487587,0.25900667905807495,0.5082395076751709
1761330877553865000,7.436864990234375,0.1533270627260208,-0.16004657745361328,0.3292561173439026
1761330877572565800,7.455565673828125,0.2614501118659973,-0.583375871181488,0.024434590712189674
1761330877591266800,7.474266845703125,0.29565855860710144,-0.47525280714035034,-0.3341430425643921
1761330877609967600,7.492967529296875,0.21868959069252014,0.09468404203653336,-0.5198459029197693
1761330877628668400,7.51166845703125,0.15821397304534912,0.4612029194831848,-0.5290089249610901
1761330877647369200,7.530369140625,0.11056652665138245,0.43432486057281494,-0.4105011224746704
1761330877666070000,7.549070068359375,0.07391463965177536,0.0720820426940918,-0.2571740746498108
1761330877684771000,7.56777099609375,0.09162971377372742,-0.3066541254520416,-0.09468404203653336
1761330877703471900,7.586471923828125,0.1899789422750473,-0.5528326034545898,0.040317077189683914
1761330877722172700,7.605172607421875,0.3231474757194519,-0.4764745235443115,0.12400554865598679
1761330877740873500,7.62387353515625,0.4007273018360138,-0.12217295914888382,0.12034036219120026
1761330877759574500,7.642574462890625,0.40805765986442566,0.2406807243824005,0.05497783049941063
1761330877778275300,7.661275390625,0.3481929302215576,0.29138249158859253,-0.02626718580722809
1761330877796976000,7.67997607421875,0.2315177470445633,0.10018182545900345,-0.10751219838857651
1761330877815677000,7.698677001953125,0.13439024984836578,-0.046425722539424896,-0.1594357043504715
1761330877834377700,7.717377685546875,0.09590577334165573,0,-0.17592905461788177
1761330877853078500,7.73607861328125,0.1380554437637329,0.1288924664258957,-0.12644900381565094
1761330877871779300,7.754779296875,0.2315177470445633,0.1747073233127594,-0.05803215503692627
1761330877890480000,7.773480224609375,0.30543237924575806,-0.04459312930703163,-0.05558869615197182
1761330877909181200,7.79218115234375,0.3280344009399414,-0.3536907136440277,-0.1130099818110466
1761330877927882000,7.810882080078125,0.3090975880622864,-0.5051851868629456,-0.18753549456596375
1761330877946582800,7.829582763671875,0.2620609998703003,-0.4465421438217163,-0.2669478952884674
1761330877965283600,7.84828369140625,0.16187916696071625,-0.20830489695072174,-0.33658650517463684
1761330877983984600,7.866984619140625,0.05192350596189499,0.007330377586185932,-0.4166097939014435
1761330878002685400,7.885685546875,0.015271619893610477,0.11178825795650482,-0.4679224193096161
1761330878021386200,7.90438623046875,0.059864748269319534,0.17348559200763702,-0.39400777220726013
1761330878040087000,7.923087158203125,0.10873392969369888,0.17898337543010712,-0.18570289015769958
1761330878058787800,7.941787841796875,0.13133592903614044,0.047036588191986084,0.023212861269712448
1761330878077488600,7.960488525390625,0.08368847519159317,-0.14721840620040894,0.1649334877729416
1761330878096189400,7.979189453125,-0.018325943499803543,-0.2767217457294464,0.2315177470445633
1761330878114890200,7.99789013671875,-0.09529490768909454,-0.3640754222869873,0.13561198115348816
1761330878133591300,8.01659130859375,-0.11239911615848541,-0.3072649836540222,-0.1337793916463852
1761330878152292000,8.0352919921875,-0.1594357043504715,0.1490510106086731,-0.24801109731197357
1761330878170993000,8.053992919921875,-0.24984370172023773,0.7269290685653687,-0.000610864779446274
1761330878189693700,8.072693603515624,-0.24251331388950348,0.47525280714035034,0.09407317638397217
1761330878208394500,8.09139453125,-0.14233149588108063,-0.08002328872680664,0.015271619893610477
1761330878227095600,8.110095458984375,-0.05436696484684944,-0.48075059056282043,-0.06902772188186646
1761330878245796400,8.12879638671875,0.004276053514331579,-0.4056142270565033,0.06902772188186646
1761330878264497200,8.1474970703125,0.027488915249705315,-0.0054977829568088055,0.318871408700943
1761330878283198000,8.166197998046876,-0.004886918235570192,0.40378162264823914,0.4318813979625702
1761330878301898800,8.184898681640625,-0.03298669680953026,0.49113526940345764,0.24923282861709595
1761330878320599600,8.203599609375,-0.056810423731803894,0.22724169492721558,0.01282816007733345
1761330878339300400,8.22230029296875,-0.12522727251052856,0.0824667438864708,0.000610864779446274
1761330878358001400,8.24100146484375,-0.2364046722650528,0.11606431007385254,0.0769689604640007
1761330878376702200,8.2597021484375,-0.30604326725006104,0.2510654330253601,0.08613193035125732
1761330878395403000,8.278403076171875,-0.3292561173439026,0.3481929302215576,0.012217295356094837
1761330878414103800,8.297103759765625,-0.32009315490722656,0.3384190797805786,-0.04153880476951599
1761330878432804600,8.3158046875,-0.2987128794193268,0.2406807243824005,-0.000610864779446274
1761330878451505400,8.33450537109375,-0.27427828311920166,0.18631376326084137,0.11606431007385254
1761330878470206200,8.353206298828125,-0.268169641494751,0.17287473380565643,0.23335035145282745
1761330878488907000,8.371906982421875,-0.28588470816612244,0.021991131827235222,0.2516762912273407
1761330878507608000,8.390608154296874,-0.31093016266822815,-0.10079269111156464,0.22418737411499023
1761330878526308900,8.409308837890626,-0.36835145950317383,-0.13194678723812103,0.18631376326084137
1761330878545009700,8.428009765625,-0.33536475896835327,-0.04153880476951599,0.18692462146282196
1761330878563710500,8.44671044921875,-0.3652971386909485,0.12400554865598679,0.14721840620040894
1761330878582411300,8.465411376953124,-0.40866854786872864,0.0873536616563797,0.07391463965177536
1761330878601112300,8.4841123046875,-0.34636032581329346,-0.004276053514331579,0.0665842592716217
1761330878619813000,8.502813232421875,-0.2669478952884674,0.1594357043504715,0.1539379209280014
1761330878638514000,8.521513916015625,-0.1899789422750473,0.4214966893196106,0.2675587832927704
1761330878657214700,8.540214599609374,-0.07941242307424545,0.5137372612953186,0.36774060130119324
1761330878675915500,8.55891552734375,0,0.26939135789871216,0.4172206521034241
1761330878694616300,8.5776162109375,0.0922405794262886,-0.2211330533027649,0.4428769648075104
1761330878713317000,8.596317138671875,0.19181154668331146,-0.7275399565696716,0.37629270553588867
1761330878732018200,8.61501806640625,0.33231043815612793,-0.5253437161445618,0.347582072019577
1761330878750719000,8.633718994140626,0.42394015192985535,-0.04214967042207718,0.3500255048274994
1761330878769419800,8.652419677734375,0.3585776388645172,0.0720820426940918,0.3433060050010681
1761330878788120600,8.67112060546875,0.24740023910999298,-0.046425722539424896,0.35185810923576355
1761330878806821400,8.6898212890625,0.1905898153781891,-0.08552107214927673,0.40866854786872864
1761330878825522200,8.708522216796876,0.2156352698802948,-0.20708316564559937,0.4422661066055298
1761330878844223000,8.727222900390625,0.23762640357017517,-0.4972439408302307,0.3836230933666229
1761330878862923800,8.745923828125,0.328645259141922,-0.6774490475654602,0.26450446248054504
1761330878881624800,8.764624755859375,0.3842339515686035,-0.6359102129936218,0.11972949653863907
1761330878900325600,8.78332568359375,0.3634645342826843,-0.2608392536640167,0.06780599057674408
1761330878919026400,8.8020263671875,0.3909534513950348,0.15577052533626556,0.0922405794262886
1761330878937727200,8.820727294921875,0.4111120104789734,0.3640754222869873,0.08063415437936783
1761330878956428000,8.839427978515625,0.3402516841888428,0.21685700118541718,-0.01954767294228077
1761330878975128800,8.85812890625,0.24923282861709595,-0.023212861269712448,-0.10140355676412582
1761330878993829600,8.87682958984375,0.1948658674955368,0.02626718580722809,-0.07330377399921417
1761330879012530400,8.895530517578125,0.2156352698802948,0.17898337543010712,-0.021991131827235222
1761330879031231500,8.9142314453125,0.28954991698265076,0.1386663019657135,-0.006719512399286032
1761330879049932300,8.932932373046874,0.32070401310920715,-0.018325943499803543,-0.008552107028663158
1761330879068633000,8.951633056640626,0.2761108875274658,-0.1490510106086731,0.018325943499803543
1761330879087334000,8.970333984375,0.24373504519462585,-0.20280711352825165,0.034208428114652634
1761330879106034700,8.98903466796875,0.277332603931427,-0.1899789422750473,-0.030543239787220955
1761330879124735500,9.007735595703124,0.3335321843624115,-0.18875721096992493,-0.17653992772102356
1761330879143436300,9.026436279296876,0.36651885509490967,-0.1331685185432434,-0.2626718580722809
1761330879162137300,9.045137451171875,0.35796675086021423,0.007941242307424545,-0.22724169492721558
1761330879180838100,9.063838134765625,0.3695732057094574,0.2260199636220932,-0.07330377399921417
1761330879199539000,9.0825390625,0.41416633129119873,0.35674503445625305,0.13927717506885529
1761330879218239700,9.10123974609375,0.4618137776851654,0.2419024556875229,0.32681265473365784
1761330879236940500,9.1199404296875,0.48013970255851746,0.13072505593299866,0.4740310609340668
1761330879255641300,9.138641357421875,0.41294458508491516,0.02871064469218254,0.5009090900421143
1761330879274342100,9.157342041015625,0.27550002932548523,-0.13988803327083588,0.33108872175216675
1761330879293043000,9.17604296875,0.07819069176912308,-0.4361574649810791,-0.03909534588456154
1761330879311743700,9.19474365234375,-0.0818558782339096,-0.2864955961704254,-0.29077163338661194
1761330879330444500,9.213444580078125,-0.07024945318698883,0.3249800503253937,-0.2467893660068512
1761330879349145300,9.232145263671875,0.04825831577181816,0.42271843552589417,-0.23029601573944092
1761330879367846400,9.250846435546874,0.1954767256975174,0.2657261788845062,-0.18753549456596375
1761330879386547200,9.269547119140626,0.1331685185432434,0.12705987691879272,-0.1282816082239151
1761330879405248000,9.288248046875,-0.030543239787220955,0.3451386094093323,0.0054977829568088055
1761330879423948800,9.30694873046875,-0.143553227186203,0.5613847374916077,0.10140355676412582
1761330879442649600,9.325649658203124,-0.16737695038318634,0.5076286196708679,0.0977383628487587
1761330879461350400,9.344350341796876,-0.1490510106086731,0.2816086709499359,0.06963858753442764
1761330879480051200,9.36305126953125,-0.1380554437637329,0.08979712426662445,0.046425722539424896
1761330879498752000,9.381751953125,-0.1545487940311432,0.10934479534626007,0.036651886999607086
1761330879517453000,9.400453125,-0.185092031955719,0.3139844834804535,0.043371398001909256
1761330879536153900,9.41915380859375,-0.23396120965480804,0.4373791813850403,0.021380268037319183
1761330879554854700,9.437854736328125,-0.28954991698265076,0.41233372688293457,-0.002443459117785096
1761330879573555500,9.456555419921875,-0.33597561717033386,0.31520622968673706,-0.017104214057326317
1761330879592256300,9.47525634765625,-0.3170388340950012,0.2370155304670334,-0.053756099194288254
1761330879610957000,9.49395703125,-0.2101374864578247,0.09468404203653336,-0.12278381735086441
1761330879629657900,9.512657958984375,-0.07513637095689774,-0.009162971749901772,-0.12644900381565094
1761330879648358700,9.531358642578125,-0.014660755172371864,-0.0256563201546669,-0.08613193035125732
1761330879667059500,9.5500595703125,-0.05192350596189499,-0.03787361457943916,-0.05497783049941063
1761330879685760300,9.56876025390625,-0.15149445831775665,-0.12705987691879272,-0.06047561392188072
1761330879704461300,9.58746142578125,-0.16310089826583862,-0.16798780858516693,-0.06414080411195755
1761330879723162000,9.606162109375,-0.08002328872680664,-0.20891575515270233,-0.0818558782339096
1761330879741863000,9.62486279296875,0.043982263654470444,-0.27366742491722107,-0.0665842592716217
1761330879760563700,9.643563720703124,0.13255766034126282,-0.28405213356018066,0.033597562462091446
1761330879779264500,9.662264404296875,0.2009745091199875,-0.19792018830776215,0.16310089826583862
1761330879797965300,9.68096533203125,0.23457208275794983,0.02626718580722809,0.2974911332130432
1761330879816666000,9.699666015625,0.25534147024154663,0.3121519088745117,0.45509424805641174
1761330879835367000,9.718366943359374,0.2632827162742615,0.30604326725006104,0.5351175665855408
1761330879854067700,9.737067626953126,0.28527384996414185,0.0513126403093338,0.5229002237319946
1761330879872768500,9.7557685546875,0.29443681240081787,-0.31093016266822815,0.3707949221134186
1761330879891469300,9.77446923828125,0.2919933497905731,-0.5296197533607483,0.16126830875873566
1761330879910170400,9.79317041015625,0.2724456787109375,-0.16859868168830872,0.009773836471140385
1761330879928871200,9.81187109375,0.3121519088745117,0.3854556679725647,-0.10445787757635117
1761330879947572000,9.830572021484375,0.3799578845500946,0.6695078015327454,-0.287106454372406
1761330879966272800,9.849272705078125,0.4013381600379944,0.5222893953323364,-0.4422661066055298
1761330879984973600,9.8679736328125,0.33047783374786377,0.27855435013771057,-0.3805687427520752
1761330880003674400,9.88667431640625,0.2657261788845062,-0.009162971749901772,-0.17592905461788177
1761330880022375200,9.905375244140625,0.2706131041049957,-0.2724456787109375,0.09285144507884979
1761330880041076000,9.924075927734375,0.20708316564559937,-0.2968802750110626,0.3433060050010681
1761330880059776800,9.94277685546875,0.10384701192378998,-0.20158538222312927,0.4324922561645508
1761330880078477600,9.9614775390625,0.039706211537122726,-0.06963858753442764,0.3591884970664978
1761330880097178400,9.980178466796875,0.002443459117785096,0.023823726922273636,0.18753549456596375
1761330880115879200,9.998879150390625,-0.01649334840476513,0.08613193035125732,-0.010995565913617611
1761330880134580200,10.017580322265625,-0.04581485688686371,0.2675587832927704,-0.17287473380565643
1761330880153281000,10.036281005859376,-0.043982263654470444,0.5784889459609985,-0.277332603931427
1761330880171981800,10.05498193359375,0.05925388261675835,0.7159335017204285,-0.28405213356018066
1761330880190682600,10.0736826171875,0.235793799161911,0.7470875978469849,-0.18325942754745483
1761330880209383400,10.092383544921875,0.23396120965480804,0.33658650517463684,0.38728827238082886
1761330880228084200,10.111084228515624,0.21502439677715302,-0.8686497211456299,0.6224712133407593
1761330880246785000,10.129784912109375,0.24434591829776764,-1.3573415279388428,0.3249800503253937
1761330880265485800,10.14848583984375,0.18753549456596375,-0.8985821008682251,-0.1233946830034256
1761330880284186600,10.1671865234375,0.0873536616563797,0.004276053514331579,-0.4575377106666565
