time,seconds_elapsed,z,y,x
1761333878080963800,0.0589638671875,0.01659393310546875,-0.03172135353088379,0.019705645740032196
1761333878099664100,0.0776640625,0.0901327133178711,-0.03901100158691406,-0.0045142993330955505
1761333878118364200,0.0963642578125,0.1890115737915039,-0.07872819900512695,-0.015130437910556793
1761333878137064400,0.115064453125,0.3332805633544922,0.01708245277404785,0.014218762516975403
1761333878155764500,0.133764404296875,0.4021120071411133,0.09695792198181152,0.11666509509086609
1761333878174464800,0.15246484375,0.38712501525878906,0.08188724517822266,0.08293813467025757
1761333878193164800,0.171164794921875,0.43404293060302734,0.06538152694702148,0.0956939160823822
1761333878211865000,0.189864990234375,0.23346424102783203,0.041979312896728516,-0.007285848259925842
1761333878230565000,0.208565185546875,-0.14554977416992188,0.027225255966186523,-0.043285712599754333
1761333878249265400,0.227265380859375,-0.2978353500366211,-0.0032372474670410156,-0.07678953558206558
1761333878267965700,0.245965576171875,-0.1900806427001953,-0.0022478103637695312,-0.006404206156730652
1761333878286665700,0.264665771484375,-0.02594280242919922,-0.019412517547607422,0.05704018473625183
1761333878305366000,0.283365966796875,-0.01906299591064453,-0.011592864990234375,0.10015828907489777
1761333878324066000,0.302066162109375,0.1517782211303711,0.018111467361450195,0.12401057779788971
1761333878342766300,0.320766357421875,0.2746105194091797,0.007761955261230469,0.1194964200258255
1761333878361466400,0.33946630859375,0.22307205200195312,0.03531384468078613,0.08302506804466248
1761333878380166700,0.358166748046875,0.036891937255859375,0.013156652450561523,-0.028004303574562073
1761333878398866700,0.37686669921875,-0.0841360092163086,-0.03070831298828125,-0.10031749308109283
1761333878417567000,0.39556689453125,-0.08367061614990234,-0.06295323371887207,-0.10357388108968735
1761333878436267300,0.414267333984375,-0.01337432861328125,-0.06058979034423828,-0.04881715774536133
1761333878454967300,0.43296728515625,-0.0755462646484375,-0.03586602210998535,-0.10998643934726715
1761333878473667600,0.45166748046875,0.022432327270507812,0.03367328643798828,-0.06068384647369385
1761333878492367600,0.47036767578125,0.21937942504882812,-0.004488229751586914,0.12868253886699677
1761333878511068000,0.48906787109375,0.1752157211303711,0.05204463005065918,0.11053018271923065
1761333878529768000,0.507767822265625,0.052642822265625,0.014475584030151367,0.08794109523296356
1761333878548468200,0.52646826171875,-0.018088340759277344,0.034708499908447266,0.1398928314447403
1761333878567168500,0.54516845703125,-0.0919179916381836,0.07996368408203125,0.17136111855506897
1761333878585868500,0.56386865234375,-0.17763900756835938,0.09753918647766113,-0.014807835221290588
1761333878604568800,0.58256884765625,-0.09551429748535156,0.020417451858520508,-0.14727100729942322
1761333878623268900,0.601268798828125,0.08960628509521484,-0.07651662826538086,-0.0654834657907486
1761333878641969200,0.61996923828125,0.17183494567871094,-0.06654095649719238,-0.06382616609334946
1761333878660669200,0.638669189453125,-0.018350601196289062,-0.02604985237121582,-0.05807188153266907
1761333878679369500,0.657369384765625,-0.16467952728271484,0.0581514835357666,-0.10373067110776901
1761333878698069500,0.676069580078125,-0.02498912811279297,0.0655660629272461,-0.032188087701797485
1761333878716769800,0.694769775390625,0.21021366119384766,0.06413626670837402,0.05143870413303375
1761333878735470000,0.713469970703125,0.20486164093017578,0.04629230499267578,0.033676132559776306
1761333878754170000,0.732170166015625,0.15425491333007812,0.06911301612854004,0.02626781165599823
1761333878772870400,0.750870361328125,0.10418224334716797,0.08408689498901367,0.08398588001728058
1761333878791570400,0.7695703125,0.09363079071044922,0.052382469177246094,0.10136905312538147
1761333878810270700,0.788270751953125,0.08593463897705078,0.014773845672607422,0.09717424213886261
1761333878828970800,0.806970703125,0.030118942260742188,-0.10146546363830566,0.10730654001235962
1761333878847671000,0.825671142578125,-0.11441230773925781,-0.09479522705078125,0.0955001562833786
1761333878866371000,0.84437109375,-0.21497821807861328,-0.12861847877502441,0.04241311550140381
1761333878885071400,0.8630712890625,-0.15476131439208984,-0.06670045852661133,-0.05082176625728607
1761333878903771600,0.881771728515625,-0.0895223617553711,-0.023633718490600586,-0.1437619924545288
1761333878922471700,0.9004716796875,-0.058490753173828125,0.03734326362609863,-0.17468486726284027
1761333878941172000,0.919171875,0.005593299865722656,0.03381037712097168,-0.11891432106494904
1761333878959872000,0.9378720703125,-0.03215599060058594,0.10741782188415527,-0.10305078327655792
1761333878978572300,0.956572265625,-0.12242317199707031,0.1484987735748291,-0.17793890833854675
1761333878997272300,0.975272216796875,0.036495208740234375,0.17536282539367676,-0.020583242177963257
1761333879015972600,0.99397265625,0.19533729553222656,0.10513043403625488,0.03275205194950104
1761333879034673000,1.0126728515625,0.06070137023925781,0.05127239227294922,0.024195104837417603
1761333879053373000,1.031373046875,-0.19999408721923828,-0.01372528076171875,0.08926086127758026
1761333879072073200,1.0500732421875,-0.23412132263183594,-0.051724910736083984,0.1295374482870102
1761333879090773200,1.068773193359375,-0.12140464782714844,-0.07301521301269531,0.13482289016246796
1761333879109473500,1.0874736328125,0.038738250732421875,-0.0710592269897461,0.11459419131278992
1761333879128173600,1.106173583984375,0.23070144653320312,-0.05999350547790527,0.1721792072057724
1761333879146873900,1.124873779296875,0.17729949951171875,-0.029976844787597656,0.10662674903869629
1761333879165574000,1.143573974609375,0.051433563232421875,-0.08444666862487793,0.05321165919303894
1761333879184274200,1.162274169921875,-0.11472702026367188,-0.047368764877319336,-0.019974693655967712
1761333879202974500,1.180974365234375,-0.12415504455566406,0.01432037353515625,-0.07782308012247086
1761333879221674500,1.199674560546875,0.013178825378417969,0.07274007797241211,-0.11937174946069717
1761333879240374800,1.218374755859375,0.23226261138916016,-0.018072843551635742,-0.04665529727935791
1761333879259074800,1.23707470703125,0.32135009765625,-0.018727779388427734,0.004520028829574585
1761333879277775000,1.255775146484375,0.2273092269897461,-0.020270347595214844,0.03285504877567291
1761333879296475100,1.27447509765625,-0.011531829833984375,0.03360104560852051,-0.012664005160331726
1761333879315175400,1.293175537109375,-0.1051778793334961,0.09391093254089355,-0.03948202729225159
1761333879333875700,1.311875732421875,-0.07474994659423828,0.12227344512939453,-0.003266751766204834
1761333879352575700,1.33057568359375,-0.0015316009521484375,0.11234474182128906,0.0658179372549057
1761333879371276000,1.349276123046875,0.07892417907714844,0.07076859474182129,0.10688045620918274
1761333879389976000,1.36797607421875,0.08493423461914062,0.04710030555725098,0.11503128707408905
1761333879408676400,1.38667626953125,0.011557579040527344,0.04940652847290039,0.06839513778686523
1761333879427376400,1.40537646484375,-0.01958465576171875,-0.04292869567871094,0.004937365651130676
1761333879446076700,1.42407666015625,-0.02657604217529297,-0.15117764472961426,-0.07821270823478699
1761333879464776700,1.442776611328125,-0.018718719482421875,-0.10642886161804199,-0.09111426770687103
1761333879483477000,1.46147705078125,0.05891895294189453,-0.1510941982269287,0.015383213758468628
1761333879502177300,1.48017724609375,0.019931793212890625,-0.05265355110168457,0.07712410390377045
1761333879520877300,1.498877197265625,-0.0877828598022461,-0.011184930801391602,0.13068385422229767
1761333879539577600,1.51757763671875,-0.19753265380859375,0.007560014724731445,0.13887321949005127
1761333879558277600,1.536277587890625,-0.24018478393554688,0.0006616115570068359,-0.019116774201393127
1761333879576978000,1.55497802734375,-0.11557674407958984,-0.2376573085784912,-0.18618907034397125
1761333879595678000,1.573677978515625,0.21449565887451172,-0.250659704208374,-0.3583645224571228
1761333879614378200,1.592378173828125,0.4652519226074219,-0.22869586944580078,-0.2006676346063614
1761333879633078500,1.61107861328125,0.41353416442871094,-0.15927958488464355,-0.0600685179233551
1761333879651778600,1.629778564453125,0.015604972839355469,-0.0199277400970459,0.05996103584766388
1761333879670478800,1.648478759765625,-0.5115537643432617,0.1027834415435791,0.062362030148506165
1761333879689179000,1.667178955078125,-0.6178483963012695,0.10854244232177734,0.06931935250759125
1761333879707879200,1.685879150390625,-0.3362255096435547,0.13533806800842285,0.137797012925148
1761333879726579200,1.7045791015625,-0.0022029876708984375,0.18129992485046387,0.23308749496936798
1761333879745279500,1.723279541015625,0.16042613983154297,0.20679664611816406,0.20970898866653442
1761333879763979800,1.741979736328125,0.21077823638916016,0.14328837394714355,0.11970727145671844
1761333879782679800,1.7606796875,0.3124856948852539,0.05466961860656738,0.065614715218544
1761333879801380000,1.779380126953125,0.27626895904541016,-0.04054665565490723,0.07131433486938477
1761333879820080000,1.798080078125,0.026009559631347656,-0.011679410934448242,0.005987823009490967
1761333879838780400,1.816780517578125,-0.15545177459716797,0.034626007080078125,-0.08494406938552856
1761333879857480400,1.83548046875,-0.1570110321044922,0.012923717498779297,-0.16606363654136658
1761333879876180700,1.8541806640625,-0.0011310577392578125,-0.04935503005981445,-0.07891501486301422
1761333879894881000,1.872881103515625,0.09128284454345703,-0.033132314682006836,-0.05811633914709091
1761333879913581000,1.8915810546875,0.1465320587158203,-0.05991673469543457,-0.12665754556655884
1761333879932281300,1.91028125,0.11451911926269531,-0.07846188545227051,-0.16432146728038788
1761333879950981400,1.9289814453125,-0.004351615905761719,-0.09083938598632812,-0.06841947883367538
1761333879969681700,1.947681640625,-0.030671119689941406,-0.08820223808288574,0.02640688419342041
1761333879988381700,1.966381591796875,-0.07804107666015625,0.03465461730957031,0.04437287151813507
1761333880007082000,1.98508203125,-0.1801891326904297,0.058852195739746094,0.11298196017742157
1761333880025782300,2.0037822265625,-0.23536014556884766,0.0980374813079834,0.1523011475801468
1761333880044482300,2.022482421875,-0.039399147033691406,0.08853292465209961,0.14971080422401428
1761333880063182600,2.0411826171875,0.10270977020263672,0.03845715522766113,0.0634731650352478
1761333880081882600,2.059882568359375,0.10332584381103516,0.024109363555908203,0.01650388538837433
1761333880100583000,2.0785830078125,0.02087879180908203,-0.047046661376953125,0.04971432685852051
1761333880119283000,2.097282958984375,-0.023718833923339844,-0.07350587844848633,-0.041975803673267365
1761333880137983200,2.115983154296875,-0.048793792724609375,-0.056281328201293945,-0.08325427770614624
1761333880156683500,2.13468359375,-0.050136566162109375,-0.012720584869384766,-0.11299584805965424
1761333880175383600,2.153383544921875,-0.06389808654785156,-0.012346982955932617,-0.20182323455810547
1761333880194083800,2.172083740234375,0.07230186462402344,0.00927734375,-0.22516870498657227
1761333880212783900,2.190783935546875,0.2250661849975586,0.00988149642944336,-0.10564517229795456
1761333880231484200,2.209484130859375,0.22919940948486328,0.025278806686401367,-0.026618242263793945
1761333880250184200,2.22818408203125,0.03131675720214844,0.02063584327697754,-0.043476104736328125
1761333880268884500,2.246884521484375,-0.2488727569580078,-0.021099328994750977,-0.1140555590391159
1761333880287584800,2.265584716796875,-0.27880191802978516,-0.07394838333129883,-0.13512028753757477
1761333880306284800,2.284284912109375,-0.22768688201904297,-0.08930134773254395,-0.14383584260940552
1761333880324985000,2.302985107421875,-0.020009994506835938,-0.04090142250061035,-0.06533679366111755
1761333880343685000,2.32168505859375,0.28835296630859375,-0.0348362922668457,0.18529734015464783
1761333880362385400,2.340385498046875,0.26088619232177734,0.023344039916992188,0.1598818451166153
1761333880381085400,2.35908544921875,0.0347442626953125,0.10620260238647461,0.10244543850421906
1761333880399785700,2.37778564453125,-0.022644996643066406,0.0752403736114502,0.08436280488967896
1761333880418486000,2.396486083984375,0.1921529769897461,0.01662731170654297,0.09197074174880981
1761333880437186000,2.41518603515625,0.14818477630615234,-0.01232457160949707,0.08290690183639526
1761333880455886300,2.43388623046875,-0.1708993911743164,0.07051777839660645,0.03981661796569824
1761333880474586400,2.45258642578125,-0.3123903274536133,0.07253694534301758,-0.005620121955871582
1761333880493286700,2.47128662109375,-0.11175727844238281,0.002781391143798828,-0.09305886179208755
1761333880511987000,2.489987060546875,0.11432647705078125,-0.06711125373840332,-0.00917692482471466
1761333880530687000,2.50868701171875,0.2311239242553711,-0.06078219413757324,0.06274095177650452
1761333880549387300,2.52738720703125,0.06734561920166016,-0.0016541481018066406,-0.025237813591957092
1761333880568087300,2.54608740234375,-0.15548038482666016,0.07333683967590332,-0.10479818284511566
1761333880586787600,2.56478759765625,-0.12715721130371094,0.04598569869995117,-0.04603254795074463
1761333880605487600,2.583487548828125,0.023366928100585938,-0.0284731388092041,-0.011960625648498535
1761333880624188000,2.60218798828125,0.10787200927734375,-0.03602004051208496,0.0027469098567962646
1761333880642888200,2.62088818359375,0.1573953628540039,-0.05545473098754883,0.05337771773338318
1761333880661588200,2.639588134765625,-0.013559341430664062,-0.0031538009643554688,0.05209094285964966
1761333880680288500,2.65828857421875,-0.1652202606201172,0.006290435791015625,-0.014147251844406128
1761333880698988500,2.676988525390625,-0.01597118377685547,-0.08582544326782227,-0.059757694602012634
1761333880717688800,2.695688720703125,0.21462154388427734,-0.12680697441101074,-0.06343075633049011
1761333880736388900,2.714388916015625,0.2845726013183594,-0.16441655158996582,-0.10285304486751556
1761333880755089200,2.733089111328125,0.1784372329711914,-0.12610077857971191,-0.10407007485628128
1761333880773789400,2.75178955078125,-0.0754690170288086,-0.1109619140625,-0.08444169163703918
1761333880792489500,2.770489501953125,-0.30550575256347656,-0.05397629737854004,-0.05836954712867737
1761333880811189800,2.789189697265625,-0.22084999084472656,0.02607250213623047,0.009567946195602417
1761333880829889800,2.807889892578125,-0.02818775177001953,0.10444378852844238,0.1197640597820282
1761333880848590000,2.826590087890625,0.06767082214355469,0.16626381874084473,0.1650824248790741
1761333880867290000,2.8452900390625,0.0582275390625,0.1182258129119873,0.20373263955116272
1761333880885990400,2.863990478515625,0.005054473876953125,0.07071304321289062,0.11941955983638763
1761333880904690700,2.882690673828125,-0.06761932373046875,0.04910993576049805,0.11838889122009277
1761333880923391000,2.901390869140625,0.032642364501953125,0.03834223747253418,0.0861339271068573
1761333880942091000,2.920091064453125,0.10414505004882812,0.01689457893371582,0.13380569219589233
1761333880960791300,2.938791259765625,0.08768367767333984,0.017881155014038086,0.1797795593738556
1761333880979491300,2.9574912109375,-0.11690616607666016,0.08619475364685059,0.10697099566459656
1761333880998191600,2.976191650390625,-0.13766098022460938,0.06026649475097656,0.03745660185813904
1761333881016891600,2.9948916015625,-0.0727548599243164,0.007667064666748047,-0.012996971607208252
1761333881035592000,3.013592041015625,0.04329681396484375,-0.05754685401916504,0.05772712826728821
1761333881054292200,3.032292236328125,0.1109628677368164,-0.06447720527648926,-0.006864860653877258
1761333881072992300,3.0509921875,-0.018413543701171875,0.0036466121673583984,-0.08755028247833252
1761333881091692500,3.069692626953125,-0.033379554748535156,-0.004486560821533203,-0.1731806844472885
1761333881110392600,3.088392578125,0.06605815887451172,-0.0016636848449707031,-0.12417268753051758
1761333881129092900,3.1070927734375,0.1714324951171875,-0.023798227310180664,-0.11062370240688324
1761333881147793200,3.125793212890625,0.20442485809326172,-0.017955780029296875,-0.17073674499988556
1761333881166493200,3.1444931640625,0.09532451629638672,-0.005210161209106445,-0.1527741253376007
1761333881185193500,3.163193359375,-0.11041641235351562,0.03501415252685547,-0.10391887277364731
1761333881203893500,3.1818935546875,-0.15737342834472656,0.025208711624145508,0.013135358691215515
1761333881222593800,3.20059375,-0.1315631866455078,0.0032629966735839844,0.08018465340137482
1761333881241293800,3.2192939453125,-0.06778144836425781,-0.011539220809936523,0.13351650536060333
1761333881259994000,3.237994140625,-0.07175636291503906,0.020738601684570312,0.13142618536949158
1761333881278694400,3.2566943359375,-0.07617568969726562,-0.0003447532653808594,0.1187295913696289
1761333881297394400,3.27539453125,-0.08302593231201172,-0.00406956672668457,0.05000133812427521
1761333881316094700,3.2940947265625,-0.04283332824707031,-0.018095970153808594,0.07639087736606598
1761333881334794800,3.312794677734375,-0.036891937255859375,0.02203989028930664,0.023400798439979553
1761333881353495000,3.3314951171875,-0.0732717514038086,0.03526663780212402,-0.056819722056388855
1761333881372195300,3.3501953125,-0.09216785430908203,0.03557252883911133,-0.1100204661488533
1761333881390895400,3.368895263671875,0.010557174682617188,-0.03476905822753906,-0.14832548797130585
1761333881409595600,3.387595703125,0.1145181655883789,-0.12173724174499512,-0.13289840519428253
1761333881428295700,3.406295654296875,0.08452415466308594,-0.157179594039917,-0.23079191148281097
1761333881446996000,3.424995849609375,-0.03746986389160156,-0.12714600563049316,-0.27078020572662354
1761333881465696000,3.443696044921875,-0.06657218933105469,-0.06160306930541992,-0.15564465522766113
1761333881484396300,3.462396240234375,0.04438018798828125,-0.014957904815673828,-0.07444538921117783
1761333881503096600,3.4810966796875,0.20299720764160156,0.08809971809387207,0.038888826966285706
1761333881521796600,3.499796630859375,0.15267658233642578,0.11400961875915527,0.1941886693239212
1761333881540497000,3.518496826171875,-0.032629966735839844,0.17427563667297363,0.2520924210548401
1761333881559197000,3.537197021484375,-0.10477447509765625,0.15991544723510742,0.25878435373306274
1761333881577897200,3.555897216796875,-0.05615997314453125,0.14461398124694824,0.271762877702713
1761333881596597500,3.574597412109375,-0.10997867584228516,0.08617711067199707,0.20795989036560059
1761333881615297500,3.593297607421875,-0.1811065673828125,0.11214566230773926,0.062379807233810425
1761333881633997800,3.611997802734375,-0.06614303588867188,0.07148194313049316,0.083031564950943
1761333881652697900,3.63069775390625,0.12911128997802734,0.0567631721496582,0.08565691113471985
1761333881671398100,3.649398193359375,0.21326732635498047,-0.012565135955810547,-0.03732505440711975
1761333881690098400,3.668098388671875,0.10031509399414062,0.004636287689208984,-0.12664341926574707
1761333881708798500,3.686798583984375,-0.12092876434326172,0.0051920413970947266,-0.11505675315856934
1761333881727498800,3.705498779296875,-0.16065502166748047,0.016486644744873047,-0.17355580627918243
1761333881746198800,3.72419873046875,0.040283203125,-0.04209733009338379,-0.16906553506851196
1761333881764899000,3.742899169921875,0.2144155502319336,-0.08414101600646973,-0.08651719242334366
1761333881783599000,3.76159912109375,0.19940567016601562,-0.0700068473815918,0.008010223507881165
1761333881802299400,3.78029931640625,-0.04712390899658203,0.030600547790527344,-0.06421585381031036
1761333881820999700,3.798999755859375,-0.2904529571533203,0.06541776657104492,-0.1034059152007103
1761333881839699700,3.81769970703125,-0.3384847640991211,0.07613801956176758,-0.05894725024700165
1761333881858400000,3.83639990234375,-0.12290382385253906,0.00415349006652832,-0.04133063554763794
1761333881877100000,3.85510009765625,0.09897804260253906,-0.07237720489501953,-0.030455827713012695
1761333881895800300,3.87380029296875,0.26581573486328125,-0.08357381820678711,0.03641824424266815
1761333881914501000,3.892501220703125,0.18568897247314453,-0.06813240051269531,0.05912990868091583
1761333881933200600,3.91120068359375,0.16966629028320312,-0.04163193702697754,0.07890486717224121
1761333881951901000,3.92990087890625,0.19901657104492188,-0.021348237991333008,0.15802478790283203
1761333881970601000,3.94860107421875,0.13962364196777344,-0.022266387939453125,0.20679695904254913
1761333881989301200,3.96730126953125,-0.12758636474609375,-0.026848554611206055,0.12436111271381378
1761333882008001500,3.98600146484375,-0.3514366149902344,-0.018469810485839844,-0.003020554780960083
1761333882026701600,4.00470166015625,-0.36647510528564453,-0.027525901794433594,0.0027384012937545776
1761333882045401900,4.02340185546875,-0.14519023895263672,-0.09032893180847168,0.06724405288696289
1761333882064102000,4.042101806640625,-0.13028526306152344,-0.03540158271789551,0.06537884473800659
1761333882082802200,4.06080224609375,-0.178863525390625,0.04032182693481445,0.028723761439323425
1761333882101502500,4.07950244140625,-0.06415271759033203,-0.02200150489807129,-0.02558574080467224
1761333882120202800,4.09820263671875,0.11146259307861328,-0.0155029296875,-0.12905968725681305
1761333882138902800,4.11690283203125,0.29827880859375,-0.007786989212036133,-0.1776062548160553
1761333882157602800,4.135602783203125,0.3664674758911133,0.03841972351074219,-0.2338220477104187
1761333882176303000,4.15430322265625,0.23126697540283203,0.0047261714935302734,-0.18983012437820435
1761333882195003400,4.17300341796875,-0.12456512451171875,0.05576658248901367,-0.228450745344162
1761333882213703700,4.19170361328125,-0.3764915466308594,0.06286215782165527,-0.20166948437690735
1761333882232403700,4.21040380859375,-0.22043514251708984,0.024007320404052734,-0.12873214483261108
1761333882251104000,4.22910400390625,0.03436088562011719,-0.030124187469482422,-0.005493655800819397
1761333882269804000,4.247803955078125,0.15060138702392578,-0.025940418243408203,0.15157932043075562
1761333882288504300,4.26650439453125,0.09624195098876953,0.0063054561614990234,0.2709755301475525
1761333882307204400,4.285204345703125,0.06994056701660156,0.016041040420532227,0.1659173220396042
1761333882325904600,4.303904541015625,-0.004741668701171875,0.014151334762573242,0.18441012501716614
1761333882344605000,4.32260498046875,-0.1055917739868164,0.06092977523803711,0.18867900967597961
1761333882363305000,4.341304931640625,-0.19478416442871094,0.07079243659973145,0.05813905596733093
1761333882382005200,4.360005126953125,0.010225296020507812,-0.002585887908935547,-0.11127692461013794
1761333882400705300,4.378705322265625,0.2646350860595703,-0.08582687377929688,-0.10257863998413086
1761333882419405600,4.397405517578125,0.3466053009033203,-0.06165623664855957,-0.01235911250114441
1761333882438105900,4.41610595703125,0.058990478515625,-0.02403855323791504,-0.06429244577884674
1761333882456806000,4.434805908203125,-0.253631591796875,0.026241779327392578,-0.15207962691783905
1761333882475506200,4.453506103515625,-0.18418312072753906,0.02757716178894043,-0.055866435170173645
1761333882494206500,4.47220654296875,-0.04583454132080078,0.01732611656188965,-0.04948967695236206
1761333882512906500,4.490906494140625,0.0646371841430664,0.013420581817626953,-0.08736127614974976
1761333882531606800,4.509606689453125,0.1607837677001953,-0.0014615058898925781,-0.03130020201206207
1761333882550306800,4.528306884765625,0.26155948638916016,-0.009430885314941406,-0.00022515654563903809
1761333882569007000,4.547007080078125,0.15682315826416016,0.008359432220458984,-0.09234370291233063
1761333882587707400,4.565707275390625,-0.05343437194824219,-0.07656478881835938,-0.05450242757797241
1761333882606407400,4.584407470703125,-0.0771932601928711,-0.11232304573059082,0.0058058202266693115
1761333882625107700,4.603107666015625,0.04574012756347656,-0.10223126411437988,0.10674621164798737
1761333882643807700,4.621807861328125,0.024725914001464844,-0.02663731575012207,0.12452153861522675
1761333882662508000,4.640508056640625,-0.030704498291015625,-0.019044876098632812,0.22867798805236816
1761333882681208300,4.659208251953125,-0.135498046875,-0.013875722885131836,0.19284328818321228
1761333882699908400,4.677908447265625,-0.30861949920654297,-0.06034040451049805,0.0624215304851532
1761333882718608600,4.696608642578125,-0.3816652297973633,-0.06972146034240723,-0.05611099302768707
1761333882737308700,4.71530859375,-0.2511320114135742,-0.08189272880554199,-0.09430895745754242
1761333882756009000,4.734009033203125,-0.0037059783935546875,-0.047730445861816406,-0.16547520458698273
1761333882774709200,4.752709228515625,0.19845867156982422,-0.008671998977661133,-0.09100905060768127
1761333882793409300,4.7714091796875,0.2482137680053711,0.09352564811706543,0.007407829165458679
1761333882812109600,4.790109619140625,0.11589527130126953,0.17525100708007812,0.07864195108413696
1761333882830809600,4.8088095703125,0.07914257049560547,0.19024872779846191,0.06949163973331451
1761333882849510000,4.827510009765625,0.07158660888671875,0.1622486114501953,0.12693846225738525
1761333882868210200,4.846210205078125,0.05951118469238281,0.1340935230255127,0.1597207933664322
1761333882886910500,4.864910400390625,0.018201828002929688,0.08516764640808105,0.1139267086982727
1761333882905610500,4.883610595703125,0.020008087158203125,0.04415297508239746,0.058189213275909424
1761333882924310500,4.902310546875,-0.0037670135498046875,-0.021444082260131836,-0.005036383867263794
1761333882943010800,4.9210107421875,-0.05709648132324219,-0.0663764476776123,0.004648223519325256
1761333882961711000,4.939711181640625,-0.11382770538330078,-0.02702784538269043,0.009379640221595764
1761333882980411400,4.958411376953125,-0.1993732452392578,-0.01932978630065918,-0.054411932826042175
1761333882999111400,4.977111328125,-0.1310100555419922,-0.0070765018463134766,-0.18085357546806335
1761333883017811700,4.995811767578125,0.1675863265991211,-0.0984504222869873,-0.0863957405090332
1761333883036511700,5.01451171875,0.45061779022216797,-0.14456701278686523,0.028787672519683838
1761333883055212000,5.0332119140625,0.33634090423583984,-0.07655501365661621,-0.005454301834106445
1761333883073912300,5.051912353515625,-0.09672355651855469,0.011587858200073242,-0.12004248052835464
1761333883092612400,5.0706123046875,-0.37162303924560547,0.11132550239562988,-0.10504364967346191
1761333883111312600,5.089312744140625,-0.1724681854248047,0.07387351989746094,-0.05325041711330414
1761333883130012700,5.1080126953125,0.17059993743896484,-0.0028672218322753906,0.017878711223602295
1761333883148713000,5.126712890625,0.1911773681640625,0.01387643814086914,0.02246236801147461
1761333883167413200,5.145413330078125,-0.011984825134277344,0.00693058967590332,0.024045318365097046
1761333883186113300,5.16411328125,-0.07273387908935547,0.014897823333740234,-0.015600278973579407
1761333883204813600,5.1828134765625,0.056267738342285156,-0.03253746032714844,0.05142335593700409
1761333883223513600,5.201513671875,0.0225830078125,-0.03625178337097168,0.03980205953121185
1761333883242214000,5.2202138671875,-0.1126708984375,-0.031288862228393555,-0.03190836310386658
1761333883260914200,5.2389140625,-0.09696292877197266,-0.016158342361450195,-0.0898100733757019
1761333883279614200,5.2576142578125,0.09320926666259766,-0.08922815322875977,-0.000402599573135376
1761333883298314500,5.276314453125,0.18366241455078125,-0.0732421875,0.025113657116889954
1761333883317014800,5.295014892578125,-0.017495155334472656,-0.03706097602844238,-0.09488210082054138
1761333883335715000,5.313715087890625,-0.23066234588623047,0.0250091552734375,-0.16896283626556396
1761333883354415000,5.3324150390625,-0.17850685119628906,0.04925036430358887,-0.10407347232103348
1761333883373115100,5.351115234375,-0.09168148040771484,0.0658102035522461,-0.00870831310749054
1761333883391815400,5.3698154296875,-0.11987018585205078,0.08054804801940918,0.006905868649482727
1761333883410515700,5.388515625,-0.1032867431640625,0.0858297348022461,0.04139170050621033
1761333883429215700,5.4072158203125,0.06913375854492188,0.05984020233154297,-0.006461814045906067
1761333883447916000,5.425916015625,0.238494873046875,0.009465456008911133,0.047265470027923584
1761333883466616300,5.4446162109375,0.2003774642944336,0.026179790496826172,0.0482880175113678
1761333883485316400,5.46331640625,0.09449195861816406,-0.013713359832763672,0.07390940189361572
1761333883504016600,5.4820166015625,0.0742788314819336,-0.011836051940917969,0.07117128372192383
1761333883522716700,5.500716552734375,-0.050347328186035156,-0.06392025947570801,0.05240871012210846
1761333883541417000,5.5194169921875,-0.23035430908203125,-0.02957773208618164,0.020061641931533813
1761333883560117200,5.5381171875,-0.17371273040771484,-0.03704118728637695,0.014132201671600342
1761333883578817500,5.556817626953125,0.07365036010742188,-0.08222794532775879,0.01437707245349884
1761333883597517600,5.575517578125,0.09199905395507812,0.03669023513793945,0.06417731940746307
1761333883616217900,5.5942177734375,-0.03227996826171875,0.030789852142333984,0.08910147845745087
1761333883634918000,5.61291796875,0.010328292846679688,0.0019211769104003906,0.026947185397148132
1761333883653618200,5.6316181640625,0.14015483856201172,-0.0759587287902832,-0.005671396851539612
1761333883672318500,5.650318359375,0.18260765075683594,-0.05813455581665039,0.07958333194255829
1761333883691018500,5.6690185546875,0.1199331283569336,-0.018948793411254883,-0.001432180404663086
1761333883709718800,5.68771875,-0.07343864440917969,0.022472858428955078,-0.03984810411930084
1761333883728418800,5.706418701171875,-0.28449058532714844,0.06421542167663574,-0.05842702090740204
1761333883747119000,5.725119140625,-0.2631196975708008,0.04195594787597656,-0.07640977203845978
1761333883765819400,5.7438193359375,-0.015714645385742188,-0.04158449172973633,-0.04544813930988312
1761333883784519400,5.76251953125,0.1909341812133789,-0.036887407302856445,0.004135057330131531
1761333883803219700,5.7812197265625,0.12168121337890625,-0.029759883880615234,0.003288671374320984
1761333883821920000,5.799919921875,0.036838531494140625,0.004550457000732422,0.0008131861686706543
1761333883840620000,5.8186201171875,0.054894447326660156,-0.03574824333190918,-0.04642005264759064
1761333883859320300,5.8373203125,-0.0138702392578125,-0.03331565856933594,-0.06613138318061829
1761333883878020400,5.856020263671875,-0.059424400329589844,-0.03752732276916504,-0.0328039675951004
1761333883896720600,5.874720703125,0.045861244201660156,0.005818605422973633,0.018925845623016357
1761333883915421000,5.8934208984375,0.17043781280517578,-0.06562280654907227,0.0700559914112091
1761333883934121000,5.912120849609375,0.016641616821289062,-0.012089967727661133,-0.005132928490638733
1761333883952821200,5.9308212890625,-0.19495010375976562,0.03068232536315918,-0.09325703978538513
1761333883971521500,5.949521484375,-0.1274709701538086,0.0055196285247802734,-0.10955456644296646
1761333883990221600,5.9682216796875,0.07215499877929688,-0.05592942237854004,-0.09641583263874054
1761333884008921900,5.986921875,0.1797161102294922,-0.10476922988891602,-0.01592591404914856
1761333884027622000,6.005621826171875,0.10960960388183594,-0.06049776077270508,0.03749339282512665
1761333884046322200,6.024322265625,-0.07458972930908203,0.001062154769897461,0.09320156276226044
1761333884065022500,6.0430224609375,-0.16689014434814453,0.011025190353393555,0.13038615882396698
1761333884083722800,6.06172265625,-0.19919681549072266,0.03839874267578125,0.12042073905467987
1761333884102422800,6.0804228515625,-0.177978515625,-0.022609233856201172,0.04361499845981598
1761333884121123000,6.099123046875,-0.07181835174560547,-0.1145932674407959,-0.265333354473114
1761333884139823400,6.1178232421875,0.12896251678466797,-0.09747862815856934,-0.3444308042526245
1761333884158523400,6.1365234375,0.26378440856933594,-0.01972651481628418,-0.2114044725894928
1761333884177223700,6.1552236328125,0.17169570922851562,0.09719133377075195,-0.0860988050699234
1761333884195923700,6.173923828125,0.10209369659423828,0.15271878242492676,0.09046949446201324
1761333884214624000,6.1926240234375,0.060482025146484375,0.15755414962768555,0.19482561945915222
1761333884233324300,6.21132421875,-0.0771341323852539,0.17042136192321777,0.2389792501926422
1761333884252024300,6.2300244140625,-0.17792415618896484,0.1679847240447998,0.30214929580688477
1761333884270724600,6.248724609375,-0.19512367248535156,0.12089967727661133,0.2900879979133606
1761333884289425000,6.2674248046875,-0.0026292800903320312,-0.018670320510864258,0.17156744003295898
1761333884308125000,6.286125,0.24663448333740234,-0.10282039642333984,0.05666235089302063
1761333884326825200,6.3048251953125,0.2513427734375,-0.15397381782531738,0.014995872974395752
1761333884345525200,6.323525146484375,0.04956245422363281,-0.13394975662231445,-0.07766373455524445
1761333884364225500,6.3422255859375,-0.21335887908935547,-0.05652260780334473,-0.17200052738189697
1761333884382925800,6.36092578125,-0.3030967712402344,-0.03891873359680176,-0.16727733612060547
1761333884401625900,6.3796259765625,-0.2774057388305664,0.020032882690429688,-0.13202252984046936
1761333884420326100,6.398326171875,-0.06900215148925781,-0.014376401901245117,-0.06063497066497803
1761333884439026400,6.4170263671875,0.19292449951171875,0.0012650489807128906,0.03162121772766113
1761333884457726500,6.4357265625,0.31685829162597656,0.06588006019592285,0.16616541147232056
1761333884476426800,6.4544267578125,0.16500473022460938,0.08733820915222168,0.11383336782455444
1761333884495127000,6.473126953125,-0.006161689758300781,0.0399322509765625,-0.003661811351776123
1761333884513827300,6.491827392578125,-0.07897663116455078,-0.018374919891357422,-0.018636316061019897
1761333884532527400,6.51052734375,-0.10592937469482422,-0.005297422409057617,-0.035571545362472534
1761333884551227600,6.5292275390625,0.04342079162597656,0.009721755981445312,-0.039590150117874146
1761333884569927700,6.547927734375,0.0854644775390625,0.00960850715637207,-0.048975974321365356
1761333884588628000,6.5666279296875,0.007871627807617188,0.04026603698730469,-0.024782612919807434
1761333884607328300,6.585328369140625,-0.03222942352294922,-0.0056531429290771484,0.08316457271575928
1761333884626028300,6.6040283203125,-0.01797771453857422,-0.06447792053222656,0.17528313398361206
1761333884644728600,6.622728515625,-0.08193492889404297,-0.11554455757141113,0.15878424048423767
1761333884663428900,6.641428955078125,-0.12301063537597656,-0.1239168643951416,0.060858845710754395
1761333884682129000,6.66012890625,0.02276611328125,-0.13822412490844727,0.08906024694442749
1761333884700829200,6.6788291015625,0.07022571563720703,-0.18183326721191406,0.14053845405578613
1761333884719529200,6.697529296875,-0.16585445404052734,-0.09034347534179688,0.04820433259010315
1761333884738229500,6.7162294921875,-0.3618307113647461,0.014058589935302734,-0.10214561223983765
1761333884756929800,6.7349296875,-0.32680702209472656,0.06738448143005371,-0.13316373527050018
1761333884775629800,6.7536298828125,-0.10545921325683594,0.13795781135559082,-0.17281462252140045
1761333884794330000,6.772330078125,0.21338272094726562,0.09754061698913574,-0.16496221721172333
1761333884813030400,6.791030517578125,0.42797088623046875,0.09389591217041016,-0.13607154786586761
1761333884831730400,6.80973046875,0.45764636993408203,0.15805387496948242,-0.0151633620262146
1761333884850430700,6.8284306640625,0.3228464126586914,0.16466403007507324,0.05134424567222595
1761333884869131000,6.847131103515625,0.18906593322753906,-0.0262296199798584,-0.08937813341617584
1761333884887831300,6.865831298828125,-0.07365226745605469,-0.16596651077270508,-0.16381561756134033
1761333884906531300,6.88453125,-0.3323335647583008,-0.19401931762695312,-0.1934175342321396
1761333884925231600,6.903231689453125,-0.3364686965942383,-0.09495186805725098,-0.18570291996002197
1761333884943931600,6.921931640625,-0.08289337158203125,0.03415274620056152,0.022302106022834778
1761333884962632000,6.9406318359375,0.1648721694946289,0.10967445373535156,0.2445148229598999
1761333884981332200,6.959332275390625,0.046031951904296875,0.05550336837768555,0.11492609977722168
1761333885000032300,6.9780322265625,-0.19667625427246094,-0.031555891036987305,-0.10812896490097046
1761333885018732500,6.996732666015625,-0.129852294921875,-0.0762941837310791,-0.11801335215568542
1761333885037432800,7.015432861328125,0.08328819274902344,-0.020241260528564453,0.017110571265220642
1761333885056132900,7.0341328125,0.1048431396484375,0.09508681297302246,0.14313186705112457
1761333885074833200,7.052833251953125,0.2023487091064453,0.2501184940338135,0.18005456030368805
1761333885093533400,7.071533447265625,0.30391597747802734,0.24436140060424805,0.2228451371192932
1761333885112233500,7.0902333984375,0.13870906829833984,0.2451622486114502,0.285093754529953
1761333885130933800,7.108933837890625,-0.19862079620361328,0.09412479400634766,0.17753176391124725
1761333885149634000,7.127634033203125,-0.28368377685546875,-0.07573199272155762,-0.04751032590866089
1761333885168334000,7.146333984375,-0.16276073455810547,-0.18312573432922363,-0.10803890228271484
1761333885187034400,7.165034423828125,0.024346351623535156,-0.27000975608825684,0.0014103353023529053
1761333885205734400,7.183734375,0.06377506256103516,-0.16319751739501953,0.0012724101543426514
1761333885224434700,7.2024345703125,0.025389671325683594,-0.06848263740539551,-0.012649387121200562
1761333885243135000,7.221135009765625,0.034897804260253906,0.03207540512084961,0.07126644253730774
1761333885261835000,7.2398349609375,-0.04206085205078125,0.06145334243774414,0.1173294335603714
1761333885280535300,7.258535400390625,-0.11927127838134766,0.02463531494140625,0.07869161665439606
1761333885299235600,7.277235595703125,-0.19076919555664062,-0.03418231010437012,-0.06116029620170593
1761333885317935900,7.295935791015625,-0.11390495300292969,-0.07582616806030273,-0.15448179841041565
1761333885336636000,7.314635986328125,-0.04474925994873047,-0.11655402183532715,-0.15383747220039368
1761333885355336200,7.333336181640625,-0.010731697082519531,-0.06519436836242676,-0.0923413634300232
1761333885374036500,7.352036376953125,-0.026192665100097656,0.06544256210327148,-0.0806221216917038
1761333885392736500,7.370736572265625,0.04972362518310547,0.06995391845703125,0.0240648090839386
1761333885411436800,7.389436767578125,0.06494140625,0.11809420585632324,-0.025597944855690002
1761333885430136800,7.40813671875,0.0848379135131836,0.14410710334777832,-0.0615231990814209
1761333885448837000,7.426837158203125,0.0767822265625,0.12769818305969238,-0.07555682957172394
1761333885467537400,7.445537353515625,0.14122390747070312,0.06912755966186523,-0.06976509094238281
1761333885486237400,7.464237548828125,0.24929332733154297,0.027601003646850586,-0.08985048532485962
1761333885504937700,7.482937744140625,0.116180419921875,-0.02765178680419922,0.006383240222930908
1761333885523638000,7.501637939453125,-0.2265024185180664,-0.0007429122924804688,-0.0006908029317855835
1761333885542338000,7.520338134765625,-0.3773641586303711,-0.03177618980407715,-0.07879909127950668
1761333885561038300,7.539038330078125,-0.22871875762939453,-0.059815168380737305,-0.15091092884540558
1761333885579738600,7.557738525390625,0.032917022705078125,-0.05633258819580078,-0.06343536078929901
1761333885598438700,7.576438720703125,0.2165660858154297,-0.08365178108215332,0.023028358817100525
1761333885617139000,7.595138916015625,0.15521907806396484,-0.0113983154296875,-0.0601477324962616
1761333885635839200,7.613839111328125,-0.10848331451416016,0.05276322364807129,-0.10958714038133621
1761333885654539500,7.63253955078125,-0.1940927505493164,0.09729647636413574,-0.10529151558876038
1761333885673239600,7.651239501953125,-0.059081077575683594,0.06562590599060059,-0.09601563960313797
1761333885691939800,7.66993994140625,0.19281959533691406,-0.0035233497619628906,-0.03433689475059509
1761333885710640000,7.68864013671875,0.3513755798339844,-0.024274826049804688,0.05362007021903992
1761333885729340200,7.707340087890625,0.24730587005615234,0.02248072624206543,0.09222052991390228
1761333885748040400,7.72604052734375,0.05670642852783203,0.04458308219909668,0.09555935859680176
1761333885766740500,7.744740478515625,-0.09988021850585938,0.0339655876159668,0.0614309161901474
1761333885785440800,7.763440673828125,-0.07614517211914062,-0.021622657775878906,0.04310309886932373
1761333885804141000,7.78214111328125,0.006508827209472656,-0.06649994850158691,0.023307636380195618
1761333885822841000,7.800841064453125,-0.07921028137207031,-0.084716796875,-0.06931260973215103
1761333885841541400,7.819541259765625,-0.13886642456054688,-0.12234139442443848,-0.008835867047309875
1761333885860241700,7.83824169921875,-0.04792976379394531,-0.1536412239074707,0.009373262524604797
1761333885878941700,7.856941650390625,0.0561981201171875,-0.1476149559020996,0.004348590970039368
1761333885897642000,7.87564208984375,0.06637287139892578,-0.06023859977722168,0.14721131324768066
1761333885916342300,7.89434228515625,-0.00787353515625,0.02170085906982422,0.24824655055999756
1761333885935042300,7.913042236328125,-0.045169830322265625,0.09200119972229004,0.19207040965557098
1761333885953742600,7.93174267578125,-0.09815025329589844,0.06184864044189453,-0.03828078508377075
1761333885972443000,7.95044287109375,-0.1543292999267578,-0.01661515235900879,-0.14836132526397705
1761333885991143200,7.96914306640625,-0.1464996337890625,-0.1040353775024414,-0.15945948660373688
1761333886009843200,7.98784326171875,-0.15835189819335938,-0.06275558471679688,-0.11820225417613983
1761333886028543500,8.00654345703125,-0.10237503051757812,0.014767646789550781,-0.052714988589286804
1761333886047243800,8.025243896484374,0.1004800796508789,0.052260398864746094,0.04993286728858948
1761333886065943800,8.04394384765625,0.23691654205322266,0.09440207481384277,0.15809720754623413
1761333886084644000,8.06264404296875,0.20894336700439453,0.16096973419189453,0.1727607250213623
1761333886103344000,8.08134423828125,0.16899776458740234,0.139725923538208,0.15487414598464966
1761333886122044400,8.10004443359375,0.21000194549560547,0.009421586990356445,0.09299731254577637
1761333886140744700,8.11874462890625,0.11033916473388672,-0.06328058242797852,-0.026285767555236816
1761333886159444700,8.13744482421875,-0.23338890075683594,-0.06504654884338379,-0.13327550888061523
1761333886178145000,8.15614501953125,-0.2914447784423828,-0.07048487663269043,-0.1721324473619461
1761333886196845300,8.17484521484375,-0.050388336181640625,-0.08987545967102051,-0.11403851956129074
1761333886215545300,8.19354541015625,0.19220352172851562,-0.047850847244262695,-0.0009831041097640991
1761333886234245600,8.21224560546875,0.23204421997070312,0.0056040287017822266,0.09923796355724335
1761333886252946000,8.23094580078125,0.06650352478027344,0.06242632865905762,0.11591030657291412
1761333886271646000,8.24964599609375,-0.12371349334716797,0.1309206485748291,0.09345145523548126
1761333886290346200,8.26834619140625,-0.2735280990600586,0.12234759330749512,0.055515021085739136
1761333886309046500,8.287046630859376,-0.22840404510498047,0.04320526123046875,-0.021465227007865906
1761333886327746800,8.305746826171875,-0.015089035034179688,-0.04997444152832031,-0.07974731922149658
1761333886346446800,8.32444677734375,0.24216365814208984,-0.1166384220123291,-0.060629695653915405
1761333886365147100,8.343147216796876,0.2665557861328125,-0.052744388580322266,0.022560611367225647
1761333886383847400,8.361847412109375,0.13971710205078125,0.056539297103881836,0.037296682596206665
1761333886402547500,8.38054736328125,0.010231971740722656,0.06671500205993652,0.0218203067779541
1761333886421247700,8.399247802734376,-0.019231796264648438,0.0352017879486084,0.05620680749416351
1761333886439948000,8.417947998046875,-0.010995864868164062,0.0007653236389160156,0.05700583755970001
1761333886458648000,8.43664794921875,0.009099960327148438,0.04357504844665527,0.014461621642112732
1761333886477348400,8.455348388671876,0.03532123565673828,-0.024265766143798828,-0.007658764719963074
1761333886496048400,8.47404833984375,0.042687416076660156,-0.016594648361206055,-0.005713537335395813
1761333886514748700,8.492748779296875,-0.02732086181640625,-0.060582637786865234,0.002490624785423279
1761333886533449000,8.511448974609374,-0.12302589416503906,-0.08904242515563965,0.017636090517044067
1761333886552149000,8.53014892578125,-0.1532306671142578,-0.13625526428222656,0.0011713504791259766
1761333886570849300,8.548849365234375,-0.14848899841308594,-0.08139371871948242,-0.012944921851158142
1761333886589549600,8.567549560546874,-0.10758399963378906,-0.05623650550842285,-0.025655344128608704
1761333886608249600,8.58624951171875,-0.08940887451171875,-0.0198824405670166,-0.11500106006860733
1761333886626950000,8.604949951171875,-0.06787109375,0.04288339614868164,-0.2507655620574951
1761333886645650200,8.623650146484374,0.015916824340820312,0.03363466262817383,-0.19443713128566742
1761333886664350200,8.64235009765625,0.13700389862060547,0.05078315734863281,-0.06459435820579529
1761333886683050500,8.661050537109375,0.22210025787353516,0.04753923416137695,0.018389448523521423
1761333886701750800,8.679750732421875,0.09836387634277344,0.0756831169128418,0.024068713188171387
1761333886720451000,8.698451171875,0.03206920623779297,0.13321781158447266,0.1100580245256424
1761333886739151000,8.717151123046875,0.09450817108154297,0.12917137145996094,0.2335251420736313
1761333886757851400,8.735851318359375,0.1013193130493164,0.09337091445922852,0.22079536318778992
1761333886776551700,8.7545517578125,0.03149890899658203,0.006713151931762695,0.13944832980632782
1761333886795251700,8.773251708984375,-0.03336334228515625,-0.051774024963378906,0.12427525222301483
1761333886813952000,8.791951904296875,-0.21120452880859375,-0.0765540599822998,0.04505772888660431
1761333886832652300,8.81065234375,-0.30490779876708984,-0.04966020584106445,-0.05544579029083252
1761333886851352300,8.829352294921875,-0.1124429702758789,-0.09807515144348145,-0.20115141570568085
1761333886870052600,8.848052490234375,0.15044212341308594,-0.12054157257080078,-0.13065828382968903
1761333886888753000,8.8667529296875,0.31492042541503906,-0.08844542503356934,-0.024806514382362366
1761333886907453000,8.885452880859376,0.23764324188232422,-0.026352882385253906,-0.07345205545425415
1761333886926153200,8.9041533203125,0.028749465942382812,0.03338360786437988,-0.14661869406700134
1761333886944853500,8.922853515625,-0.11053752899169922,0.04604315757751465,-0.16543203592300415
1761333886963553800,8.9415537109375,-0.06891155242919922,0.0186154842376709,-0.1498107761144638
1761333886982253800,8.96025390625,-0.03820228576660156,-0.05235767364501953,-0.06879140436649323
1761333887000953900,8.978953857421875,-0.071075439453125,-0.024683475494384766,-0.01332026720046997
1761333887019654100,8.997654052734376,-0.03558826446533203,-0.00713801383972168,0.055883824825286865
1761333887038354400,9.0163544921875,-0.0666513442993164,-0.020158052444458008,0.07381334900856018
1761333887057054700,9.0350546875,-0.014945030212402344,0.02000260353088379,0.08810767531394958
1761333887075754800,9.053754638671874,0.0814523696899414,0.0534517765045166,0.13230137526988983
1761333887094455000,9.072455078125,0.1354818344116211,0.07521343231201172,0.13560603559017181
1761333887113155300,9.0911552734375,-0.05223655700683594,0.07200431823730469,0.03447945415973663
1761333887131855400,9.10985546875,-0.16176128387451172,0.05620121955871582,-0.025628119707107544
1761333887150555600,9.1285556640625,-0.13307952880859375,-0.010813236236572266,-0.05837365984916687
1761333887169256000,9.147255859375,0.02062511444091797,-0.07797002792358398,-0.04912325739860535
1761333887187956000,9.1659560546875,0.08752250671386719,-0.060762882232666016,-0.022353410720825195
1761333887206656300,9.18465625,-0.0037775039672851562,-0.031175613403320312,0.048337265849113464
1761333887225356500,9.2033564453125,-0.05678081512451172,0.013398885726928711,0.14618097245693207
1761333887244056600,9.222056640625,0.010164260864257812,0.0047931671142578125,0.11035701632499695
1761333887262756900,9.2407568359375,-0.043845176696777344,0.026027202606201172,0.010756462812423706
1761333887281457200,9.25945703125,-0.035785675048828125,0.019484758377075195,0.014739051461219788
1761333887300157400,9.278157470703125,-0.03520488739013672,-0.0057964324951171875,-0.04788529872894287
1761333887318857500,9.296857421875,-0.11637496948242188,0.0030863285064697266,-0.0863557681441307
1761333887337557800,9.315557861328125,-0.10666656494140625,0.05492544174194336,-0.044319286942481995
1761333887356258000,9.334258056640625,-0.0036706924438476562,-0.00159454345703125,-0.039678364992141724
1761333887374958000,9.3529580078125,0.10386943817138672,-0.04324007034301758,-0.25591057538986206
1761333887393658400,9.371658447265625,0.00955963134765625,-0.01659846305847168,-0.1593351811170578
1761333887412358700,9.390358642578125,0.13097095489501953,0.06477522850036621,0.17815274000167847
1761333887431058700,9.40905859375,0.28812503814697266,0.10596752166748047,0.2608215808868408
1761333887449759000,9.427759033203126,0.35839271545410156,0.05673837661743164,0.23703938722610474
1761333887468459300,9.446459228515625,0.3829212188720703,-0.033333539962768555,0.21526633203029633
