time,seconds_elapsed,z,y,x
1761333878090314000,0.06831396484375,0.001221729558892548,-0.04276053607463837,-0.03543015569448471
1761333878109014300,0.08701416015625,-0.000610864779446274,-0.043982263654470444,-0.06047561392188072
1761333878127714300,0.10571435546875,0.01954767294228077,-0.01588248461484909,-0.07269290834665298
1761333878146414600,0.12441455078125,0.021991131827235222,-0.026878049597144127,-0.049480047076940536
1761333878165114600,0.143114501953125,0.015271619893610477,-0.03298669680953026,-0.024434590712189674
1761333878183815000,0.16181494140625,0.015271619893610477,-0.004276053514331579,0.0030543238390237093
1761333878202515000,0.180514892578125,0.007941242307424545,0.006719512399286032,0.05436696484684944
1761333878221215200,0.19921533203125,0.009162971749901772,-0.0054977829568088055,0.07391463965177536
1761333878239915300,0.217915283203125,0.015271619893610477,-0.01588248461484909,0.03481929376721382
1761333878258615600,0.236615478515625,0.021991131827235222,-0.017715077847242355,-0.003665188793092966
1761333878277315800,0.25531591796875,0.01649334840476513,-0.03176496922969818,-0.017104214057326317
1761333878296016000,0.274015869140625,0.01282816007733345,-0.02260199747979641,-0.01649334840476513
1761333878314716200,0.292716064453125,0.007330377586185932,-0.024434590712189674,-0.033597562462091446
1761333878333416200,0.311416259765625,0.000610864779446274,0.011606430634856224,-0.01588248461484909
1761333878352116500,0.330116455078125,-0.009773836471140385,-0.001832594396546483,0.013439024798572063
1761333878370816500,0.34881640625,-0.01649334840476513,0.0030543238390237093,0.02932151034474373
1761333878389516800,0.367516845703125,-0.003665188793092966,0.0030543238390237093,0.01893680728971958
1761333878408216800,0.386216796875,0.004886918235570192,-0.009773836471140385,-0.000610864779446274
1761333878426917000,0.404917236328125,0.010995565913617611,-0.009162971749901772,-0.006108647678047419
1761333878445617400,0.423617431640625,0.021991131827235222,-0.006108647678047419,-0.009773836471140385
1761333878464317400,0.4423173828125,0.0360410213470459,-0.03176496922969818,-0.028099779039621353
1761333878483017700,0.461017822265625,0.043371398001909256,-0.020158538594841957,-0.020769402384757996
1761333878501717800,0.4797177734375,0.030543239787220955,-0.008552107028663158,0.007941242307424545
1761333878520418000,0.49841796875,0.027488915249705315,-0.01588248461484909,0.01893680728971958
1761333878539118000,0.5171181640625,0.023212861269712448,0.004276053514331579,0.01649334840476513
1761333878557818400,0.535818359375,0.006108647678047419,0.01588248461484909,0.017715077847242355
1761333878576518400,0.554518310546875,-0.01649334840476513,-0.01954767294228077,-0.001832594396546483
1761333878595218700,0.57321875,-0.003665188793092966,-0.04764745384454727,-0.03787361457943916
1761333878613919000,0.5919189453125,0.010995565913617611,-0.037262752652168274,-0.05192350596189499
1761333878632619000,0.610618896484375,0.01893680728971958,-0.008552107028663158,-0.02260199747979641
1761333878651319300,0.6293193359375,0.01954767294228077,0.010384701192378998,0.010995565913617611
1761333878670019300,0.648019287109375,0.023823726922273636,-0.000610864779446274,0.000610864779446274
1761333878688719600,0.6667197265625,0.03176496922969818,-0.009162971749901772,-0.03237583488225937
1761333878707419600,0.685419677734375,0.030543239787220955,-0.009162971749901772,-0.03543015569448471
1761333878726120000,0.704119873046875,0.024434590712189674,0.000610864779446274,-0.006719512399286032
1761333878744820200,0.7228203125,0.02932151034474373,0.004276053514331579,0.017715077847242355
1761333878763520300,0.741520263671875,0.03176496922969818,-0.004276053514331579,0.034208428114652634
1761333878782220300,0.76022021484375,0.023212861269712448,-0.01649334840476513,0.043982263654470444
1761333878800920600,0.778920654296875,0.02260199747979641,-0.020769402384757996,0.05558869615197182
1761333878819620900,0.797620849609375,0.023823726922273636,-0.007330377586185932,0.07330377399921417
1761333878838321000,0.81632080078125,0.017104214057326317,0.003665188793092966,0.07880155742168427
1761333878857021200,0.835021240234375,0.006108647678047419,0.009162971749901772,0.06230820715427399
1761333878875721200,0.85372119140625,0.003665188793092966,-0.007330377586185932,0.03787361457943916
1761333878894421500,0.87242138671875,0.01282816007733345,-0.026878049597144127,0.026878049597144127
1761333878913121800,0.891121826171875,0.03787361457943916,-0.006719512399286032,-0.002443459117785096
1761333878931821800,0.90982177734375,0.06414080411195755,0.021380268037319183,-0.010384701192378998
1761333878950522000,0.928522216796875,0.07269290834665298,0.006108647678047419,0
1761333878969222100,0.94722216796875,0.08063415437936783,-0.01282816007733345,-0.0054977829568088055
1761333878987922400,0.96592236328125,0.09162971377372742,-0.020769402384757996,-0.02932151034474373
1761333879006622500,0.98462255859375,0.07269290834665298,0.02932151034474373,-0.021991131827235222
1761333879025322800,1.00332275390625,0.07391463965177536,-0.014660755172371864,0.01649334840476513
1761333879044022800,1.022022705078125,0.07086031138896942,-0.014660755172371864,0.014049889519810677
1761333879062723000,1.04072314453125,0.06963858753442764,-0.004276053514331579,-0.021991131827235222
1761333879081423400,1.05942333984375,0.056810423731803894,-0.023212861269712448,-0.04764745384454727
1761333879100123400,1.078123291015625,0.046425722539424896,-0.034208428114652634,-0.06230820715427399
1761333879118823700,1.09682373046875,0.043371398001909256,-0.009162971749901772,-0.05436696484684944
1761333879137523700,1.115523681640625,0.028099779039621353,-0.0030543238390237093,-0.030543239787220955
1761333879156224000,1.13422412109375,0.018325943499803543,-0.006108647678047419,-0.01588248461484909
1761333879174924000,1.152924072265625,0.01893680728971958,-0.004276053514331579,-0.01588248461484909
1761333879193624300,1.171624267578125,0.021380268037319183,-0.01893680728971958,-0.031154103577136993
1761333879212324600,1.19032470703125,0.0256563201546669,-0.04764745384454727,-0.0513126403093338
1761333879231024600,1.209024658203125,0.03787361457943916,-0.04764745384454727,-0.05803215503692627
1761333879249725000,1.227724853515625,0.04153880476951599,-0.03298669680953026,-0.028099779039621353
1761333879268425000,1.246425048828125,0.04276053607463837,-0.023823726922273636,0.017104214057326317
1761333879287125200,1.265125244140625,0.04153880476951599,-0.007330377586185932,0.046425722539424896
1761333879305825300,1.2838251953125,0.043371398001909256,-0.014660755172371864,0.04153880476951599
1761333879324525600,1.302525634765625,0.04825831577181816,-0.03237583488225937,0.026878049597144127
1761333879343225900,1.321225830078125,0.04214967042207718,-0.04459312930703163,0.023212861269712448
1761333879361926000,1.33992578125,0.02932151034474373,-0.03543015569448471,0.028099779039621353
1761333879380626200,1.358626220703125,0.010384701192378998,-0.01893680728971958,0.04214967042207718
1761333879399326200,1.377326171875,-0.004276053514331579,-0.008552107028663158,0.04825831577181816
1761333879418026500,1.396026611328125,-0.015271619893610477,-0.01282816007733345,0.04214967042207718
1761333879436726500,1.4147265625,-0.013439024798572063,-0.010995565913617611,0.04276053607463837
1761333879455426800,1.4334267578125,0.007941242307424545,-0.026878049597144127,0.04276053607463837
1761333879474126800,1.452126953125,0.01649334840476513,-0.0256563201546669,0.04764745384454727
1761333879492827100,1.4708271484375,0.01649334840476513,-0.01893680728971958,0.06597339361906052
1761333879511527400,1.48952734375,0.003665188793092966,-0.015271619893610477,0.06963858753442764
1761333879530227500,1.5082275390625,-0.021991131827235222,0.018325943499803543,0.05070177838206291
1761333879548927700,1.526927734375,-0.049480047076940536,0.015271619893610477,0.009162971749901772
1761333879567627800,1.545627685546875,-0.05497783049941063,0.0030543238390237093,-0.04153880476951599
1761333879586328000,1.564328125,-0.020769402384757996,-0.02260199747979641,-0.06902772188186646
1761333879605028000,1.583028076171875,0.02260199747979641,-0.05070177838206291,-0.03787361457943916
1761333879623728400,1.601728271484375,0.03543015569448471,-0.029932374134659767,0.03176496922969818
1761333879642428700,1.6204287109375,0.03909534588456154,0.021380268037319183,0.0873536616563797
1761333879661128700,1.639128662109375,0.02871064469218254,0.020158538594841957,0.0824667438864708
1761333879679829000,1.6578291015625,0.01954767294228077,-0.01282816007733345,0.006719512399286032
1761333879698529000,1.676529052734375,0.006719512399286032,-0.028099779039621353,-0.05803215503692627
1761333879717229300,1.695229248046875,-0.01649334840476513,-0.015271619893610477,-0.07513637095689774
1761333879735929300,1.713929443359375,-0.04214967042207718,0.001832594396546483,-0.06475166976451874
1761333879754629600,1.732629638671875,-0.05864302068948746,-0.0030543238390237093,-0.050090912729501724
1761333879773330000,1.751329833984375,-0.06414080411195755,0.007941242307424545,-0.0360410213470459
1761333879792030000,1.770030029296875,-0.0665842592716217,0.03176496922969818,0.003665188793092966
1761333879810730200,1.788730224609375,-0.07086031138896942,0.036651886999607086,0.040317077189683914
1761333879829430300,1.80743017578125,-0.07024945318698883,0.010995565913617611,0.04153880476951599
1761333879848130600,1.826130615234375,-0.059864748269319534,-0.015271619893610477,0.007941242307424545
1761333879866830600,1.84483056640625,-0.037262752652168274,-0.020158538594841957,-0.018325943499803543
1761333879885531000,1.86353076171875,-0.03298669680953026,-0.006108647678047419,-0.017104214057326317
1761333879904231200,1.882231201171875,-0.025045456364750862,0.002443459117785096,-0.004276053514331579
1761333879922931200,1.90093115234375,-0.003665188793092966,-0.008552107028663158,0.021380268037319183
1761333879941631500,1.919631591796875,0.01282816007733345,-0.030543239787220955,0.03543015569448471
1761333879960331500,1.93833154296875,0.013439024798572063,-0.0256563201546669,0.029932374134659767
1761333879979031800,1.95703173828125,0.01282816007733345,-0.009773836471140385,0.0256563201546669
1761333879997731800,1.97573193359375,0.009773836471140385,-0.026878049597144127,0.01954767294228077
1761333880016432000,1.99443212890625,-0.003665188793092966,-0.037262752652168274,0.001221729558892548
1761333880035132400,2.01313232421875,-0.020158538594841957,-0.043982263654470444,-0.027488915249705315
1761333880053832400,2.03183251953125,-0.02871064469218254,-0.02260199747979641,-0.0256563201546669
1761333880072532700,2.05053271484375,-0.02260199747979641,-0.027488915249705315,-0.008552107028663158
1761333880091232800,2.069232666015625,-0.025045456364750862,-0.03481929376721382,0.006108647678047419
1761333880109933000,2.08793310546875,-0.028099779039621353,-0.023212861269712448,0.002443459117785096
1761333880128633000,2.106633056640625,-0.023212861269712448,-0.014660755172371864,-0.001221729558892548
1761333880147333400,2.12533349609375,-0.020769402384757996,-0.023823726922273636,-0.007941242307424545
1761333880166033700,2.14403369140625,-0.01282816007733345,-0.02260199747979641,-0.01954767294228077
1761333880184733700,2.162733642578125,0.006108647678047419,-0.053145237267017365,-0.03909534588456154
1761333880203434000,2.18143408203125,0.025045456364750862,-0.05497783049941063,-0.030543239787220955
1761333880222134000,2.200134033203125,0.023823726922273636,-0.040317077189683914,-0.003665188793092966
1761333880240834300,2.218834228515625,0.01893680728971958,-0.020769402384757996,0.023823726922273636
1761333880259534300,2.237534423828125,0.01954767294228077,-0.021991131827235222,0.01893680728971958
1761333880278234600,2.256234619140625,0.034208428114652634,-0.02871064469218254,-0.017104214057326317
1761333880296935000,2.274934814453125,0.05497783049941063,-0.04276053607463837,-0.04825831577181816
1761333880315635000,2.293635009765625,0.07819069176912308,-0.07147117704153061,-0.07024945318698883
1761333880334335200,2.312335205078125,0.07635809481143951,-0.05925388261675835,-0.06047561392188072
1761333880353035300,2.33103515625,0.043982263654470444,-0.01282816007733345,-0.02260199747979641
1761333880371735600,2.349735595703125,0.03237583488225937,-0.009162971749901772,-0.006108647678047419
1761333880390435600,2.368435546875,0.02260199747979641,-0.04276053607463837,-0.023823726922273636
1761333880409135900,2.387135986328125,0.017104214057326317,-0.043371398001909256,-0.031154103577136993
1761333880427836200,2.405836181640625,0.01649334840476513,-0.000610864779446274,0.009773836471140385
1761333880446536200,2.4245361328125,0.007330377586185932,-0.001221729558892548,0.030543239787220955
1761333880465236500,2.443236572265625,0.002443459117785096,-0.01954767294228077,-0.000610864779446274
1761333880483936500,2.4619365234375,0.003665188793092966,-0.059864748269319534,-0.037262752652168274
1761333880502636800,2.48063671875,0.010995565913617611,-0.05925388261675835,-0.043371398001909256
1761333880521336800,2.4993369140625,0.0030543238390237093,-0.014660755172371864,-0.018325943499803543
1761333880540037000,2.518037109375,-0.009773836471140385,0.015271619893610477,0.020158538594841957
1761333880558737400,2.5367373046875,-0.001832594396546483,-0.004886918235570192,0.017715077847242355
1761333880577437400,2.5554375,0.01282816007733345,-0.030543239787220955,-0.009773836471140385
1761333880596137700,2.5741376953125,0.010995565913617611,-0.03298669680953026,-0.023212861269712448
1761333880614837800,2.592837646484375,0.01282816007733345,-0.01649334840476513,-0.01588248461484909
1761333880633538000,2.6115380859375,0.009162971749901772,0.000610864779446274,-0.0030543238390237093
1761333880652238000,2.630238037109375,0.003665188793092966,0.018325943499803543,0.010995565913617611
1761333880670938400,2.6489384765625,-0.002443459117785096,-0.007330377586185932,-0.006108647678047419
1761333880689638700,2.667638671875,0.008552107028663158,-0.024434590712189674,-0.030543239787220955
1761333880708338700,2.686338623046875,0.01588248461484909,-0.024434590712189674,-0.020769402384757996
1761333880727039000,2.7050390625,0.0256563201546669,-0.001832594396546483,0.007330377586185932
1761333880745739000,2.723739013671875,0.03787361457943916,0.01893680728971958,0.037262752652168274
1761333880764439300,2.742439208984375,0.04581485688686371,0.018325943499803543,0.049480047076940536
1761333880783139600,2.7611396484375,0.04825831577181816,0.014660755172371864,0.02932151034474373
1761333880801839600,2.779839599609375,0.04581485688686371,-0.014660755172371864,-0.010995565913617611
1761333880820540000,2.798539794921875,0.04276053607463837,-0.006719512399286032,-0.025045456364750862
1761333880839240000,2.817239990234375,0.029932374134659767,-0.010384701192378998,-0.017104214057326317
1761333880857940200,2.835940185546875,0.008552107028663158,-0.007330377586185932,0
1761333880876640300,2.85464013671875,-0.006719512399286032,0.0054977829568088055,0.011606430634856224
1761333880895340500,2.873340576171875,-0.014660755172371864,-0.001832594396546483,0.007941242307424545
1761333880914040800,2.892040771484375,-0.020158538594841957,-0.02260199747979641,-0.000610864779446274
1761333880932740900,2.910740966796875,-0.023823726922273636,-0.020158538594841957,0.004886918235570192
1761333880951441200,2.929441162109375,-0.034208428114652634,-0.007330377586185932,0.028099779039621353
1761333880970141200,2.94814111328125,-0.05192350596189499,-0.008552107028663158,0.03787361457943916
1761333880988841500,2.966841552734375,-0.053756099194288254,-0.031154103577136993,0.01649334840476513
1761333881007541800,2.985541748046875,-0.05436696484684944,-0.049480047076940536,0.002443459117785096
1761333881026241800,3.00424169921875,-0.05497783049941063,-0.03237583488225937,-0.01588248461484909
1761333881044942000,3.022942138671875,-0.05558869615197182,0.01282816007733345,-0.006108647678047419
1761333881063642000,3.04164208984375,-0.050090912729501724,-0.004886918235570192,0.012217295356094837
1761333881082342400,3.06034228515625,-0.034208428114652634,-0.037262752652168274,0.008552107028663158
1761333881101042400,3.07904248046875,-0.0256563201546669,-0.04764745384454727,0
1761333881119742700,3.09774267578125,-0.01954767294228077,-0.025045456364750862,0.0030543238390237093
1761333881138443000,3.116443115234375,-0.008552107028663158,-0.021380268037319183,0.031154103577136993
1761333881157143000,3.13514306640625,0.013439024798572063,-0.02626718580722809,0.06352993845939636
1761333881175843300,3.15384326171875,0.023212861269712448,-0.026878049597144127,0.07147117704153061
1761333881194543400,3.17254345703125,0.028099779039621353,-0.030543239787220955,0.056199558079242706
1761333881213243600,3.19124365234375,0.01954767294228077,-0.029932374134659767,0.04581485688686371
1761333881231943700,3.209943603515625,0.008552107028663158,-0.01954767294228077,0.034208428114652634
1761333881250644000,3.22864404296875,0,-0.017715077847242355,0.02260199747979641
1761333881269344300,3.24734423828125,-0.012217295356094837,-0.01588248461484909,0.013439024798572063
1761333881288044300,3.266044189453125,-0.01893680728971958,-0.021380268037319183,0.009773836471140385
1761333881306744600,3.28474462890625,-0.021991131827235222,-0.01588248461484909,0.004276053514331579
1761333881325444600,3.303444580078125,-0.028099779039621353,-0.003665188793092966,0.002443459117785096
1761333881344145000,3.322144775390625,-0.03481929376721382,-0.011606430634856224,0.003665188793092966
1761333881362845200,3.34084521484375,-0.0256563201546669,-0.006719512399286032,-0.003665188793092966
1761333881381545200,3.359545166015625,-0.018325943499803543,-0.01282816007733345,-0.01588248461484909
1761333881400245500,3.37824560546875,-0.007330377586185932,0.011606430634856224,-0.017104214057326317
1761333881418945500,3.396945556640625,0.010384701192378998,0.021991131827235222,0.000610864779446274
1761333881437645800,3.415645751953125,0.04520399495959282,-0.0030543238390237093,0.009162971749901772
1761333881456346000,3.43434619140625,0.07452550530433655,-0.03543015569448471,-0.007941242307424545
1761333881475046100,3.453046142578125,0.08368847519159317,-0.04825831577181816,-0.02626718580722809
1761333881493746400,3.471746337890625,0.09468404203653336,-0.030543239787220955,-0.018325943499803543
1761333881512446500,3.490446533203125,0.08918625861406326,-0.03298669680953026,0.01893680728971958
1761333881531146800,3.509146728515625,0.0665842592716217,-0.0360410213470459,0.0409279391169548
1761333881549846800,3.5278466796875,0.03787361457943916,-0.03237583488225937,0.02871064469218254
1761333881568547000,3.546547119140625,0.008552107028663158,-0.02932151034474373,0.018325943499803543
1761333881587247400,3.565247314453125,-0.01588248461484909,-0.01649334840476513,0.020158538594841957
1761333881605947600,3.58394775390625,-0.026878049597144127,-0.025045456364750862,0.004886918235570192
1761333881624647700,3.602647705078125,-0.02932151034474373,-0.04459312930703163,-0.02260199747979641
1761333881643347700,3.62134765625,-0.04153880476951599,-0.04153880476951599,-0.027488915249705315
1761333881662048000,3.640048095703125,-0.053145237267017365,-0.017104214057326317,0.003665188793092966
1761333881680748300,3.658748291015625,-0.04153880476951599,-0.001221729558892548,0.03543015569448471
1761333881699448600,3.677448486328125,-0.033597562462091446,-0.002443459117785096,0.04276053607463837
1761333881718148600,3.696148681640625,-0.03481929376721382,-0.036651886999607086,0.009162971749901772
1761333881736849000,3.714848876953125,-0.020769402384757996,-0.03909534588456154,-0.014049889519810677
1761333881755549000,3.733548828125,-0.0030543238390237093,-0.043982263654470444,0
1761333881774249200,3.752249267578125,0.001832594396546483,-0.004276053514331579,0.036651886999607086
1761333881792949200,3.77094921875,0.001832594396546483,0.014660755172371864,0.06536252796649933
1761333881811649500,3.7896494140625,0.01282816007733345,-0.004886918235570192,0.06047561392188072
1761333881830349800,3.808349853515625,0.020769402384757996,-0.031154103577136993,0.01954767294228077
1761333881849049900,3.8270498046875,0.020158538594841957,-0.03237583488225937,-0.023212861269712448
1761333881867750100,3.845750244140625,0.0256563201546669,-0.023823726922273636,-0.03176496922969818
1761333881886450200,3.8644501953125,0.030543239787220955,-0.023212861269712448,-0.007330377586185932
1761333881905150500,3.883150390625,0.028099779039621353,-0.018325943499803543,0.020769402384757996
1761333881923850800,3.901850830078125,0.03176496922969818,-0.029932374134659767,0.034208428114652634
1761333881942550800,3.92055078125,0.024434590712189674,-0.029932374134659767,0.049480047076940536
1761333881961251000,3.9392509765625,0.008552107028663158,-0.008552107028663158,0.07147117704153061
1761333881979951000,3.957951171875,-0.009773836471140385,0.011606430634856224,0.08857539296150208
1761333881998651400,3.9766513671875,-0.017104214057326317,0.01588248461484909,0.07513637095689774
1761333882017351700,3.9953515625,-0.014049889519810677,-0.01649334840476513,0.028099779039621353
1761333882036051700,4.0140517578125,-0.013439024798572063,-0.009162971749901772,-0.0054977829568088055
1761333882054752000,4.032751953125,-0.024434590712189674,0.01649334840476513,-0.01282816007733345
1761333882073452000,4.0514521484375,-0.03543015569448471,0.009162971749901772,-0.02932151034474373
1761333882092152300,4.07015234375,-0.04214967042207718,-0.011606430634856224,-0.059864748269319534
1761333882110852600,4.0888525390625,-0.033597562462091446,-0.020769402384757996,-0.08307760953903198
1761333882129552600,4.107552734375,-0.009773836471140385,-0.025045456364750862,-0.07452550530433655
1761333882148253000,4.1262529296875,0.009162971749901772,-0.036651886999607086,-0.033597562462091446
1761333882166953000,4.144952880859375,0.029932374134659767,-0.017104214057326317,0.01954767294228077
1761333882185653200,4.1636533203125,0.046425722539424896,-0.01588248461484909,0.04581485688686371
1761333882204353500,4.182353515625,0.06291907280683517,-0.0409279391169548,0.020158538594841957
1761333882223053600,4.201053466796875,0.07941242307424545,-0.07330377399921417,-0.033597562462091446
1761333882241753900,4.21975390625,0.09346231073141098,-0.06230820715427399,-0.05070177838206291
1761333882260454000,4.238453857421875,0.09407317638397217,-0.049480047076940536,-0.03481929376721382
1761333882279154200,4.257154296875,0.06963858753442764,-0.03909534588456154,-0.007330377586185932
1761333882297854500,4.2758544921875,0.04764745384454727,-0.034208428114652634,0.001832594396546483
1761333882316554500,4.294554443359375,0.04276053607463837,-0.025045456364750862,-0.0030543238390237093
1761333882335254800,4.3132548828125,0.021380268037319183,-0.007330377586185932,-0.008552107028663158
1761333882353954800,4.331954833984375,-0.007330377586185932,-0.01588248461484909,-0.03237583488225937
1761333882372655000,4.350655029296875,-0.009773836471140385,-0.04153880476951599,-0.0616973415017128
1761333882391355400,4.36935546875,0.008552107028663158,-0.04764745384454727,-0.049480047076940536
1761333882410055400,4.388055419921875,0.015271619893610477,-0.021991131827235222,-0.000610864779446274
1761333882428755700,4.406755615234375,0.0054977829568088055,0.009773836471140385,0.05070177838206291
1761333882447455700,4.425455810546875,0.014049889519810677,-0.004886918235570192,0.047036588191986084
1761333882466156000,4.444156005859375,0.021380268037319183,-0.017715077847242355,0.007330377586185932
1761333882484856300,4.462856201171875,0.021380268037319183,-0.006108647678047419,-0.010995565913617611
1761333882503556400,4.481556396484375,0.026878049597144127,-0.026878049597144127,-0.009773836471140385
1761333882522256600,4.500256591796875,0.03176496922969818,-0.017715077847242355,0.001832594396546483
1761333882540956700,4.518956787109375,0.029932374134659767,0.010384701192378998,0.024434590712189674
1761333882559657000,4.537656982421875,0.031154103577136993,0.017715077847242355,0.05925388261675835
1761333882578357200,4.556357177734375,0.0409279391169548,-0.008552107028663158,0.06352993845939636
1761333882597057300,4.575057373046875,0.04520399495959282,-0.017104214057326317,0.04276053607463837
1761333882615757600,4.593757568359375,0.04764745384454727,-0.014049889519810677,0.03298669680953026
1761333882634457900,4.612457763671875,0.040317077189683914,-0.018325943499803543,0.04214967042207718
1761333882653158000,4.631157958984375,0.020158538594841957,-0.014660755172371864,0.043371398001909256
1761333882671858200,4.649858154296875,-0.004276053514331579,0.003665188793092966,0.03543015569448471
1761333882690558200,4.66855810546875,-0.021380268037319183,0.01649334840476513,0.011606430634856224
1761333882709258500,4.687258544921875,-0.020158538594841957,0.007330377586185932,-0.029932374134659767
1761333882727958800,4.705958740234375,-0.01282816007733345,-0.009773836471140385,-0.06780599057674408
1761333882746658800,4.724658935546875,0.003665188793092966,-0.01588248461484909,-0.08552107214927673
1761333882765359000,4.743359130859375,0.0256563201546669,-0.015271619893610477,-0.07452550530433655
1761333882784059400,4.762059326171875,0.03237583488225937,-0.014049889519810677,-0.040317077189683914
1761333882802759400,4.780759521484375,0.026878049597144127,-0.014049889519810677,-0.01649334840476513
1761333882821459700,4.799459716796875,0.013439024798572063,-0.023823726922273636,-0.009773836471140385
1761333882840159700,4.81815966796875,0.0054977829568088055,-0.023212861269712448,-0.010384701192378998
1761333882858860000,4.836860107421875,-0.011606430634856224,-0.023212861269712448,-0.001832594396546483
1761333882877560300,4.855560302734375,-0.025045456364750862,-0.01649334840476513,0.002443459117785096
1761333882896260400,4.87426025390625,-0.034208428114652634,-0.01954767294228077,0.003665188793092966
1761333882914960600,4.892960693359375,-0.043371398001909256,-0.015271619893610477,0.007941242307424545
1761333882933660700,4.91166064453125,-0.04276053607463837,-0.009162971749901772,0.007941242307424545
1761333882952361000,4.93036083984375,-0.04214967042207718,0.010995565913617611,0.006719512399286032
1761333882971061200,4.949061279296875,-0.043982263654470444,0.002443459117785096,-0.006108647678047419
1761333882989761300,4.96776123046875,-0.03909534588456154,-0.03909534588456154,-0.03176496922969818
1761333883008461600,4.986461669921875,-0.020158538594841957,-0.07269290834665298,-0.05192350596189499
1761333883027161600,5.00516162109375,-0.014660755172371864,-0.030543239787220955,-0.02626718580722809
1761333883045862000,5.02386181640625,-0.021991131827235222,0.014660755172371864,0.040317077189683914
1761333883064562200,5.042562255859375,-0.01588248461484909,0.012217295356094837,0.07635809481143951
1761333883083262200,5.06126220703125,-0.004276053514331579,-0.02626718580722809,0.04276053607463837
1761333883101962500,5.07996240234375,-0.003665188793092966,-0.05803215503692627,-0.014660755172371864
1761333883120662500,5.09866259765625,-0.006108647678047419,-0.025045456364750862,-0.021380268037319183
1761333883139362800,5.11736279296875,-0.006108647678047419,-0.017104214057326317,0.01649334840476513
1761333883158063000,5.13606298828125,-0.007330377586185932,-0.01954767294228077,0.0409279391169548
1761333883176763100,5.15476318359375,-0.004886918235570192,-0.026878049597144127,0.025045456364750862
1761333883195463400,5.17346337890625,-0.0054977829568088055,-0.020158538594841957,0.014049889519810677
1761333883214163700,5.192163818359375,-0.009162971749901772,-0.009162971749901772,0.027488915249705315
1761333883232863700,5.21086376953125,-0.007941242307424545,-0.017715077847242355,0.027488915249705315
1761333883251564000,5.22956396484375,-0.000610864779446274,-0.04520399495959282,0.006108647678047419
1761333883270264000,5.24826416015625,0.006719512399286032,-0.049480047076940536,-0.007941242307424545
1761333883288964400,5.26696435546875,0.000610864779446274,-0.02260199747979641,0.013439024798572063
1761333883307664600,5.28566455078125,-0.006108647678047419,-0.002443459117785096,0.03543015569448471
1761333883326365000,5.304364990234375,0.011606430634856224,-0.009162971749901772,0.021991131827235222
1761333883345065000,5.32306494140625,0.0360410213470459,-0.031154103577136993,-0.003665188793092966
1761333883363765200,5.34176513671875,0.040317077189683914,-0.030543239787220955,-0.009162971749901772
1761333883382465300,5.36046533203125,0.037262752652168274,-0.020158538594841957,-0.009773836471140385
1761333883401165600,5.37916552734375,0.03176496922969818,-0.013439024798572063,-0.027488915249705315
1761333883419865900,5.397865966796875,0.030543239787220955,-0.018325943499803543,-0.03848448023200035
1761333883438566000,5.41656591796875,0.037262752652168274,-0.0256563201546669,-0.023212861269712448
1761333883457266200,5.43526611328125,0.0360410213470459,-0.02260199747979641,0.007941242307424545
1761333883475966200,5.45396630859375,0.030543239787220955,-0.014660755172371864,0.023212861269712448
1761333883494666500,5.47266650390625,0.02260199747979641,-0.008552107028663158,0.03176496922969818
1761333883513366800,5.49136669921875,0.018325943499803543,0.014660755172371864,0.03909534588456154
1761333883532066800,5.51006689453125,0.013439024798572063,0.000610864779446274,0.0256563201546669
1761333883550767000,5.52876708984375,0.011606430634856224,-0.014049889519810677,-0.010384701192378998
1761333883569467400,5.54746728515625,0.020158538594841957,-0.013439024798572063,-0.01893680728971958
1761333883588167400,5.56616748046875,0.020769402384757996,-0.008552107028663158,0.001832594396546483
1761333883606867700,5.58486767578125,0.006719512399286032,-0.007941242307424545,0.0054977829568088055
1761333883625567700,5.603567626953125,-0.006108647678047419,-0.010995565913617611,-0.010995565913617611
1761333883644268000,5.62226806640625,-0.002443459117785096,-0.012217295356094837,-0.011606430634856224
1761333883662968300,5.64096826171875,-0.001221729558892548,-0.018325943499803543,0.011606430634856224
1761333883681668400,5.65966845703125,-0.007330377586185932,-0.004276053514331579,0.040317077189683914
1761333883700368600,5.67836865234375,-0.002443459117785096,0.01588248461484909,0.05192350596189499
1761333883719069000,5.69706884765625,0.001221729558892548,0.007330377586185932,0.03481929376721382
1761333883737769000,5.71576904296875,0.001221729558892548,-0.020158538594841957,-0.006719512399286032
1761333883756469200,5.73446923828125,0.008552107028663158,-0.021380268037319183,-0.03787361457943916
1761333883775169300,5.753169189453125,0.010384701192378998,-0.004886918235570192,-0.023212861269712448
1761333883793869600,5.77186962890625,0.011606430634856224,-0.007941242307424545,0.004276053514331579
1761333883812569900,5.79056982421875,0.010384701192378998,-0.011606430634856224,0.010995565913617611
1761333883831270100,5.809270263671875,0.013439024798572063,-0.01649334840476513,0.01588248461484909
1761333883849970200,5.82797021484375,0.021380268037319183,-0.0256563201546669,0.021991131827235222
1761333883868670500,5.84667041015625,0.03237583488225937,-0.030543239787220955,0.010995565913617611
1761333883887370500,5.86537060546875,0.031154103577136993,-0.04214967042207718,0
1761333883906070800,5.88407080078125,0.02260199747979641,-0.01893680728971958,0.015271619893610477
1761333883924771000,5.90277099609375,0.021380268037319183,0.010995565913617611,0.04276053607463837
1761333883943471000,5.92147119140625,0.020158538594841957,-0.004276053514331579,0.03298669680953026
1761333883962171400,5.94017138671875,0.02871064469218254,-0.023212861269712448,-0.001221729558892548
1761333883980871700,5.95887158203125,0.037262752652168274,-0.03481929376721382,-0.012217295356094837
1761333883999571700,5.97757177734375,0.04886918142437935,-0.020769402384757996,0.006108647678047419
1761333884018272000,5.99627197265625,0.05070177838206291,-0.008552107028663158,0.030543239787220955
1761333884036972000,6.014971923828125,0.04276053607463837,-0.01282816007733345,0.039706211537122726
1761333884055672300,6.03367236328125,0.030543239787220955,-0.010995565913617611,0.020158538594841957
1761333884074372600,6.05237255859375,0.017715077847242355,-0.003665188793092966,-0.001221729558892548
1761333884093072600,6.07107275390625,-0.002443459117785096,-0.013439024798572063,-0.026878049597144127
1761333884111773000,6.08977294921875,0,0.0030543238390237093,-0.04886918142437935
1761333884130473200,6.10847314453125,0.0513126403093338,-0.007941242307424545,-0.05192350596189499
1761333884149173200,6.12717333984375,0.09590577334165573,-0.025045456364750862,-0.017715077847242355
1761333884167873500,6.14587353515625,0.11362084746360779,-0.043371398001909256,0.01649334840476513
1761333884186573600,6.164573486328125,0.11239911615848541,-0.04276053607463837,0.027488915249705315
1761333884205273900,6.18327392578125,0.09040798991918564,-0.014049889519810677,0.037262752652168274
1761333884223974100,6.20197412109375,0.06963858753442764,-0.001832594396546483,0.04825831577181816
1761333884242674200,6.220674072265625,0.04214967042207718,-0.014660755172371864,0.04153880476951599
1761333884261374500,6.23937451171875,0.003665188793092966,-0.028099779039621353,0.009162971749901772
1761333884280074800,6.25807470703125,-0.020769402384757996,-0.03298669680953026,-0.024434590712189674
1761333884298775000,6.276775146484375,-0.02260199747979641,-0.037262752652168274,-0.017104214057326317
1761333884317475000,6.29547509765625,-0.018325943499803543,-0.02871064469218254,0.024434590712189674
1761333884336175000,6.314175048828125,-0.012217295356094837,-0.004276053514331579,0.06108647957444191
1761333884354875400,6.33287548828125,-0.006108647678047419,-0.001832594396546483,0.05864302068948746
1761333884373575700,6.35157568359375,0.007941242307424545,-0.006108647678047419,0.025045456364750862
1761333884392276000,6.37027587890625,0.01893680728971958,-0.025045456364750862,-0.012217295356094837
1761333884410976000,6.38897607421875,0.029932374134659767,-0.043371398001909256,-0.04214967042207718
1761333884429676300,6.40767626953125,0.02932151034474373,-0.046425722539424896,-0.03787361457943916
1761333884448376600,6.42637646484375,0.024434590712189674,-0.017715077847242355,-0.004276053514331579
1761333884467076600,6.44507666015625,0.006108647678047419,-0.001832594396546483,0.03543015569448471
1761333884485777000,6.46377685546875,0.001832594396546483,-0.014049889519810677,0.043371398001909256
1761333884504477200,6.482477294921875,0.002443459117785096,-0.020158538594841957,0.036651886999607086
1761333884523177200,6.50117724609375,0.003665188793092966,-0.023823726922273636,0.0256563201546669
1761333884541877500,6.51987744140625,0.003665188793092966,-0.024434590712189674,0.020769402384757996
1761333884560577500,6.53857763671875,0.012217295356094837,-0.007330377586185932,0.03909534588456154
1761333884579277800,6.55727783203125,0.01649334840476513,-0.01588248461484909,0.053145237267017365
1761333884597978000,6.57597802734375,0.011606430634856224,-0.023212861269712448,0.04581485688686371
1761333884616678100,6.59467822265625,-0.009162971749901772,-0.003665188793092966,0.034208428114652634
1761333884635378400,6.61337841796875,-0.03176496922969818,0.009162971749901772,0.02932151034474373
1761333884654078700,6.63207861328125,-0.039706211537122726,-0.017104214057326317,0.009773836471140385
1761333884672778800,6.65077880859375,-0.03909534588456154,-0.040317077189683914,-0.015271619893610477
1761333884691479000,6.66947900390625,-0.04214967042207718,-0.006108647678047419,-0.007330377586185932
1761333884710179300,6.688179443359375,-0.053756099194288254,0.014049889519810677,0.009773836471140385
1761333884728879400,6.70687939453125,-0.04886918142437935,0.004276053514331579,-0.008552107028663158
1761333884747579600,6.72557958984375,-0.036651886999607086,-0.007941242307424545,-0.056199558079242706
1761333884766280000,6.744280029296875,-0.03176496922969818,-0.02932151034474373,-0.09285144507884979
1761333884784980000,6.76297998046875,-0.023212861269712448,-0.04276053607463837,-0.09529490768909454
1761333884803680300,6.78168017578125,-0.01282816007733345,-0.024434590712189674,-0.06230820715427399
1761333884822380500,6.800380615234375,-0.000610864779446274,-0.01282816007733345,-0.007941242307424545
1761333884841080600,6.81908056640625,-0.020769402384757996,0.000610864779446274,0.03237583488225937
1761333884859780900,6.83778076171875,-0.03298669680953026,0.029932374134659767,0.05558869615197182
1761333884878481200,6.856481201171875,-0.010995565913617611,0.03543015569448471,0.07330377399921417
1761333884897181200,6.87518115234375,0.012217295356094837,0.001221729558892548,0.05925388261675835
1761333884915881500,6.893881591796875,0.04214967042207718,-0.056810423731803894,0.017104214057326317
1761333884934581800,6.912581787109375,0.07086031138896942,-0.08368847519159317,-0.010995565913617611
1761333884953281800,6.93128173828125,0.05558869615197182,-0.047036588191986084,-0.000610864779446274
1761333884971982000,6.949982177734375,0.018325943499803543,-0.001832594396546483,0.03298669680953026
1761333884990682000,6.96868212890625,0.003665188793092966,0.001221729558892548,0.03176496922969818
1761333885009382400,6.98738232421875,0.031154103577136993,-0.007941242307424545,-0.009773836471140385
1761333885028082700,7.006082763671875,0.043371398001909256,-0.01588248461484909,-0.025045456364750862
1761333885046782700,7.02478271484375,0.03909534588456154,-0.008552107028663158,-0.010995565913617611
1761333885065483000,7.04348291015625,0.02871064469218254,-0.006108647678047419,-0.001832594396546483
1761333885084183300,7.062183349609375,0.013439024798572063,0.007941242307424545,0.02626718580722809
1761333885102883600,7.080883544921875,-0.013439024798572063,0.009773836471140385,0.07452550530433655
1761333885121583600,7.09958349609375,-0.06597339361906052,0.01588248461484909,0.07941242307424545
1761333885140284000,7.118283935546875,-0.08063415437936783,0.02626718580722809,0.033597562462091446
1761333885158984000,7.13698388671875,-0.053756099194288254,0.020158538594841957,-0.0054977829568088055
1761333885177684200,7.155684326171875,-0.02626718580722809,-0.007941242307424545,-0.007941242307424545
1761333885196384500,7.174384521484375,-0.01954767294228077,-0.020158538594841957,0.01649334840476513
1761333885215084500,7.19308447265625,-0.004886918235570192,-0.009773836471140385,0.023823726922273636
1761333885233784800,7.211784912109375,0.0054977829568088055,-0.0054977829568088055,0.02626718580722809
1761333885252485000,7.230485107421875,-0.009773836471140385,-0.015271619893610477,0.02871064469218254
1761333885271185200,7.24918505859375,-0.0360410213470459,-0.003665188793092966,0.018325943499803543
1761333885289885400,7.267885498046875,-0.05192350596189499,0.014660755172371864,-0.007941242307424545
1761333885308585700,7.286585693359375,-0.039706211537122726,-0.0054977829568088055,-0.03237583488225937
1761333885327285800,7.30528564453125,-0.018325943499803543,-0.023823726922273636,-0.043371398001909256
1761333885345986000,7.323986083984375,0.0030543238390237093,-0.014660755172371864,-0.043371398001909256
1761333885364686300,7.342686279296875,0.01588248461484909,-0.024434590712189674,-0.03787361457943916
1761333885383386400,7.361386474609375,0.01893680728971958,-0.0360410213470459,-0.039706211537122726
1761333885402086700,7.380086669921875,0.013439024798572063,-0.013439024798572063,-0.034208428114652634
1761333885420786700,7.39878662109375,0.014660755172371864,-0.006108647678047419,-0.023823726922273636
1761333885439487000,7.417487060546875,0.017715077847242355,-0.02260199747979641,-0.013439024798572063
1761333885458187300,7.436187255859375,0.01954767294228077,-0.025045456364750862,-0.009773836471140385
1761333885476887300,7.45488720703125,0.023823726922273636,-0.021380268037319183,0.006108647678047419
1761333885495587600,7.473587646484375,0.03237583488225937,-0.003665188793092966,0.043371398001909256
1761333885514287900,7.492287841796875,0.01954767294228077,0.01282816007733345,0.04886918142437935
1761333885532988200,7.51098828125,0.017715077847242355,0.007941242307424545,0.007941242307424545
1761333885551688200,7.529688232421875,0.02932151034474373,-0.04459312930703163,-0.039706211537122726
1761333885570388500,7.548388427734375,0.04764745384454727,-0.05803215503692627,-0.05925388261675835
1761333885589088800,7.5670888671875,0.050090912729501724,-0.026878049597144127,-0.04214967042207718
1761333885607788800,7.585788818359375,0.053756099194288254,0.01588248461484909,0
1761333885626489000,7.604489013671875,0.06291907280683517,0.014049889519810677,0.014660755172371864
1761333885645189400,7.623189453125,0.06902772188186646,-0.003665188793092966,-0.010995565913617611
1761333885663889400,7.641889404296875,0.07147117704153061,-0.01954767294228077,-0.04459312930703163
1761333885682589700,7.660589599609375,0.08002328872680664,-0.023212861269712448,-0.04764745384454727
1761333885701290000,7.6792900390625,0.07880155742168427,-0.023212861269712448,-0.009773836471140385
1761333885719990000,7.697989990234375,0.07513637095689774,-0.010995565913617611,0.029932374134659767
1761333885738690300,7.716690185546875,0.06963858753442764,0,0.04581485688686371
1761333885757390300,7.735390380859375,0.059864748269319534,-0.01588248461484909,0.04153880476951599
1761333885776090600,7.754090576171875,0.056199558079242706,-0.030543239787220955,0.023823726922273636
1761333885794791000,7.772791015625,0.05558869615197182,-0.01954767294228077,0.021991131827235222
1761333885813491000,7.791490966796875,0.059864748269319534,-0.013439024798572063,0.029932374134659767
1761333885832191200,7.810191162109375,0.06719512492418289,-0.029932374134659767,0.013439024798572063
1761333885850891500,7.8288916015625,0.06414080411195755,-0.034208428114652634,-0.004276053514331579
1761333885869591800,7.847591796875,0.07024945318698883,-0.024434590712189674,-0.004886918235570192
1761333885888291800,7.866291748046875,0.07574722915887833,-0.03481929376721382,0.007941242307424545
1761333885906992000,7.8849921875,0.05558869615197182,-0.031154103577136993,0.015271619893610477
1761333885925692400,7.9036923828125,0.020769402384757996,0,0.002443459117785096
1761333885944392400,7.922392333984375,0.0054977829568088055,0.015271619893610477,-0.013439024798572063
1761333885963092700,7.9410927734375,0.014660755172371864,-0.009162971749901772,-0.023823726922273636
1761333885981793000,7.95979296875,0.03481929376721382,-0.017104214057326317,-0.0360410213470459
1761333886000493000,7.9784931640625,0.04886918142437935,-0.023212861269712448,-0.04886918142437935
1761333886019193300,7.997193359375,0.05497783049941063,-0.03543015569448471,-0.06414080411195755
1761333886037893600,8.0158935546875,0.05070177838206291,-0.04459312930703163,-0.07147117704153061
1761333886056593700,8.03459375,0.043982263654470444,-0.026878049597144127,-0.05558869615197182
1761333886075294000,8.0532939453125,0.026878049597144127,-0.014049889519810677,-0.026878049597144127
1761333886093994000,8.071993896484376,0.004886918235570192,-0.023823726922273636,-0.01588248461484909
1761333886112694300,8.0906943359375,-0.015271619893610477,-0.006719512399286032,-0.004886918235570192
1761333886131394600,8.10939453125,-0.01893680728971958,0.017104214057326317,0.023212861269712448
1761333886150094600,8.128094482421876,-0.01649334840476513,0.010384701192378998,0.03237583488225937
1761333886168795000,8.146794921875,-0.007330377586185932,-0.021380268037319183,-0.012217295356094837
1761333886187495200,8.1654951171875,0.008552107028663158,-0.04459312930703163,-0.04764745384454727
1761333886206195500,8.184195556640624,0.024434590712189674,-0.059864748269319534,-0.0409279391169548
1761333886224895500,8.2028955078125,0.018325943499803543,-0.03787361457943916,-0.006719512399286032
1761333886243595800,8.221595703125,0.007941242307424545,0.001832594396546483,0.021380268037319183
1761333886262296000,8.240296142578124,-0.002443459117785096,0.007941242307424545,0.028099779039621353
1761333886280996000,8.25899609375,-0.018325943499803543,-0.002443459117785096,0.007941242307424545
1761333886299696400,8.2776962890625,-0.024434590712189674,-0.023212861269712448,-0.026878049597144127
1761333886318396700,8.296396728515624,-0.01954767294228077,-0.0360410213470459,-0.059864748269319534
1761333886337096700,8.3150966796875,-0.014660755172371864,-0.0409279391169548,-0.046425722539424896
1761333886355797000,8.333796875,0.000610864779446274,-0.014049889519810677,-0.004276053514331579
1761333886374497300,8.352497314453124,-0.0030543238390237093,-0.006719512399286032,0.023823726922273636
1761333886393197300,8.371197265625,-0.001221729558892548,-0.017104214057326317,0.02871064469218254
1761333886411897600,8.389897705078125,-0.004276053514331579,-0.031154103577136993,0.023823726922273636
1761333886430598000,8.408597900390625,-0.013439024798572063,-0.023212861269712448,0.01954767294228077
1761333886449298000,8.4272978515625,-0.01893680728971958,-0.015271619893610477,0.021380268037319183
1761333886467998200,8.445998291015625,-0.017715077847242355,-0.0054977829568088055,0.031154103577136993
1761333886486698200,8.4646982421875,-0.020158538594841957,-0.002443459117785096,0.04214967042207718
1761333886505398500,8.4833984375,-0.021991131827235222,0.006108647678047419,0.04214967042207718
1761333886524098800,8.502098876953125,-0.028099779039621353,0.007330377586185932,0.03298669680953026
1761333886542799000,8.520799072265625,-0.03176496922969818,0.0030543238390237093,0.015271619893610477
1761333886561499100,8.5394990234375,-0.02871064469218254,0.001221729558892548,0.000610864779446274
1761333886580199400,8.558199462890625,-0.023823726922273636,-0.0030543238390237093,-0.017715077847242355
1761333886598899700,8.576899658203125,-0.015271619893610477,0.020158538594841957,-0.029932374134659767
1761333886617599700,8.595599853515624,0.006108647678047419,-0.006108647678047419,-0.043982263654470444
1761333886636300000,8.614300048828126,0.0360410213470459,-0.029932374134659767,-0.056810423731803894
1761333886655000300,8.633000244140625,0.05192350596189499,-0.018325943499803543,-0.05436696484684944
1761333886673700400,8.651700439453125,0.05253437161445618,-0.020769402384757996,-0.023212861269712448
1761333886692400600,8.670400634765626,0.05070177838206291,-0.02260199747979641,0.004276053514331579
1761333886711101000,8.689100830078125,0.0513126403093338,-0.029932374134659767,0.006108647678047419
1761333886729801000,8.707801025390625,0.0360410213470459,-0.03298669680953026,0.008552107028663158
1761333886748501200,8.726501220703126,0.007330377586185932,-0.027488915249705315,0.023212861269712448
1761333886767201500,8.745201416015625,-0.010995565913617611,-0.02626718580722809,0.02626718580722809
1761333886785901600,8.763901611328125,-0.021991131827235222,-0.007941242307424545,0.028099779039621353
1761333886804601900,8.782601806640624,-0.03909534588456154,-0.001832594396546483,0.024434590712189674
1761333886823302000,8.801302001953125,-0.047036588191986084,-0.015271619893610477,-0.0054977829568088055
1761333886842002400,8.82000244140625,-0.03298669680953026,-0.053756099194288254,-0.043371398001909256
1761333886860702500,8.838702392578124,-0.010384701192378998,-0.06230820715427399,-0.053145237267017365
1761333886879402800,8.85740283203125,-0.001832594396546483,-0.029932374134659767,-0.026878049597144127
1761333886898103000,8.87610302734375,-0.004276053514331579,-0.007941242307424545,0.028099779039621353
1761333886916803000,8.894802978515624,0.0030543238390237093,0.001832594396546483,0.05192350596189499
1761333886935503400,8.91350341796875,0.014049889519810677,0.001832594396546483,0.03481929376721382
1761333886954203600,8.93220361328125,0.03176496922969818,-0.014660755172371864,0.01649334840476513
1761333886972903700,8.950903564453125,0.0409279391169548,-0.02626718580722809,0.018325943499803543
1761333886991604000,8.96960400390625,0.043982263654470444,-0.020769402384757996,0.01649334840476513
1761333887010304000,8.988303955078125,0.04520399495959282,-0.02871064469218254,0.012217295356094837
1761333887029004300,9.00700439453125,0.037262752652168274,-0.028099779039621353,0.014660755172371864
1761333887047704600,9.02570458984375,0.03543015569448471,-0.021991131827235222,0.004886918235570192
1761333887066404600,9.044404541015625,0.02871064469218254,-0.021991131827235222,0.002443459117785096
1761333887085105000,9.06310498046875,0.015271619893610477,-0.012217295356094837,0.021991131827235222
1761333887103805200,9.08180517578125,-0.000610864779446274,-0.001221729558892548,0.033597562462091446
1761333887122505200,9.100505126953125,-0.003665188793092966,0.006719512399286032,0.018325943499803543
1761333887141205500,9.11920556640625,-0.000610864779446274,-0.003665188793092966,0.0030543238390237093
1761333887159905800,9.13790576171875,0.004886918235570192,-0.017715077847242355,-0.0030543238390237093
1761333887178606000,9.156606201171876,0.012217295356094837,-0.004276053514331579,0.010384701192378998
1761333887197306000,9.17530615234375,0.018325943499803543,-0.002443459117785096,0.017104214057326317
1761333887216006400,9.19400634765625,0.014049889519810677,-0.006108647678047419,0.010384701192378998
1761333887234706700,9.212706787109376,-0.000610864779446274,-0.009773836471140385,0.004886918235570192
1761333887253406700,9.23140673828125,-0.007330377586185932,-0.007330377586185932,0.004276053514331579
1761333887272107000,9.25010693359375,-0.004276053514331579,-0.007330377586185932,-0.006108647678047419
1761333887290807300,9.268807373046876,-0.004886918235570192,-0.001832594396546483,-0.004276053514331579
1761333887309507300,9.28750732421875,0.004886918235570192,-0.0030543238390237093,-0.004276053514331579
1761333887328207600,9.30620751953125,0.012217295356094837,-0.017715077847242355,-0.024434590712189674
1761333887346908000,9.324907958984374,0.018325943499803543,-0.017715077847242355,-0.03481929376721382
1761333887365608000,9.34360791015625,-0.010995565913617611,-0.01954767294228077,0.053756099194288254
1761333887384308200,9.36230810546875,0.05558869615197182,-0.10567960888147354,0.023212861269712448
1761333887403008500,9.381008544921874,0.06841685622930527,-0.033597562462091446,-0.01893680728971958
1761333887421708500,9.39970849609375,0.0409279391169548,-0.010384701192378998,-0.04214967042207718
1761333887440408800,9.418408935546875,0.020158538594841957,-0.012217295356094837,-0.006719512399286032
1761333887459109000,9.437109130859374,-0.007330377586185932,0.007941242307424545,0.0720820426940918
1761333887477809400,9.455809326171876,-0.024434590712189674,0.0360410213470459,0.13072505593299866
