time,seconds_elapsed,z,y,x
1761333845180212200,0.083212158203125,9.702896118164062,1.222732424736023,0.794417142868042
1761333845198912500,0.10191259765625,10.104889869689941,0.9643075466156006,0.4019941985607147
1761333845217612300,0.1206123046875,9.954142570495605,1.1509476900100708,0.20338992774486542
1761333845236312600,0.1393125,9.767501831054688,1.2538390159606934,0.20578274130821228
1761333845255012600,0.1580126953125,9.580862045288086,1.3160524368286133,0.37088751792907715
1761333845273712600,0.176712646484375,9.487542152404785,1.4476577043533325,0.11964113265275955
1761333845292412700,0.19541259765625,9.53061294555664,1.4715858697891235,-0.02632104977965355
1761333845311112700,0.21411279296875,9.767501831054688,1.4141582250595093,0.2679961323738098
1761333845329812700,0.232812744140625,9.958928108215332,1.4835500717163086,0.3613162338733673
1761333845348512800,0.2515126953125,9.652647018432617,1.4739787578582764,0.2871387302875519
1761333845367212800,0.270212890625,9.229117393493652,1.6079767942428589,0.19621145725250244
1761333845385912800,0.288912841796875,9.186046600341797,1.6055840253829956,0.11964113265275955
1761333845404612900,0.30761279296875,9.480362892150879,1.5625132322311401,0.038285162299871445
1761333845423313000,0.32631298828125,10.145567893981934,1.1653046607971191,0.43549370765686035
1761333845442013000,0.345012939453125,10.408778190612793,1.1653046607971191,-0.1698904037475586
1761333845460713000,0.363712890625,10.442277908325195,1.069591760635376,-0.13878370821475983
1761333845479413000,0.3824130859375,10.17428207397461,1.210768222808838,-0.5144568681716919
1761333845498113000,0.401113037109375,9.973284721374512,1.3040883541107178,-0.34217363595962524
1761333845516813300,0.419813232421875,9.856036186218262,1.4428720474243164,-0.39481574296951294
1761333845535513300,0.438513427734375,9.90149974822998,1.3710874319076538,-0.1339980661869049
1761333845554213400,0.45721337890625,9.731609344482422,1.332802176475525,-0.2679961323738098
1761333845572913400,0.475913330078125,9.53779125213623,1.246660590171814,-0.2560320198535919
1761333845591613400,0.494613525390625,9.528220176696777,1.3040883541107178,-0.2991028428077698
1761333845610313500,0.5133134765625,9.81535816192627,1.2658032178878784,0.007178467698395252
1761333845629013500,0.532013427734375,9.80100154876709,1.2131611108779907,-0.3206382393836975
1761333845647713500,0.550713623046875,9.930213928222656,1.1653046607971191,-0.20338992774486542
1761333845666413600,0.56941357421875,10.1216402053833,1.1940184831619263,-0.16510476171970367
1761333845685113600,0.588113525390625,10.16710376739502,1.1485549211502075,-0.16749759018421173
1761333845703813600,0.606813720703125,10.013962745666504,1.098305583000183,-0.08135596662759781
1761333845722513700,0.625513671875,10.01156997680664,1.074377417564392,-0.17228323221206665
1761333845741213700,0.644213623046875,10.001998901367188,1.0193424224853516,-0.18903298676013947
1761333845759913700,0.662913818359375,9.863214492797852,1.069591760635376,-0.15314064919948578
1761333845778613800,0.68161376953125,9.633503913879395,1.0121639966964722,-0.2153540402650833
1761333845797314000,0.70031396484375,9.489934921264648,0.9954141974449158,-0.22013968229293823
1761333845816013800,0.719013916015625,9.501898765563965,0.9954141974449158,-0.21296121180057526
1761333845834714000,0.737714111328125,9.796216011047363,0.9858429431915283,-0.26081767678260803
1761333845853414100,0.7564140625,10.076175689697266,0.9690931439399719,-0.24885354936122894
1761333845872114200,0.7751142578125,10.066604614257812,0.9355936646461487,-0.019142581149935722
1761333845890814200,0.793814208984375,9.985248565673828,0.9786644577980042,0.04785645380616188
1761333845909514200,0.81251416015625,9.93260669708252,1.0528420209884644,0.12681959569454193
1761333845928214300,0.83121435546875,9.827322959899902,1.1198409795761108,0.2799602448940277
1761333845946914300,0.849914306640625,9.695717811584473,1.1700903177261353,0.34217363595962524
1761333845965614300,0.8686142578125,9.748359680175781,1.1485549211502075,0.23449662327766418
1761333845984314400,0.887314453125,9.908679008483887,1.1509476900100708,0.24167509377002716
1761333846003014400,0.906014404296875,9.834501266479492,1.1748759746551514,0.39481574296951294
1761333846021714700,0.924714599609375,9.748359680175781,1.1341979503631592,0.29431718587875366
1761333846040414500,0.94341455078125,9.81535816192627,1.1389836072921753,0.17706887423992157
1761333846059114800,0.96211474609375,9.934999465942383,1.1461620330810547,0.14835500717163086
1761333846077814800,0.980814697265625,9.805787086486816,1.153340458869934,0.3206382393836975
1761333846096514800,0.999514892578125,9.7938232421875,1.1653046607971191,0.31824541091918945
1761333846115214800,1.01821484375,9.745966911315918,1.246660590171814,0.33499518036842346
1761333846133915000,1.036914794921875,9.78664493560791,1.210768222808838,0.31345975399017334
1761333846152615000,1.055614990234375,9.994820594787598,1.1030912399291992,0.16749759018421173
1761333846171315000,1.07431494140625,10.243673324584961,1.0815558433532715,0.19621145725250244
1761333846190015000,1.093014892578125,10.212567329406738,1.155733346939087,0.2560320198535919
1761333846208715000,1.111715087890625,9.985248565673828,1.1461620330810547,0.15314064919948578
1761333846227415000,1.1304150390625,9.7938232421875,1.1772687435150146,0.14356936514377594
1761333846246115000,1.149114990234375,9.81535816192627,1.196411371231079,0.17946170270442963
1761333846264815000,1.167815185546875,9.80817985534668,1.155733346939087,0.24646073579788208
1761333846283515100,1.18651513671875,9.765109062194824,1.1461620330810547,0.26081767678260803
1761333846302215400,1.20521533203125,9.753145217895508,1.1676974296569824,0.31824541091918945
1761333846320915200,1.223915283203125,9.717252731323242,1.196411371231079,0.24167509377002716
1761333846339615500,1.242615478515625,9.863214492797852,1.1700903177261353,0.20817556977272034
1761333846358315500,1.2613154296875,9.8871431350708,1.184447169303894,0.19621145725250244
1761333846377015600,1.280015625,9.803394317626953,1.2011969089508057,0.16510476171970367
1761333846395715600,1.298715576171875,9.729216575622559,1.1724830865859985,0.16749759018421173
1761333846414415600,1.31741552734375,9.908679008483887,1.196411371231079,0.10289137065410614
1761333846433115600,1.33611572265625,10.021141052246094,1.2059825658798218,0.2225325107574463
1761333846451815700,1.354815673828125,9.882357597351074,1.2729816436767578,0.1818545162677765
1761333846470515700,1.373515625,9.77707290649414,1.337587833404541,0.1866401731967926
1761333846489215700,1.3922158203125,9.844072341918945,1.4021940231323242,0.16271193325519562
1761333846507915800,1.410915771484375,9.829715728759766,1.3902299404144287,0.17228323221206665
1761333846526615800,1.42961572265625,9.80817985534668,1.3710874319076538,0.17946170270442963
1761333846545315800,1.44831591796875,9.882357597351074,1.2945170402526855,0.2105683982372284
1761333846564016000,1.46701611328125,9.824930191040039,1.3088740110397339,0.19142581522464752
1761333846582716200,1.485716064453125,9.745966911315918,1.2945170402526855,0.21774685382843018
1761333846601416200,1.504416259765625,9.734002113342285,1.2323036193847656,0.1818545162677765
1761333846620116200,1.5231162109375,9.705288887023926,1.2035897970199585,0.21296121180057526
1761333846638816300,1.541816162109375,9.712467193603516,1.1772687435150146,0.11964113265275955
1761333846657516300,1.560516357421875,9.619147300720215,1.191625714302063,0.16271193325519562
1761333846676216300,1.57921630859375,9.588040351867676,1.2370892763137817,0.2560320198535919
1761333846694916400,1.597916259765625,9.54496955871582,1.3088740110397339,0.30149564146995544
1761333846713616400,1.616616455078125,9.454042434692383,1.4213366508483887,0.20099709928035736
1761333846732316400,1.63531640625,9.590433120727539,1.4452649354934692,0.10289137065410614
1761333846751016400,1.654016357421875,9.951749801635742,1.404586911201477,0.07178468257188797
1761333846769716500,1.672716552734375,10.179067611694336,1.368694543838501,0.11485548317432404
1761333846788416800,1.691416748046875,10.009177207946777,1.404586911201477,0.17228323221206665
1761333846807116500,1.710116455078125,10.028319358825684,1.423729419708252,0.1579262912273407
1761333846825816800,1.72881689453125,10.061819076538086,1.3495519161224365,0.1459621787071228
1761333846844516900,1.747516845703125,10.023533821105957,1.3184453248977661,0.1818545162677765
1761333846863217000,1.766216796875,9.80817985534668,1.2179467678070068,0.12681959569454193
1761333846881917000,1.7849169921875,9.592825889587402,1.1892328262329102,0.07417750358581543
1761333846900617000,1.803616943359375,9.53779125213623,1.1222338676452637,-0.0023928226437419653
1761333846919317000,1.82231689453125,9.80100154876709,1.179661512374878,-0.18903298676013947
1761333846938017000,1.84101708984375,10.04985523223877,1.3639088869094849,-0.07178468257188797
1761333846956717000,1.859717041015625,10.006784439086914,1.545763373374939,0.062213387340307236
1761333846975417000,1.8784169921875,9.954142570495605,1.6534404754638672,0.15074782073497772
1761333846994117000,1.8971171875,9.915857315063477,1.7395820617675781,0.1459621787071228
1761333847012817400,1.9158173828125,9.944570541381836,1.7276179790496826,0.1052841991186142
1761333847031517200,1.93451708984375,9.875179290771484,1.6390835046768188,0.059820566326379776
1761333847050217500,1.953217529296875,9.743574142456055,1.5361921787261963,-0.0023928226437419653
1761333847068917500,1.97191748046875,9.597611427307129,1.3830515146255493,0.05742774158716202
1761333847087617500,1.990617431640625,9.521040916442871,1.3304094076156616,0.031106693670153618
1761333847106317600,2.009317626953125,9.614361763000488,1.3184453248977661,0.05024927482008934
1761333847125017600,2.028017578125,9.726823806762695,1.2873386144638062,0.08614161610603333
1761333847143717600,2.046717529296875,9.81535816192627,1.28255295753479,0.07896314561367035
1761333847162417700,2.065417724609375,9.824930191040039,1.3280165195465088,0.08853443711996078
1761333847181117700,2.08411767578125,9.707681655883789,1.423729419708252,0.019142581149935722
1761333847199817700,2.102817626953125,9.540184020996094,1.459621787071228,-0.007178467698395252
1761333847218517800,2.121517822265625,9.595218658447266,1.4620146751403809,0.04785645380616188
1761333847237217800,2.1402177734375,9.726823806762695,1.490728497505188,0.11246266216039658
1761333847255917800,2.158917724609375,9.858428955078125,1.5074782371520996,0.11006984114646912
1761333847274618000,2.1776181640625,9.913464546203613,1.466800332069397,0.08135596662759781
1761333847293318000,2.19631787109375,9.896714210510254,1.4739787578582764,0.009571290574967861
1761333847312018200,2.21501806640625,9.868000984191895,1.4500504732131958,-0.04546362906694412
1761333847330718200,2.23371826171875,9.856036186218262,1.4428720474243164,0.04307080805301666
1761333847349418200,2.252418212890625,9.796216011047363,1.3926228284835815,0.0526420995593071
1761333847368118300,2.2711181640625,9.853643417358398,1.3591232299804688,0.1339980661869049
1761333847386818300,2.289818359375,9.834501266479492,1.399801254272461,0.15314064919948578
1761333847405518300,2.308518310546875,9.66221809387207,1.423729419708252,0.18903298676013947
1761333847424218400,2.32721826171875,9.600004196166992,1.404586911201477,0.2632105052471161
1761333847442918700,2.345918701171875,9.748359680175781,1.34476637840271,0.24646073579788208
1761333847461618400,2.364618408203125,9.839286804199219,1.3758729696273804,0.23688943684101105
1761333847480318700,2.383318603515625,9.824930191040039,1.4069796800613403,0.20099709928035736
1761333847499018800,2.402018798828125,9.91825008392334,1.4069796800613403,0.11485548317432404
1761333847517718800,2.42071875,9.913464546203613,1.3567304611206055,0.13639089465141296
1761333847536418800,2.439418701171875,9.844072341918945,1.3830515146255493,0.11246266216039658
1761333847555118800,2.458118896484375,9.8871431350708,1.34476637840271,0.1339980661869049
1761333847573819000,2.47681884765625,9.903892517089844,1.3782658576965332,0.16510476171970367
1761333847592519000,2.495518798828125,9.820143699645996,1.399801254272461,0.20099709928035736
1761333847611219000,2.514218994140625,9.707681655883789,1.4380863904953003,0.16031911969184875
1761333847629919000,2.5329189453125,9.707681655883789,1.430907964706421,0.11724831163883209
1761333847648619000,2.551618896484375,9.659825325012207,1.4165509939193726,0.18903298676013947
1761333847667319000,2.570319091796875,9.640682220458984,1.4380863904953003,0.14356936514377594
1761333847686019000,2.58901904296875,9.647860527038574,1.4691931009292603,0.15553347766399384
1761333847704719400,2.60771923828125,9.726823806762695,1.526620864868164,0.19621145725250244
1761333847723419400,2.62641943359375,9.824930191040039,1.490728497505188,0.20817556977272034
1761333847742119400,2.645119384765625,9.860821723937988,1.4404792785644531,0.13160525262355804
1761333847760819500,2.6638193359375,9.882357597351074,1.368694543838501,0.16749759018421173
1761333847779518700,2.682518798828125,9.702896118164062,1.3399807214736938,0.2584248483181
1761333847798220000,2.701219970703125,9.712467193603516,1.337587833404541,0.22013968229293823
1761333847816920000,2.719920166015625,9.836894035339355,1.3543375730514526,0.14835500717163086
1761333847835620000,2.7386201171875,10.021141052246094,1.3926228284835815,0.03349951654672623
1761333847854320000,2.757320068359375,9.91107177734375,1.404586911201477,-0.08374879509210587
1761333847873020200,2.776020263671875,9.681360244750977,1.3926228284835815,-0.062213387340307236
1761333847891720200,2.79472021484375,9.647860527038574,1.3830515146255493,0.004785645287483931
1761333847910420500,2.81342041015625,9.834501266479492,1.368694543838501,0.0526420995593071
1761333847929120500,2.83212060546875,9.93978500366211,1.3830515146255493,0.10289137065410614
1761333847947820500,2.850820556640625,9.8871431350708,1.3710874319076538,0.14835500717163086
1761333847966520600,2.8695205078125,9.78664493560791,1.3758729696273804,0.13160525262355804
1761333847985220600,2.888220703125,9.805787086486816,1.3806586265563965,0.18903298676013947
1761333848003920600,2.906920654296875,9.791430473327637,1.3639088869094849,0.12921242415905
1761333848022620700,2.92562060546875,9.757930755615234,1.3710874319076538,0.10767702013254166
1761333848041320700,2.94432080078125,9.731609344482422,1.3351950645446777,0.1052841991186142
1761333848060020700,2.963020751953125,9.614361763000488,1.2729816436767578,0.09571290761232376
1761333848078720800,2.981720703125,9.652647018432617,1.246660590171814,0.007178467698395252
1761333848097420800,3.0004208984375,9.796216011047363,1.191625714302063,-0.02392822690308094
1761333848116120800,3.019120849609375,10.013962745666504,1.2418749332427979,0.02153540402650833
1761333848134821000,3.037821044921875,10.164710998535156,1.3567304611206055,0.064606212079525
1761333848153521000,3.05652099609375,10.13599681854248,1.4787644147872925,0.10289137065410614
1761333848172221200,3.07522119140625,10.00439167022705,1.5050854682922363,0.05742774158716202
1761333848190921200,3.093921142578125,9.93260669708252,1.435693621635437,0.11246266216039658
1761333848209621200,3.112621337890625,9.896714210510254,1.3615161180496216,0.040677983313798904
1761333848228321300,3.1313212890625,9.798608779907227,1.3232308626174927,0.035892341285943985
1761333848247021300,3.150021240234375,9.724431037902832,1.3567304611206055,0.0526420995593071
1761333848265721300,3.168721435546875,9.990034103393555,1.3304094076156616,0.07178468257188797
1761333848284421400,3.18742138671875,10.054640769958496,1.3256237506866455,0.11246266216039658
1761333848303121400,3.206121337890625,9.798608779907227,1.2969099283218384,0.16031911969184875
1761333848321821400,3.224821533203125,9.554540634155273,1.3232308626174927,0.2153540402650833
1761333848340521700,3.243521728515625,9.53779125213623,1.3830515146255493,0.2273181527853012
1761333848359221800,3.2622216796875,9.671789169311523,1.428515076637268,0.21774685382843018
1761333848377921800,3.280921875,9.57607650756836,1.3567304611206055,0.1866401731967926
1761333848396621800,3.299621826171875,9.511469841003418,1.3591232299804688,0.09092725813388824
1761333848415321900,3.31832177734375,9.635896682739258,1.3184453248977661,0.14117653667926788
1761333848434022000,3.33702197265625,9.942177772521973,1.3423734903335571,0.1866401731967926
1761333848452722000,3.355721923828125,9.985248565673828,1.3423734903335571,0.17706887423992157
1761333848471422000,3.374421875,9.91107177734375,1.4165509939193726,0.11485548317432404
1761333848490122000,3.3931220703125,9.839286804199219,1.4452649354934692,0.10767702013254166
1761333848508822300,3.411822265625,9.80817985534668,1.3878371715545654,0.16510476171970367
1761333848527522000,3.43052197265625,9.78664493560791,1.3519448041915894,0.1698904037475586
1761333848546222300,3.449222412109375,9.820143699645996,1.3495519161224365,0.23210379481315613
1761333848564922400,3.46792236328125,9.836894035339355,1.3615161180496216,0.19381862878799438
1761333848583622400,3.486622314453125,9.753145217895508,1.3639088869094849,0.15074782073497772
1761333848602322400,3.505322509765625,9.812965393066406,1.3423734903335571,0.12203395366668701
1761333848621022500,3.5240224609375,9.829715728759766,1.3758729696273804,0.1339980661869049
1761333848639722500,3.542722412109375,9.863214492797852,1.3663017749786377,0.10049854964017868
1761333848658422500,3.561422607421875,9.927821159362793,1.3615161180496216,0.14835500717163086
1761333848677122600,3.58012255859375,9.820143699645996,1.3830515146255493,0.12442677468061447
1761333848695822600,3.598822509765625,9.702896118164062,1.3950155973434448,0.18424734473228455
1761333848714523000,3.61752294921875,9.734002113342285,1.430907964706421,0.14117653667926788
1761333848733223000,3.636222900390625,9.899106979370117,1.4380863904953003,0.24406790733337402
1761333848751923000,3.6549228515625,9.966106414794922,1.430907964706421,0.20099709928035736
1761333848770623000,3.673623046875,10.013962745666504,1.399801254272461,0.21296121180057526
1761333848789323000,3.692322998046875,10.102497100830078,1.4117653369903564,0.3086741268634796
1761333848808023000,3.71102294921875,10.073782920837402,1.3304094076156616,0.30149564146995544
1761333848826723000,3.72972314453125,10.03310489654541,1.3040883541107178,0.20338992774486542
1761333848845423000,3.748423095703125,9.81535816192627,1.215553879737854,0.2225325107574463
1761333848864123100,3.767123046875,9.635896682739258,1.184447169303894,0.26560330390930176
1761333848882823400,3.785823486328125,9.65503978729248,1.2346965074539185,0.3613162338733673
1761333848901523200,3.804523193359375,9.66939640045166,1.2586246728897095,0.31106695532798767
1761333848920223500,3.823223388671875,9.564111709594727,1.4189438819885254,0.28235307335853577
1761333848938923500,3.841923583984375,9.516255378723145,1.581655740737915,0.18903298676013947
1761333848957623600,3.86062353515625,9.516255378723145,1.6079767942428589,0.16031911969184875
1761333848976323600,3.879323486328125,9.664610862731934,1.5672988891601562,0.21774685382843018
1761333848995023600,3.898023681640625,9.726823806762695,1.4859428405761719,0.3397808074951172
1761333849013723600,3.9167236328125,9.719645500183105,1.3782658576965332,0.31345975399017334
1761333849032423700,3.935423583984375,9.834501266479492,1.435693621635437,0.33020952343940735
1761333849051123700,3.954123779296875,10.009177207946777,1.3567304611206055,0.3924229145050049
1761333849069823700,3.97282373046875,10.045069694519043,1.3902299404144287,0.3852444589138031
1761333849088524000,3.99152392578125,9.868000984191895,1.3878371715545654,0.3613162338733673
1761333849107223800,4.010223876953125,9.722038269042969,1.4117653369903564,0.2392822653055191
1761333849125924000,4.028924072265625,9.80100154876709,1.4572290182113647,0.24406790733337402
1761333849144624000,4.0476240234375,9.920642852783203,1.4644074440002441,0.26560330390930176
1761333849163324200,4.06632421875,9.9469633102417,1.4428720474243164,0.22492532432079315
1761333849182024200,4.085024169921875,9.870393753051758,1.3902299404144287,0.2153540402650833
1761333849200724200,4.10372412109375,9.942177772521973,1.3878371715545654,0.22492532432079315
1761333849219424300,4.12242431640625,9.889535903930664,1.3567304611206055,0.27756741642951965
1761333849238124300,4.141124267578125,9.772287368774414,1.3495519161224365,0.18903298676013947
1761333849256824600,4.159824462890625,9.626325607299805,1.404586911201477,0.2632105052471161
1761333849275524400,4.1785244140625,9.66221809387207,1.4691931009292603,0.4019941985607147
1761333849294224600,4.197224609375,9.664610862731934,1.5433706045150757,0.3038884699344635
1761333849312924700,4.215924560546875,9.56889820098877,1.5146567821502686,0.37088751792907715
1761333849331624700,4.234624755859375,9.461220741271973,1.5864413976669312,0.4331009089946747
1761333849350324700,4.25332470703125,9.442078590393066,1.495514154434204,0.4450650215148926
1761333849369024800,4.272024658203125,9.585647583007812,1.404586911201477,0.40677985548973083
1761333849387724800,4.290724853515625,9.724431037902832,1.3160524368286133,0.35892340540885925
1761333849406424800,4.3094248046875,9.81535816192627,1.2969099283218384,0.3158525824546814
1761333849425124900,4.328124755859375,10.028319358825684,1.3519448041915894,0.4307080805301666
1761333849443825200,4.3468251953125,10.159924507141113,1.4380863904953003,0.5216353535652161
1761333849462525200,4.365525146484375,10.159924507141113,1.5649060010910034,0.5479564070701599
1761333849481225200,4.38422509765625,10.04267692565918,1.5433706045150757,0.4091726839542389
1761333849499925200,4.40292529296875,9.899106979370117,1.6079767942428589,0.24167509377002716
1761333849518625300,4.421625244140625,9.796216011047363,1.6534404754638672,0.10289137065410614
1761333849537325300,4.4403251953125,9.66939640045166,1.710868239402771,0.15074782073497772
1761333849556025300,4.459025390625,9.774680137634277,1.698904037475586,0.1818545162677765
1761333849574725400,4.477725341796875,9.944570541381836,1.679761528968811,0.15553347766399384
1761333849593425400,4.49642529296875,9.645467758178711,1.7443677186965942,0.10767702013254166
1761333849612125700,4.515125732421875,9.513862609863281,1.7228323221206665,0.21296121180057526
1761333849630825500,4.533825439453125,9.592825889587402,1.576870083808899,0.5168496966362
1761333849649525800,4.55252587890625,9.626325607299805,1.3088740110397339,0.4570291340351105
1761333849668225800,4.571225830078125,9.367900848388672,1.222732424736023,0.21296121180057526
1761333849686925800,4.58992578125,9.157332420349121,1.2681959867477417,0.07896314561367035
1761333849705625900,4.6086259765625,9.588040351867676,1.2921242713928223,0.1746760457754135
1761333849724326000,4.627325927734375,10.2747802734375,1.2059825658798218,0.12681959569454193
1761333849743026000,4.64602587890625,10.351350784301758,1.2681959867477417,0.07178468257188797
1761333849761726200,4.664726318359375,9.966106414794922,1.490728497505188,0.275174617767334
1761333849780426200,4.68342626953125,9.827322959899902,1.5242279767990112,0.397208571434021
1761333849799126300,4.702126220703125,9.93260669708252,1.4141582250595093,0.36610186100006104
1761333849817826300,4.720826416015625,9.836894035339355,1.3519448041915894,0.4259224236011505
1761333849836526300,4.7395263671875,9.877572059631348,1.373480200767517,0.3517449200153351
1761333849855226400,4.758226318359375,9.822537422180176,1.3878371715545654,0.22492532432079315
1761333849873926400,4.776926513671875,9.858428955078125,1.404586911201477,0.22013968229293823
1761333849892626400,4.79562646484375,9.53061294555664,1.3902299404144287,0.2632105052471161
1761333849911326500,4.814326416015625,9.300901412963867,1.5074782371520996,0.34217363595962524
1761333849930026800,4.83302685546875,9.705288887023926,1.4021940231323242,0.39960137009620667
1761333849948726800,4.851726806640625,10.078569412231445,1.2370892763137817,0.363709032535553
1761333849967426800,4.8704267578125,9.863214492797852,1.2729816436767578,0.5096712112426758
1761333849986126800,4.889126953125,9.743574142456055,1.3351950645446777,0.42352959513664246
1761333850004827000,4.907826904296875,9.590433120727539,1.301695466041565,0.4043870270252228
1761333850023527000,4.92652685546875,9.554540634155273,1.2538390159606934,0.23210379481315613
1761333850042227000,4.94522705078125,9.80817985534668,1.196411371231079,0.28235307335853577
1761333850060927000,4.963927001953125,9.817750930786133,1.2562319040298462,0.2584248483181
1761333850079627300,4.982627197265625,9.896714210510254,1.3950155973434448,0.2919243574142456
1761333850098327000,5.0013271484375,10.071390151977539,1.459621787071228,0.363709032535553
1761333850117027300,5.02002734375,10.293923377990723,1.552941918373108,0.44027936458587646
1761333850135727400,5.038727294921875,10.459028244018555,1.5625132322311401,0.5144568681716919
1761333850154427400,5.057427490234375,10.344172477722168,1.6342978477478027,0.638883650302887
1761333850173127400,5.07612744140625,10.068997383117676,1.6773686408996582,0.6652047038078308
1761333850191827500,5.094827392578125,9.899106979370117,1.4620146751403809,0.48813581466674805
1761333850210527500,5.113527587890625,9.91825008392334,1.3926228284835815,0.6149554252624512
1761333850229227800,5.132227783203125,9.978070259094238,1.545763373374939,0.5958128571510315
1761333850247927600,5.150927490234375,10.03549861907959,1.5361921787261963,0.5527420043945312
1761333850266627800,5.1696279296875,9.78664493560791,1.4715858697891235,0.31345975399017334
1761333850285328000,5.188327880859375,9.913464546203613,1.2035897970199585,1.0767701864242554
1761333850304028000,5.20702783203125,9.616754531860352,1.7419748306274414,0.4259224236011505
1761333850322728000,5.22572802734375,9.34157943725586,1.5553346872329712,0.5479564070701599
1761333850341428200,5.24442822265625,9.276973724365234,1.6654045581817627,0.4666004180908203
1761333850360128000,5.2631279296875,9.236295700073242,1.6941183805465698,0.4091726839542389
1761333850378828300,5.281828369140625,9.1716890335083,1.6319050788879395,0.2584248483181
1761333850397528300,5.3005283203125,9.298508644104004,1.7060825824737549,0.35892340540885925
1761333850416228400,5.319228271484375,9.415757179260254,1.797009825706482,0.46899324655532837
1761333850434928400,5.337928466796875,9.408578872680664,1.8233308792114258,0.4139583110809326
1761333850453628400,5.35662841796875,9.442078590393066,1.8089739084243774,0.363709032535553
1761333850472328400,5.375328369140625,9.561718940734863,1.7228323221206665,0.45224347710609436
1761333850491028700,5.39402880859375,9.982855796813965,1.6845471858978271,0.4905286431312561
1761333850509728500,5.412728515625,10.415956497192383,1.7012969255447388,0.6843472719192505
1761333850528428800,5.4314287109375,10.356136322021484,1.6941183805465698,0.7154539823532104
1761333850547128800,5.45012890625,10.061819076538086,1.8041882514953613,0.641276478767395
1761333850565828900,5.468828857421875,9.760323524475098,1.8113667964935303,0.42831525206565857
1761333850584529000,5.48752880859375,9.454042434692383,1.8735800981521606,0.21774685382843018
1761333850603229000,5.50622900390625,9.260223388671875,1.9214365482330322,0.05503492057323456
1761333850621929000,5.524928955078125,9.200403213500977,1.9692929983139038,0.014356935396790504
1761333850640629200,5.543629150390625,9.54496955871582,1.9980069398880005,0
1761333850659329000,5.5623291015625,9.91825008392334,1.9214365482330322,0.1746760457754135
1761333850678029300,5.581029296875,9.987641334533691,1.8999011516571045,0.2919243574142456
1761333850696729300,5.599729248046875,9.927821159362793,1.9334007501602173,0.3613162338733673
1761333850715429400,5.618429443359375,9.997213363647461,1.947757601737976,0.5024927258491516
1761333850734129400,5.63712939453125,9.930213928222656,1.9812572002410889,0.4378865361213684
1761333850752829400,5.655829345703125,9.66221809387207,2.0027925968170166,0.1986042857170105
1761333850771529500,5.674529541015625,9.671789169311523,1.923829436302185,0.09092725813388824
1761333850790229800,5.693229736328125,9.650253295898438,1.9046868085861206,0.11246266216039658
1761333850808929800,5.7119296875,9.408578872680664,2.0578274726867676,0.02632104977965355
1761333850827629800,5.7306298828125,9.317651748657227,2.218146562576294,0.07417750358581543
1761333850846329900,5.749329833984375,9.425328254699707,2.2636101245880127,0.02392822690308094
1761333850865030000,5.76802978515625,9.748359680175781,2.249253273010254,-0.22971096634864807
1761333850883730000,5.78672998046875,9.827322959899902,2.2468605041503906,-0.2153540402650833
1761333850902430000,5.805429931640625,9.875179290771484,2.1846470832824707,-0.26081767678260803
1761333850921130200,5.824130126953125,9.930213928222656,2.1272194385528564,-0.29431718587875366
1761333850939830300,5.842830322265625,9.875179290771484,1.94297194480896,-0.22492532432079315
1761333850958530300,5.8615302734375,9.621540069580078,1.8687944412231445,-0.12203395366668701
1761333850977230300,5.880230224609375,9.533005714416504,1.7826528549194336,-0.11964113265275955
1761333850995930400,5.898930419921875,9.549755096435547,1.765903115272522,-0.19381862878799438
1761333851014630400,5.91763037109375,9.57607650756836,1.8065811395645142,-0.39481574296951294
1761333851033330700,5.93633056640625,9.609575271606445,1.698904037475586,-0.43549370765686035
1761333851052030700,5.95503076171875,9.781859397888184,1.730010747909546,-0.39960137009620667
1761333851070730800,5.973730712890625,9.93260669708252,1.7156537771224976,-0.3038884699344635
1761333851089430800,5.9924306640625,9.789037704467773,1.7778671979904175,-0.3278166949748993
1761333851108130800,6.011130859375,9.712467193603516,1.832902193069458,-0.22013968229293823
1761333851126830800,6.029830810546875,9.707681655883789,1.8161523342132568,-0.031106693670153618
1761333851145531100,6.04853125,9.772287368774414,1.8424733877182007,0.19621145725250244
1761333851164231000,6.06723095703125,9.760323524475098,1.8424733877182007,0.3397808074951172
1761333851182931200,6.08593115234375,9.719645500183105,1.852044701576233,0.24167509377002716
1761333851201631200,6.10463134765625,9.80817985534668,1.765903115272522,0.17228323221206665
1761333851220331300,6.123331298828125,9.958928108215332,1.6845471858978271,0.3038884699344635
1761333851239031300,6.14203125,9.91825008392334,1.679761528968811,0.5958128571510315
1761333851257731300,6.1607314453125,9.731609344482422,1.7060825824737549,0.7441678643226624
1761333851276431400,6.179431396484375,9.554540634155273,1.6965112686157227,0.7968099117279053
1761333851295131600,6.198131591796875,9.389435768127441,1.6654045581817627,0.8350951075553894
1761333851313831700,6.216831787109375,9.229117393493652,1.6534404754638672,0.7752745151519775
1761333851332531700,6.23553173828125,9.190832138061523,1.679761528968811,0.6819544434547424
1761333851351231700,6.254231689453125,9.315258979797363,1.6342978477478027,0.7896314859390259
1761333851369931800,6.272931884765625,9.518648147583008,1.5960127115249634,0.7489534616470337
1761333851388631800,6.2916318359375,9.616754531860352,1.6175481081008911,0.6939185857772827
1761333851407331800,6.310331787109375,9.549755096435547,1.6510475873947144,0.6436693072319031
1761333851426032000,6.3290322265625,9.4660062789917,1.7515461444854736,0.5694918036460876
1761333851444732200,6.347732177734375,9.54496955871582,1.9334007501602173,0.5575276613235474
1761333851463432200,6.36643212890625,9.707681655883789,2.0027925968170166,0.46899324655532837
1761333851482132200,6.38513232421875,9.994820594787598,2.1367905139923096,0.5144568681716919
1761333851500832300,6.403832275390625,10.320243835449219,2.313859462738037,0.8111668825149536
1761333851519532300,6.4225322265625,10.566704750061035,2.390429735183716,1.124626636505127
1761333851538232600,6.441232666015625,10.447063446044922,2.2372891902923584,1.007378339767456
1761333851556932600,6.4599326171875,10.179067611694336,2.012363910675049,0.6197410821914673
1761333851575632600,6.478632568359375,10.15753173828125,1.7850457429885864,0.397208571434021
1761333851594332700,6.497332763671875,10.030712127685547,1.5290136337280273,0.35413774847984314
1761333851613032700,6.51603271484375,9.741181373596191,1.4189438819885254,0.28235307335853577
1761333851631732700,6.534732666015625,9.45164966583252,1.332802176475525,0.09810572862625122
1761333851650432800,6.553432861328125,9.360722541809082,1.2586246728897095,-0.02632104977965355
1761333851669133000,6.572133056640625,9.372686386108398,1.306481122970581,-0.14117653667926788
1761333851687833000,6.5908330078125,9.497113227844238,1.4524433612823486,-0.014356935396790504
1761333851706533000,6.609533203125,9.78664493560791,1.5409778356552124,0.3517449200153351
1761333851725233200,6.628233154296875,9.856036186218262,1.6366907358169556,0.5742774605751038
1761333851743933200,6.64693310546875,9.78664493560791,1.7467604875564575,0.4737788736820221
1761333851762633200,6.66563330078125,9.724431037902832,1.698904037475586,0.38763725757598877
1761333851781333500,6.68433349609375,9.722038269042969,1.703689694404602,0.42352959513664246
1761333851800033500,6.703033447265625,9.714859962463379,1.7180466651916504,0.46420758962631226
1761333851818733600,6.721733642578125,9.827322959899902,1.6869399547576904,0.5000999569892883
1761333851837433600,6.74043359375,9.80100154876709,1.495514154434204,0.5910272002220154
1761333851856133600,6.759133544921875,9.561718940734863,1.4428720474243164,0.44745782017707825
1761333851874833700,6.777833740234375,9.44447135925293,1.4931213855743408,0.28235307335853577
1761333851893534000,6.796533935546875,9.511469841003418,1.552941918373108,0.25363919138908386
1761333851912234000,6.81523388671875,9.547362327575684,1.5744773149490356,0.26081767678260803
1761333851930934000,6.83393408203125,9.497113227844238,1.6534404754638672,0.14356936514377594
1761333851949634000,6.852634033203125,9.501898765563965,1.6606189012527466,0.02632104977965355
1761333851968334000,6.871333984375,9.482755661010742,1.581655740737915,-0.02632104977965355
1761333851987034400,6.890034423828125,9.511469841003418,1.6821542978286743,-0.07657032459974289
1761333852005734100,6.908734130859375,9.659825325012207,1.765903115272522,-0.1339980661869049
1761333852024434400,6.927434326171875,9.779465675354004,1.7252250909805298,-0.16749759018421173
1761333852043134500,6.946134521484375,9.93978500366211,1.7515461444854736,-0.1746760457754135
1761333852061834500,6.96483447265625,10.068997383117676,1.852044701576233,-0.13878370821475983
1761333852080534500,6.983534423828125,10.068997383117676,1.9094724655151367,-0.23449662327766418
1761333852099234600,7.002234619140625,10.085747718811035,1.8352949619293213,-0.24406790733337402
1761333852117934800,7.020934814453125,10.238887786865234,1.789831280708313,-0.1746760457754135
1761333852136635000,7.039634765625,10.332208633422852,1.7084753513336182,-0.059820566326379776
1761333852155335000,7.0583349609375,10.303494453430176,1.672582983970642,0.031106693670153618
1761333852174035000,7.077034912109375,10.17428207397461,1.643869161605835,0.0526420995593071
1761333852192735000,7.09573486328125,10.01156997680664,1.6223337650299072,0.02392822690308094
1761333852211435000,7.11443505859375,9.76989459991455,1.5649060010910034,-0.004785645287483931
1761333852230135300,7.13313525390625,9.56650447845459,1.5625132322311401,-0.11485548317432404
1761333852248835300,7.15183544921875,9.518648147583008,1.5960127115249634,-0.20578274130821228
1761333852267535400,7.170535400390625,9.439684867858887,1.6917256116867065,-0.28953152894973755
1761333852286235400,7.1892353515625,9.415757179260254,1.7276179790496826,-0.28953152894973755
1761333852304935400,7.207935302734375,9.468399047851562,1.7443677186965942,-0.18424734473228455
1761333852323635500,7.226635498046875,9.602396965026855,1.765903115272522,-0.13878370821475983
1761333852342335500,7.24533544921875,9.681360244750977,1.7778671979904175,-0.17228323221206665
1761333852361035800,7.264035888671875,9.7938232421875,1.7467604875564575,-0.08614161610603333
1761333852379735800,7.28273583984375,9.896714210510254,1.6917256116867065,-0.05503492057323456
1761333852398435800,7.301435791015625,9.930213928222656,1.6869399547576904,-0.014356935396790504
1761333852417135900,7.320135986328125,9.903892517089844,1.6558332443237305,0.11724831163883209
1761333852435836000,7.3388359375,9.748359680175781,1.6175481081008911,0.16031911969184875
1761333852454536200,7.3575361328125,9.56650447845459,1.5409778356552124,0.1052841991186142
1761333852473236200,7.376236328125,9.485149383544922,1.5385849475860596,0.040677983313798904
1761333852491936300,7.394936279296875,9.432506561279297,1.6366907358169556,0.13639089465141296
1761333852510636300,7.41363623046875,9.343972206115723,1.672582983970642,0.2512463629245758
1761333852529336300,7.43233642578125,9.473184585571289,1.6893328428268433,0.31824541091918945
1761333852548036400,7.451036376953125,9.748359680175781,1.6031911373138428,0.4378865361213684
1761333852566736600,7.469736572265625,9.915857315063477,1.6414763927459717,0.40677985548973083
1761333852585436700,7.488436767578125,9.999606132507324,1.7084753513336182,0.45224347710609436
1761333852604136700,7.50713671875,9.958928108215332,1.7826528549194336,0.4737788736820221
1761333852622836700,7.525836669921875,9.865608215332031,1.8496519327163696,0.4546363055706024
1761333852641536800,7.544536865234375,9.827322959899902,1.9142581224441528,0.38763725757598877
1761333852660237000,7.563237060546875,9.973284721374512,1.9262222051620483,0.34217363595962524
1761333852678936800,7.581936767578125,10.088140487670898,1.947757601737976,0.3517449200153351
1761333852697637000,7.60063720703125,9.963713645935059,2.021935224533081,0.3684946894645691
1761333852716337200,7.619337158203125,9.781859397888184,1.9716858863830566,0.26081767678260803
1761333852735037200,7.638037109375,9.68375301361084,1.8448662757873535,0.06939185410737991
1761333852753737200,7.6567373046875,9.755537986755371,1.7228323221206665,0.02632104977965355
1761333852772437200,7.675437255859375,9.781859397888184,1.6271194219589233,0.064606212079525
1761333852791137500,7.694137451171875,9.674181938171387,1.5481562614440918,0.08374879509210587
1761333852809837600,7.712837646484375,9.56889820098877,1.576870083808899,0.09092725813388824
1761333852828537600,7.73153759765625,9.56889820098877,1.6510475873947144,0.12442677468061447
1761333852847237600,7.750237548828125,9.650253295898438,1.7515461444854736,0.22492532432079315
1761333852865937700,7.768937744140625,9.798608779907227,1.8233308792114258,0.3086741268634796
1761333852884637700,7.7876376953125,9.810572624206543,1.8089739084243774,0.28235307335853577
1761333852903338000,7.806337890625,9.734002113342285,1.8472590446472168,0.2871387302875519
1761333852922038000,7.8250380859375,9.717252731323242,1.8544375896453857,0.29431718587875366
1761333852940738000,7.843738037109375,9.834501266479492,1.8089739084243774,0.33738797903060913
1761333852959438000,7.86243798828125,9.839286804199219,1.7826528549194336,0.3613162338733673
1761333852978138000,7.88113818359375,9.7005033493042,1.8185452222824097,0.33738797903060913
1761333852996838400,7.89983837890625,9.549755096435547,1.8400806188583374,0.363709032535553
1761333853015538400,7.918538330078125,9.497113227844238,1.828116536140442,0.3397808074951172
1761333853034238500,7.937238525390625,9.609575271606445,1.770688772201538,0.2632105052471161
1761333853052938500,7.9559384765625,9.844072341918945,1.7563318014144897,0.35413774847984314
1761333853071638500,7.974638427734375,9.906285285949707,1.7467604875564575,0.3326023519039154
1761333853090338600,7.993338623046875,9.693324089050293,1.7994025945663452,0.2991028428077698
1761333853109038800,8.012038818359375,9.41336441040039,1.8305093050003052,0.16749759018421173
1761333853127739000,8.03073876953125,9.461220741271973,1.8305093050003052,0.20099709928035736
1761333853146439000,8.04943896484375,9.688538551330566,1.797009825706482,0.2632105052471161
1761333853165139000,8.068138916015625,9.78664493560791,1.7922241687774658,0.2512463629245758
1761333853183839000,8.0868388671875,9.760323524475098,1.7611174583435059,0.11246266216039658
1761333853202539300,8.105539306640624,9.755537986755371,1.7994025945663452,0.02632104977965355
1761333853221239300,8.1242392578125,9.8871431350708,1.9022940397262573,-0.031106693670153618
1761333853239939300,8.142939208984375,9.913464546203613,2.076970100402832,0.035892341285943985
1761333853258639400,8.161639404296874,9.827322959899902,2.2396819591522217,0.18424734473228455
1761333853277339400,8.18033935546875,9.767501831054688,2.289931297302246,0.2560320198535919
1761333853296039700,8.199039794921875,9.80817985534668,2.2205393314361572,0.27038896083831787
1761333853314739500,8.217739501953124,9.827322959899902,2.0889341831207275,0.23449662327766418
1761333853333439700,8.236439697265626,9.789037704467773,1.94297194480896,0.05742774158716202
1761333853352139800,8.255139892578125,9.67657470703125,1.8185452222824097,-0.03349951654672623
1761333853370839800,8.27383984375,9.614361763000488,1.7324036359786987,-0.12681959569454193
1761333853389539800,8.292539794921876,9.667003631591797,1.7491533756256104,-0.11006984114646912
1761333853408239900,8.311239990234375,9.681360244750977,1.794616937637329,-0.10049854964017868
1761333853426940200,8.329940185546874,9.56650447845459,1.8735800981521606,-0.0933200865983963
1761333853445640200,8.34864013671875,9.461220741271973,1.9070796966552734,-0.15553347766399384
1761333853464340200,8.36734033203125,9.561718940734863,1.9214365482330322,-0.1986042857170105
1761333853483040300,8.386040283203124,9.65503978729248,1.9669002294540405,-0.062213387340307236
1761333853501740300,8.404740234375,9.623932838439941,2.038684844970703,0.05024927482008934
1761333853529790500,8.43279052734375,9.69093132019043,2.0195422172546387,0.05503492057323456
1761333853548490500,8.451490478515625,9.865608215332031,1.9669002294540405,0.13639089465141296
1761333853567190800,8.470190673828125,9.923035621643066,1.9453648328781128,0.2632105052471161
1761333853585890800,8.488890869140626,9.719645500183105,1.9645073413848877,0.3038884699344635
1761333853604590800,8.5075908203125,9.456435203552246,1.9669002294540405,0.30149564146995544
1761333853623291000,8.526290771484375,9.418149948120117,2.0099709033966064,0.21774685382843018
1761333853641991000,8.544990966796876,9.621540069580078,1.9645073413848877,0.24167509377002716
1761333853660691000,8.56369091796875,9.822537422180176,1.8735800981521606,0.27756741642951965
1761333853679391200,8.58239111328125,9.848857879638672,1.825723648071289,0.2273181527853012
1761333853698091300,8.60109130859375,9.702896118164062,1.8305093050003052,0.20817556977272034
1761333853716791300,8.619791259765625,9.540184020996094,1.7443677186965942,0.15314064919948578
1761333853735491300,8.6384912109375,9.485149383544922,1.7563318014144897,0.16749759018421173
1761333853754191400,8.65719140625,9.638289451599121,1.710868239402771,0.20099709928035736
1761333853772891600,8.6758916015625,9.810572624206543,1.7180466651916504,0.2847459018230438
1761333853791591400,8.69459130859375,9.848857879638672,1.7419748306274414,0.3206382393836975
1761333853810291700,8.713291748046874,9.827322959899902,1.7994025945663452,0.44027936458587646
1761333853828991700,8.73199169921875,9.734002113342285,1.8664016723632812,0.4211367964744568
1761333853847691800,8.75069189453125,9.667003631591797,1.8807586431503296,0.4043870270252228
1761333853866392000,8.76939208984375,9.650253295898438,1.9573289155960083,0.45942193269729614
1761333853885091800,8.788091796875,9.7005033493042,2.014756679534912,0.5407779216766357
1761333853903792000,8.806792236328125,9.784252166748047,2.045863389968872,0.5359922647476196
1761333853922492200,8.8254921875,9.820143699645996,2.0817556381225586,0.4378865361213684
1761333853941192200,8.844192138671875,9.817750930786133,2.2301106452941895,0.275174617767334
1761333853959892500,8.862892578125,9.80100154876709,2.3090739250183105,0.24646073579788208
1761333853978592300,8.88159228515625,10.03549861907959,2.2707886695861816,0.35892340540885925
1761333853997292500,8.90029248046875,10.293923377990723,2.021935224533081,0.3924229145050049
1761333854015992600,8.91899267578125,10.229316711425781,1.828116536140442,0.21774685382843018
1761333854034692600,8.937692626953124,9.719645500183105,1.672582983970642,0.05503492057323456
1761333854053392600,8.956392578125,9.31047248840332,1.576870083808899,-0.08614161610603333
1761333854072092700,8.9750927734375,9.176474571228027,1.5050854682922363,-0.2273181527853012
1761333854090793000,8.99379296875,9.29611587524414,1.526620864868164,-0.16749759018421173
1761333854109493000,9.012492919921876,9.410971641540527,1.6510475873947144,-0.11246266216039658
1761333854128193000,9.031193115234375,9.535398483276367,1.832902193069458,-0.016749758273363113
1761333854146893000,9.04989306640625,9.667003631591797,1.9262222051620483,0.14356936514377594
1761333854165593000,9.068593017578126,9.803394317626953,2.0003998279571533,0.3565305769443512
1761333854184293400,9.08729345703125,9.949356079101562,2.0506489276885986,0.49292147159576416
1761333854202993400,9.105993408203124,10.133604049682617,2.03629207611084,0.5551348328590393
1761333854221693400,9.124693359375,10.17428207397461,1.9597218036651611,0.605384111404419
1761333854240393500,9.1433935546875,9.937392234802246,1.9573289155960083,0.5216353535652161
1761333854259093500,9.162093505859374,9.647860527038574,1.9357935190200806,0.4019941985607147
1761333854277793800,9.180793701171876,9.454042434692383,1.9525432586669922,0.3206382393836975
1761333854296493800,9.199493896484375,9.494720458984375,1.9022940397262573,0.34695929288864136
1761333854315193900,9.21819384765625,9.559326171875,1.8999011516571045,0.34217363595962524
1761333854333894000,9.236893798828126,9.535398483276367,1.852044701576233,0.2871387302875519
1761333854352594000,9.255593994140625,9.597611427307129,1.8951154947280884,0.23449662327766418
1761333854371294000,9.2742939453125,9.657432556152344,1.8903298377990723,0.33020952343940735
1761333854389994200,9.292994140625,9.626325607299805,1.9525432586669922,0.3086741268634796
1761333854408694300,9.3116943359375,9.664610862731934,1.9669002294540405,0.26560330390930176
1761333854427394300,9.330394287109375,9.688538551330566,1.9405791759490967,0.25363919138908386
1761333854446094300,9.34909423828125,9.640682220458984,1.9094724655151367,0.2799602448940277
1761333854464794400,9.36779443359375,9.7005033493042,1.8305093050003052,0.23449662327766418
1761333854483494700,9.38649462890625,9.774680137634277,1.7419748306274414,0.1818545162677765
1761333854502194700,9.405194580078126,9.796216011047363,1.6917256116867065,0.09571290761232376
1761333854520894700,9.423894775390625,9.729216575622559,1.7371892929077148,0.009571290574967861
1761333854539594800,9.4425947265625,9.726823806762695,1.8735800981521606,-0.004785645287483931
1761333854558294800,9.461294677734376,9.81535816192627,2.0578274726867676,0.10767702013254166
1761333854576995000,9.4799951171875,9.858428955078125,2.1583259105682373,0.26081767678260803
1761333854595695000,9.498695068359375,9.734002113342285,2.2612173557281494,0.23449662327766418
1761333854614395100,9.51739501953125,9.631111145019531,2.227717876434326,0.07178468257188797
1761333854633095200,9.53609521484375,9.66221809387207,1.978864312171936,0.0023928226437419653
1761333854651795200,9.554795166015625,9.80100154876709,1.6558332443237305,-0.035892341285943985
1761333854670495500,9.57349560546875,9.844072341918945,1.4811571836471558,-0.11246266216039658
1761333854689195500,9.592195556640625,9.635896682739258,1.5481562614440918,-0.09571290761232376
1761333854707895600,9.6108955078125,9.339186668395996,1.765903115272522,-0.04785645380616188
1761333854726595600,9.629595703125,9.238688468933105,1.892722725868225,-0.035892341285943985
1761333854745295600,9.648295654296875,9.501898765563965,2.00518536567688,0.04307080805301666
1761333854763996000,9.666995849609375,9.839286804199219,2.0267207622528076,0.21774685382843018
1761333854782695700,9.68569580078125,10.00439167022705,2.1128623485565186,0.33020952343940735
1761333854801396000,9.70439599609375,10.045069694519043,2.053041934967041,0.3326023519039154
1761333854820096000,9.723095947265625,9.966106414794922,2.053041934967041,0.3397808074951172
1761333854838796000,9.741796142578124,9.978070259094238,2.0338993072509766,0.46420758962631226
1761333854857496300,9.760496337890626,10.013962745666504,1.9573289155960083,0.48095735907554626
1761333854876196000,9.779196044921875,9.841679573059082,1.8831514120101929,0.3924229145050049
1761333854894896400,9.797896484375,9.702896118164062,1.820937991142273,0.3397808074951172
1761333854913596400,9.816596435546876,9.56889820098877,1.794616937637329,0.33499518036842346
1761333854932296400,9.83529638671875,9.633503913879395,1.8975083827972412,0.31106695532798767
1761333854950996500,9.85399658203125,9.274580955505371,1.6319050788879395,0.31345975399017334
1761333854969696500,9.872696533203126,9.047262191772461,1.8711873292922974,-0.29431718587875366
1761333854988396800,9.891396728515625,9.09272575378418,1.7922241687774658,-0.34217363595962524
1761333855007096800,9.910096923828124,9.571290969848633,1.7635103464126587,0.27038896083831787
1761333855025796900,9.928796875,10.418350219726562,1.8640087842941284,0.4977070987224579
1761333855044497000,9.947496826171875,10.74855899810791,1.9357935190200806,0.5216353535652161
1761333855063197000,9.966197021484374,10.521241188049316,1.919043779373169,0.3206382393836975
