time,seconds_elapsed,z,y,x
1761333845160421400,0.06342138671875,-0.013439024798572063,-0.039248060435056686,0.035124726593494415
1761333845179121400,0.082121337890625,0.009162971749901772,0.13545925915241241,-0.06200277432799339
1761333845197821400,0.100821533203125,0.026878049597144127,0.2997818887233734,-0.026572618633508682
1761333845216521500,0.119521484375,0.06963858753442764,0.3718639314174652,0.057726722210645676
1761333845235221500,0.138221435546875,0.09285144507884979,0.2838993966579437,0.09987638890743256
1761333845253921500,0.156921630859375,0.10690133273601532,0.27290382981300354,0.09987638890743256
1761333845272621600,0.17562158203125,0.12767073512077332,0.3113883137702942,0.06444623321294785
1761333845291321600,0.194321533203125,0.13622283935546875,0.22953243553638458,-0.022907428443431854
1761333845310021600,0.213021728515625,0.13439024984836578,0.2606865465641022,-0.07116574794054031
1761333845328721700,0.2317216796875,0.13072505593299866,0.2906189262866974,-0.04550942778587341
1761333845347421700,0.250421630859375,0.12034036219120026,0.26740604639053345,-0.0027488914784044027
1761333845366121700,0.269121826171875,0.09101885557174683,0.21914774179458618,-0.035124726593494415
1761333845384821800,0.28782177734375,0.06841685622930527,0.208152174949646,-0.15607595443725586
1761333845403522000,0.30652197265625,0.07391463965177536,0.17088942229747772,-0.26908594369888306
1761333845422221800,0.325221923828125,0.02626718580722809,0.10125083476305008,-0.30634868144989014
1761333845440922000,0.343922119140625,0.004886918235570192,0.1360701322555542,-0.23365578055381775
1761333845459622100,0.3626220703125,0.009162971749901772,0.1262962967157364,-0.10720676928758621
1761333845478322200,0.381322265625,0.05070177838206291,0.1207985132932663,-0.006414080038666725
1761333845497022200,0.400022216796875,0.0769689604640007,0.05177079141139984,0.0308486707508564
1761333845515722200,0.41872216796875,0.07024945318698883,0.06276635825634003,0.032681263983249664
1761333845534422300,0.43742236328125,0.06108647957444191,0.1104138121008873,0.04306596517562866
1761333845553122300,0.456122314453125,0.06291907280683517,0.04627300798892975,0.060781046748161316
1761333845571822300,0.474822265625,0.06108647957444191,-0.0025961752980947495,0.047952886670827866
1761333845590522400,0.4935224609375,0.06536252796649933,0.011453714221715927,-0.004581485874950886
1761333845609222400,0.512222412109375,0.03909534588456154,-0.02214384824037552,-0.035735588520765305
1761333845627922400,0.53092236328125,0.043371398001909256,-0.019700389355421066,-0.03817904740571976
1761333845646622500,0.54962255859375,0.06414080411195755,-0.02153298258781433,-0.029626941308379173
1761333845665322500,0.568322509765625,0.05497783049941063,-0.030695954337716103,-0.011300998739898205
1761333845684022500,0.5870224609375,0.05192350596189499,-0.036193739622831345,0.014966187067329884
1761333845702722600,0.60572265625,0.047036588191986084,-0.04841103404760361,0.03329212963581085
1761333845721422800,0.6244228515625,0.039706211537122726,-0.05696314200758934,0.03817904740571976
1761333845740123000,0.643122802734375,0.050090912729501724,-0.05696314200758934,0.0668896958231926
1761333845758823000,0.661822998046875,0.05192350596189499,-0.0795651376247406,0.0870482325553894
1761333845777523000,0.68052294921875,0.05558869615197182,-0.08567378669977188,0.07788526266813278
1761333845796223000,0.699222900390625,0.06841685622930527,-0.08139773458242416,0.038789913058280945
1761333845814923000,0.717923095703125,0.07635809481143951,-0.09911280870437622,-0.015577051788568497
1761333845833623000,0.736623046875,0.0873536616563797,-0.13209950923919678,-0.047952886670827866
1761333845852323000,0.755322998046875,0.10445787757635117,-0.19562944769859314,-0.04001164436340332
1761333845871023000,0.774023193359375,0.10384701192378998,-0.21517711877822876,-0.011911863461136818
1761333845889723100,0.79272314453125,0.08857539296150208,-0.18952079117298126,-0.00946840364485979
1761333845908423200,0.811423095703125,0.1081230640411377,-0.11866047978401184,0.0009162971982732415
1761333845927123200,0.830123291015625,0.13072505593299866,-0.06734783947467804,0.02718348242342472
1761333845945823500,0.848823486328125,0.11972949653863907,-0.04169152304530144,0.02718348242342472
1761333845964523300,0.867523193359375,0.1130099818110466,-0.025809036567807198,0.004581485874950886
1761333845983223600,0.8862236328125,0.11178825795650482,-0.012980876490473747,-0.0021380267571657896
1761333846001923600,0.904923583984375,0.10995566099882126,-0.0062613640911877155,0.019853105768561363
1761333846020623600,0.92362353515625,0.09162971377372742,0.015729768201708794,0.022296564653515816
1761333846039323600,0.94232373046875,0.08674279600381851,0.02000582218170166,0.003359756199643016
1761333846058023700,0.961023681640625,0.08857539296150208,-0.04046979174017906,-0.019853105768561363
1761333846076723700,0.9797236328125,0.0818558782339096,-0.06734783947467804,-0.01435532234609127
1761333846095423700,0.998423828125,0.07024945318698883,-0.06795870512723923,-0.0204639695584774
1761333846114123800,1.017123779296875,0.05803215503692627,-0.017256930470466614,-0.025350889191031456
1761333846132823800,1.03582373046875,0.05192350596189499,0.017562363296747208,-0.035735588520765305
1761333846151523800,1.05452392578125,0.05070177838206291,0.037720900028944016,-0.03145953640341759
1761333846170223900,1.073223876953125,0.0665842592716217,0.041386090219020844,-0.0027488914784044027
1761333846188924000,1.091923828125,0.03543015569448471,0.024281874299049377,0.05039634555578232
1761333846207624000,1.1106240234375,0.027488915249705315,0.0102319847792387,0.07788526266813278
1761333846226324200,1.12932421875,0.043982263654470444,0.002290742937475443,0.06994401663541794
1761333846245024000,1.14802392578125,0.056199558079242706,-0.0007635809597559273,0.05589412897825241
1761333846263724300,1.166724365234375,0.053756099194288254,-0.01359174121171236,0.054672397673130035
1761333846282424300,1.18542431640625,0.04214967042207718,-0.01847865991294384,0.05528326332569122
1761333846301124400,1.204124267578125,0.03909534588456154,0.002901607658714056,0.05406153202056885
1761333846319824400,1.222824462890625,0.03237583488225937,0.01695149764418602,0.05283980444073677
1761333846338524400,1.2415244140625,0.024434590712189674,0.014508038759231567,0.04306596517562866
1761333846357224400,1.260224365234375,0.021380268037319183,0.022449281066656113,0.044898562133312225
1761333846375924500,1.278924560546875,0.023823726922273636,0.014508038759231567,0.04978547990322113
1761333846394624500,1.29762451171875,0.029932374134659767,0.009621120058000088,0.03695731982588768
1761333846413324500,1.316324462890625,0.027488915249705315,-0.012370011769235134,0.0204639695584774
1761333846432024600,1.335024658203125,0.0360410213470459,-0.0062613640911877155,0.038789913058280945
1761333846450724600,1.353724609375,0.029932374134659767,-0.01359174121171236,0.0668896958231926
1761333846469424600,1.372424560546875,0.03543015569448471,0.002290742937475443,0.06017018109560013
1761333846488125000,1.391125,0.02871064469218254,0.007788525894284248,0.048563748598098755
1761333846506825000,1.409824951171875,0.03237583488225937,-0.0013744457392022014,0.04550942778587341
1761333846525525000,1.42852490234375,0.02932151034474373,-0.009315688163042068,0.04428769648075104
1761333846544225000,1.44722509765625,0.021991131827235222,0.004734201822429895,0.04917461425065994
1761333846562925000,1.465925048828125,0.011606430634856224,0.02611446939408779,0.06261363625526428
1761333846581625000,1.484625,0.007330377586185932,0.03283398225903511,0.06811141967773438
1761333846600325000,1.5033251953125,-0.002443459117785096,0.0383317656815052,0.05528326332569122
1761333846619025200,1.522025146484375,-0.010995565913617611,0.03222311660647392,0.03695731982588768
1761333846637725200,1.54072509765625,-0.01282816007733345,0.002290742937475443,0.010690134018659592
1761333846656425200,1.55942529296875,0.000610864779446274,-0.020311253145337105,-0.013133592903614044
1761333846675125200,1.578125244140625,0.0054977829568088055,-0.011759147047996521,-0.025350889191031456
1761333846693825300,1.5968251953125,0.002443459117785096,0.02672533318400383,-0.0308486707508564
1761333846712525600,1.615525634765625,-0.004886918235570192,0.06704241037368774,-0.05528326332569122
1761333846731225300,1.634225341796875,0.007330377586185932,0.08414662629365921,-0.09498947113752365
1761333846749925600,1.652925537109375,0.010995565913617611,0.0487164668738842,-0.10903936624526978
1761333846768625700,1.671625732421875,0.013439024798572063,0.02000582218170166,-0.0766635313630104
1761333846787325700,1.69032568359375,0.0054977829568088055,0.01206457894295454,-0.02779434807598591
1761333846806025700,1.709025634765625,0.003665188793092966,0.022449281066656113,-0.011300998739898205
1761333846824725800,1.727725830078125,0.002443459117785096,0.03894263133406639,0.008246674202382565
1761333846843425800,1.74642578125,-0.006719512399286032,0.03711003437638283,0.035124726593494415
1761333846862125800,1.765125732421875,-0.013439024798572063,0.0487164668738842,0.05100720748305321
1761333846880825900,1.783825927734375,-0.01893680728971958,0.06276635825634003,0.04001164436340332
1761333846899526000,1.80252587890625,-0.020158538594841957,0.09208786487579346,0.010079269297420979
1761333846918226000,1.821225830078125,-0.007941242307424545,0.1055268943309784,-0.011300998739898205
1761333846936926200,1.83992626953125,0.01954767294228077,0.07864884287118912,0.019853105768561363
1761333846955626000,1.8586259765625,0.020769402384757996,0.0383317656815052,0.05955931544303894
1761333846974326300,1.877326171875,0.021380268037319183,0.024281874299049377,0.06994401663541794
1761333846993026300,1.8960263671875,0.014660755172371864,0.02977965772151947,0.07483093440532684
1761333847011726300,1.914726318359375,0.010384701192378998,0.019394956529140472,0.08093958348035812
1761333847030426400,1.93342626953125,0.014049889519810677,0.002901607658714056,0.09560033679008484
1761333847049126400,1.95212646484375,0.014660755172371864,-0.027030766010284424,0.09926552325487137
1761333847067826400,1.970826416015625,0.003665188793092966,-0.030695954337716103,0.09132428467273712
1761333847086526500,1.9895263671875,-0.011606430634856224,-0.028863361105322838,0.06750056147575378
1761333847105226500,2.0082265625,-0.0054977829568088055,-0.017867794260382652,0.03695731982588768
1761333847123926500,2.026926513671875,0.007941242307424545,-0.0038179049734026194,0.03756818547844887
1761333847142626600,2.04562646484375,0.012217295356094837,0.021227551624178886,0.0461202897131443
1761333847161326600,2.06432666015625,0.009162971749901772,0.047494735568761826,0.04917461425065994
1761333847180026600,2.083026611328125,0.004886918235570192,0.028557928279042244,0.04550942778587341
1761333847198727000,2.101726806640625,0.023823726922273636,-0.023976443335413933,0.018631376326084137
1761333847217427000,2.120427001953125,0.027488915249705315,-0.06246092543005943,-0.028405211865901947
1761333847236127000,2.139126953125,0.021380268037319183,-0.05818486958742142,-0.057726722210645676
1761333847254827000,2.157826904296875,0.009773836471140385,-0.029474224895238876,-0.05222893878817558
1761333847273527000,2.176527099609375,0.006719512399286032,0.00045814859913662076,-0.025350889191031456
1761333847292227000,2.19522705078125,0.013439024798572063,0.004734201822429895,-0.003970621153712273
1761333847310927000,2.213927001953125,0.027488915249705315,-0.010537417605519295,-0.008246674202382565
1761333847329627100,2.232627197265625,0.03543015569448471,-0.02458730712532997,-0.012522728182375431
1761333847348327200,2.2513271484375,0.02871064469218254,-0.04169152304530144,-0.008246674202382565
1761333847367027200,2.270027099609375,0.021380268037319183,-0.03558287397027016,-0.003359756199643016
1761333847385727200,2.288727294921875,0.01954767294228077,-0.02519817277789116,0.008246674202382565
1761333847404427500,2.307427490234375,0.01893680728971958,-0.042913250625133514,0.007024944759905338
1761333847423127600,2.32612744140625,0.01588248461484909,-0.039248060435056686,-0.013744457624852657
1761333847441827600,2.34482763671875,-0.001221729558892548,-0.026419902220368385,-0.029016077518463135
1761333847460527600,2.363527587890625,-0.014049889519810677,-0.028863361105322838,-0.028405211865901947
1761333847479227600,2.3822275390625,-0.01282816007733345,-0.011759147047996521,-0.022296564653515816
1761333847497927700,2.400927734375,-0.01588248461484909,-0.026419902220368385,-0.013133592903614044
1761333847516627700,2.419627685546875,-0.017715077847242355,-0.02764163166284561,0.0009162971982732415
1761333847535327700,2.43832763671875,-0.01893680728971958,-0.028863361105322838,0.008857538923621178
1761333847554027800,2.45702783203125,-0.017715077847242355,-0.02214384824037552,0.005192350596189499
1761333847572727800,2.475727783203125,-0.012217295356094837,-0.030695954337716103,0.011300998739898205
1761333847591427800,2.494427734375,-0.01282816007733345,-0.039858926087617874,0.0204639695584774
1761333847610128000,2.5131279296875,-0.012217295356094837,-0.036193739622831345,0.01740964688360691
1761333847628828200,2.531828125,-0.017715077847242355,-0.039858926087617874,0.003970621153712273
1761333847647528200,2.550528076171875,-0.020769402384757996,-0.03130681812763214,-0.0009162971982732415
1761333847666228200,2.569228271484375,-0.027488915249705315,-0.019700389355421066,-0.007635809946805239
1761333847684928300,2.58792822265625,-0.021380268037319183,-0.0038179049734026194,-0.02107483521103859
1761333847703628300,2.606628173828125,-0.020158538594841957,0.014508038759231567,-0.029626941308379173
1761333847722328300,2.625328369140625,-0.0256563201546669,0.021838415414094925,-0.028405211865901947
1761333847741028400,2.6440283203125,-0.03543015569448471,-0.008704823441803455,-0.028405211865901947
1761333847759728400,2.662728271484375,-0.037262752652168274,-0.042913250625133514,-0.03145953640341759
1761333847778429000,2.681428955078125,-0.0409279391169548,-0.03741546720266342,-0.02718348242342472
1761333847797129000,2.70012890625,-0.04886918142437935,-0.0062613640911877155,-0.03023780696094036
1761333847815829000,2.7188291015625,-0.0513126403093338,0.047494735568761826,-0.029626941308379173
1761333847834529000,2.737529052734375,-0.05253437161445618,0.07376192510128021,-0.016187917441129684
1761333847853229300,2.756229248046875,-0.040317077189683914,0.05299251899123192,0.007024944759905338
1761333847871929000,2.77492919921875,-0.024434590712189674,0.017562363296747208,0.005803215317428112
1761333847890629400,2.79362939453125,-0.01282816007733345,-0.0013744457392022014,-0.022296564653515816
1761333847909329400,2.812329345703125,-0.003665188793092966,0.004734201822429895,-0.041844237595796585
1761333847928029400,2.831029541015625,-0.000610864779446274,0.01511890348047018,-0.029016077518463135
1761333847946729500,2.8497294921875,0.001832594396546483,0.01206457894295454,-0.013133592903614044
1761333847965429500,2.868429443359375,0.001221729558892548,0.006566796451807022,-0.008857538923621178
1761333847984129500,2.887129638671875,-0.001832594396546483,0.01695149764418602,-0.010690134018659592
1761333848002829600,2.90582958984375,-0.004276053514331579,0.02672533318400383,-0.007024944759905338
1761333848021529600,2.924529541015625,-0.006719512399286032,0.031001387163996696,-0.010079269297420979
1761333848040229600,2.943229736328125,-0.004886918235570192,0.0383317656815052,-0.016798781231045723
1761333848058930000,2.961929931640625,0.004276053514331579,0.04505127668380737,-0.03390299528837204
1761333848077629700,2.980629638671875,0,0.021838415414094925,-0.06200277432799339
1761333848096330000,2.999330078125,0.014660755172371864,0.01206457894295454,-0.08277218043804169
1761333848115030000,3.018030029296875,0.020769402384757996,0.002901607658714056,-0.08093958348035812
1761333848133730000,3.03672998046875,0.01954767294228077,0.008399390615522861,-0.04734202101826668
1761333848152430000,3.05543017578125,0.01954767294228077,0.013897174037992954,0.003970621153712273
1761333848171130000,3.074130126953125,0.01954767294228077,0.006566796451807022,0.03390299528837204
1761333848189830100,3.092830078125,0.017715077847242355,0.006566796451807022,0.03756818547844887
1761333848208530200,3.1115302734375,0.002443459117785096,0.019394956529140472,0.0461202897131443
1761333848227230200,3.130230224609375,0.006108647678047419,0.010842849500477314,0.06322450190782547
1761333848245930200,3.14893017578125,0.018325943499803543,-0.01359174121171236,0.054672397673130035
1761333848264630500,3.167630615234375,0.024434590712189674,-0.05635227635502815,0.029626941308379173
1761333848283330600,3.18633056640625,0.02626718580722809,-0.0948367565870285,0.04550942778587341
1761333848302030600,3.205030517578125,0.028099779039621353,-0.09972367435693741,0.07238747924566269
1761333848320730600,3.223730712890625,0.021991131827235222,-0.06368265300989151,0.06750056147575378
1761333848339430700,3.2424306640625,0.015271619893610477,-0.02458730712532997,0.044898562133312225
1761333848358130700,3.261130615234375,0.007941242307424545,-0.009926552884280682,0.028405211865901947
1761333848376830700,3.279830810546875,-0.001221729558892548,0.002290742937475443,0.018631376326084137
1761333848395530800,3.29853076171875,-0.001832594396546483,-0.008704823441803455,-0.015577051788568497
1761333848414230800,3.317230712890625,0.006108647678047419,-0.017867794260382652,-0.04734202101826668
1761333848432930800,3.335930908203125,0.008552107028663158,-0.010537417605519295,-0.05100720748305321
1761333848451630800,3.354630859375,0.004276053514331579,0.004734201822429895,-0.032070402055978775
1761333848470331000,3.373330810546875,0.004276053514331579,0.006566796451807022,-0.01435532234609127
1761333848489031200,3.39203125,0.008552107028663158,-0.017867794260382652,-0.008246674202382565
1761333848507731200,3.410731201171875,0.010995565913617611,-0.033139415085315704,-0.010079269297420979
1761333848526431200,3.42943115234375,0.007941242307424545,-0.030695954337716103,-0.013133592903614044
1761333848545131300,3.44813134765625,0.007330377586185932,-0.017256930470466614,-0.014966187067329884
1761333848563831300,3.466831298828125,0.001221729558892548,0.0010690133785828948,-0.007024944759905338
1761333848582531300,3.48553125,-0.000610864779446274,0.004734201822429895,-0.005192350596189499
1761333848601231400,3.5042314453125,0.006108647678047419,0.001679878099821508,-0.013133592903614044
1761333848619931400,3.522931396484375,0.012217295356094837,-0.005039634648710489,-0.013133592903614044
1761333848638631400,3.54163134765625,0.01649334840476513,-0.0154243353754282,-0.013744457624852657
1761333848657331700,3.560331787109375,0.021380268037319183,-0.01847865991294384,-0.00946840364485979
1761333848676031700,3.57903173828125,0.020158538594841957,-0.02764163166284561,0.0015271619195118546
1761333848694731800,3.597731689453125,0.01954767294228077,-0.025809036567807198,-0.0015271619195118546
1761333848713431800,3.616431884765625,0.023823726922273636,-0.023365577682852745,-0.019853105768561363
1761333848732131800,3.6351318359375,0.031154103577136993,-0.022754713892936707,-0.02779434807598591
1761333848750831900,3.653831787109375,0.024434590712189674,-0.020311253145337105,-0.011300998739898205
1761333848769532000,3.672531982421875,0.027488915249705315,-0.026419902220368385,0.005803215317428112
1761333848788232000,3.69123193359375,0.023212861269712448,-0.016646064817905426,0.03695731982588768
1761333848806932000,3.709931884765625,0.007330377586185932,0.012675444595515728,0.07605266571044922
1761333848825632000,3.728632080078125,0.000610864779446274,-0.011759147047996521,0.10170898586511612
1761333848844332000,3.74733203125,-0.0054977829568088055,-0.05146535858511925,0.11148282140493393
1761333848863032300,3.7660322265625,-0.007941242307424545,-0.06795870512723923,0.08521563559770584
1761333848881732400,3.784732421875,-0.009773836471140385,-0.05757400393486023,0.0565049909055233
1761333848900432400,3.803432373046875,-0.023212861269712448,-0.03802633285522461,0.048563748598098755
1761333848919132400,3.82213232421875,-0.020769402384757996,-0.008093958720564842,0.05100720748305321
1761333848937832400,3.84083251953125,-0.010995565913617611,0.005955931730568409,0.03756818547844887
1761333848956532500,3.859532470703125,-0.006108647678047419,-0.022754713892936707,0.005803215317428112
1761333848975232500,3.878232421875,-0.001832594396546483,-0.04535670951008797,-0.023518294095993042
1761333848993932500,3.8969326171875,-0.014660755172371864,-0.05024362727999687,-0.02718348242342472
1761333849012632600,3.915632568359375,-0.0256563201546669,-0.027030766010284424,-0.021685699000954628
1761333849031332600,3.93433251953125,-0.03176496922969818,-0.02153298258781433,-0.026572618633508682
1761333849050033000,3.953032958984375,-0.036651886999607086,-0.02153298258781433,-0.0204639695584774
1761333849068733000,3.97173291015625,-0.0409279391169548,-0.01847865991294384,0.003970621153712273
1761333849087433000,3.990432861328125,-0.04214967042207718,-0.0062613640911877155,0.02718348242342472
1761333849106133000,4.009133056640625,-0.040317077189683914,-0.0062613640911877155,0.02412915788590908
1761333849124833000,4.0278330078125,-0.03481929376721382,-0.020922118797898293,0.006414080038666725
1761333849143533000,4.046532958984375,-0.03543015569448471,-0.027030766010284424,0.008246674202382565
1761333849162233000,4.065233154296875,-0.04276053607463837,-0.03130681812763214,0.025350889191031456
1761333849180933400,4.083933349609375,-0.043982263654470444,-0.0154243353754282,0.03390299528837204
1761333849199633200,4.102633056640625,-0.030543239787220955,-0.017867794260382652,0.0412333719432354
1761333849218333400,4.12133349609375,-0.023823726922273636,-0.020311253145337105,0.061391908675432205
1761333849237033500,4.140033447265625,-0.02260199747979641,-0.03497200831770897,0.07422006875276566
1761333849255733500,4.1587333984375,-0.018325943499803543,-0.05757400393486023,0.06383536756038666
1761333849274433500,4.17743359375,-0.012217295356094837,-0.04474584385752678,0.03451386094093323
1761333849293133600,4.196133544921875,-0.009162971749901772,-0.04413498193025589,0.025961752980947495
1761333849311833600,4.21483349609375,-0.004886918235570192,-0.052687086164951324,0.01802051067352295
1761333849330533600,4.23353369140625,-0.006719512399286032,-0.025809036567807198,0.0009162971982732415
1761333849349233700,4.252233642578125,-0.009773836471140385,0.012675444595515728,-0.035735588520765305
1761333849367933700,4.27093359375,-0.024434590712189674,0.04993819445371628,-0.0668896958231926
1761333849386634000,4.289634033203125,-0.033597562462091446,0.05543597787618637,-0.08093958348035812
1761333849405333800,4.308333740234375,-0.03298669680953026,0.03588830679655075,-0.08765909820795059
1761333849424034000,4.327033935546875,-0.023823726922273636,0.0010690133785828948,-0.08888082206249237
1761333849442734000,4.345734130859375,-0.02871064469218254,-0.0025961752980947495,-0.04550942778587341
1761333849461434000,4.36443408203125,-0.03848448023200035,0.011453714221715927,0.004581485874950886
1761333849480134100,4.383134033203125,-0.050090912729501724,0.047494735568761826,0.04062250629067421
1761333849498834200,4.401834228515625,-0.06719512492418289,0.056657709181308746,0.06261363625526428
1761333849517534200,4.4205341796875,-0.07147117704153061,0.02000582218170166,0.06872228533029556
1761333849536234200,4.439234130859375,-0.04581485688686371,-0.02214384824037552,0.05222893878817558
1761333849554934300,4.457934326171875,-0.027488915249705315,-0.04841103404760361,0.022907428443431854
1761333849573634600,4.476634521484375,-0.01649334840476513,-0.0795651376247406,0.025961752980947495
1761333849592334600,4.49533447265625,-0.01588248461484909,-0.10583232343196869,0.04245510324835777
1761333849611034600,4.51403466796875,0.001832594396546483,-0.09666935354471207,0.007024944759905338
1761333849629734700,4.532734619140625,0.0256563201546669,-0.033139415085315704,-0.0308486707508564
1761333849648434700,4.5514345703125,0.007941242307424545,0.03649916872382164,-0.04245510324835777
1761333849667134700,4.570134765625,-0.036651886999607086,0.08903354406356812,-0.05283980444073677
1761333849685834800,4.588834716796875,-0.02932151034474373,0.09086613357067108,-0.11087195575237274
1761333849704535000,4.60753515625,0.006719512399286032,0.051159925758838654,-0.1695149689912796
1761333849723234800,4.62623486328125,0.009162971749901772,-0.04474584385752678,-0.1438586562871933
1761333849741935000,4.64493505859375,-0.01649334840476513,-0.08811724185943604,-0.05955931544303894
1761333849760635100,4.66363525390625,-0.002443459117785096,-0.06673697382211685,-0.01435532234609127
1761333849779335200,4.682335205078125,0.015271619893610477,-0.02214384824037552,-0.013744457624852657
1761333849798035200,4.70103515625,0.013439024798572063,-0.03375028073787689,-0.018631376326084137
1761333849816735200,4.7197353515625,-0.008552107028663158,-0.02519817277789116,-0.016798781231045723
1761333849835435300,4.738435302734375,-0.026878049597144127,-0.011148282326757908,-0.016187917441129684
1761333849854135600,4.757135498046875,-0.018325943499803543,-0.02825249545276165,0.01435532234609127
1761333849872835300,4.77583544921875,0.000610864779446274,-0.11377356201410294,0.047952886670827866
1761333849891535600,4.79453564453125,-0.02626718580722809,-0.10705405473709106,0.05955931544303894
1761333849910235600,4.813235595703125,-0.001832594396546483,-0.022754713892936707,-0.008246674202382565
1761333849928935700,4.831935791015625,0.0409279391169548,0.003512472379952669,-0.0772743970155716
1761333849947635700,4.8506357421875,0.020158538594841957,-0.03375028073787689,-0.05894844979047775
1761333849966335700,4.869335693359375,-0.0054977829568088055,-0.030695954337716103,-0.023518294095993042
1761333849985035800,4.888035888671875,-0.025045456364750862,-0.0062613640911877155,-0.011911863461136818
1761333850003735800,4.90673583984375,-0.027488915249705315,0.018173227086663246,-0.01802051067352295
1761333850022435800,4.925435791015625,-0.012217295356094837,0.04016435891389847,-0.05711585655808449
1761333850041136000,4.94413623046875,0.012217295356094837,0.030390523374080658,-0.0870482325553894
1761333850059836200,4.962836181640625,0.021991131827235222,0.008399390615522861,-0.07849612087011337
1761333850078536200,4.9815361328125,0.050090912729501724,-0.008093958720564842,-0.08643736690282822
1761333850097236200,5.000236328125,0.07513637095689774,-0.022754713892936707,-0.06933315098285675
1761333850115936300,5.018936279296875,0.0818558782339096,-0.04474584385752678,-0.01802051067352295
1761333850134636300,5.03763623046875,0.07880155742168427,-0.05818486958742142,0.0565049909055233
1761333850153336300,5.05633642578125,0.06536252796649933,-0.04780016839504242,0.14019346237182617
1761333850172036600,5.07503662109375,0.04276053607463837,-0.02519817277789116,0.1945604383945465
1761333850190736600,5.093736572265625,0.04153880476951599,-0.009315688163042068,0.1957821547985077
1761333850209436700,5.112436767578125,0.04214967042207718,0.060933761298656464,0.19394956529140472
1761333850228136700,5.13113671875,0.013439024798572063,0.0902552679181099,0.20372340083122253
1761333850246836700,5.149836669921875,-0.007330377586185932,0.0798705667257309,0.24770566821098328
1761333850265536800,5.168536865234375,-0.02871064469218254,0.04932733252644539,0.30085089802742004
1761333850284236800,5.18723681640625,-0.007941242307424545,0.10430516302585602,0.33322674036026
1761333850302936800,5.205936767578125,-0.06780599057674408,0.10369429737329483,0.33078327775001526
1761333850321637000,5.22463720703125,-0.07086031138896942,0.07254019379615784,0.281914085149765
1761333850340337200,5.243337158203125,-0.0769689604640007,0.08353576064109802,0.21960589289665222
1761333850359037200,5.262037109375,-0.09101885557174683,0.044440411031246185,0.15485422313213348
1761333850377737200,5.2807373046875,-0.08979712426662445,0.01695149764418602,0.09621120244264603
1761333850396437200,5.299437255859375,-0.06414080411195755,0.024892739951610565,0.035124726593494415
1761333850415137300,5.31813720703125,-0.07452550530433655,0.064598947763443,-0.006414080038666725
1761333850433837300,5.33683740234375,-0.09285144507884979,0.05482511222362518,-0.032681263983249664
1761333850452537300,5.355537353515625,-0.09590577334165573,0.027336198836565018,-0.06933315098285675
1761333850471237600,5.374237548828125,-0.09712749719619751,0.004123337101191282,-0.1078176349401474
1761333850489937700,5.392937744140625,-0.09162971377372742,-0.01908952370285988,-0.12736530601978302
1761333850508637700,5.4116376953125,-0.09101885557174683,-0.014813470654189587,-0.07360920310020447
1761333850527337700,5.430337646484375,-0.12644900381565094,0.03894263133406639,0.02779434807598591
1761333850546037800,5.449037841796875,-0.15699224174022675,0.1049160286784172,0.09071341902017593
1761333850564737800,5.46773779296875,-0.17837251722812653,0.14950916171073914,0.11698060482740402
1761333850583437800,5.486437744140625,-0.19242240488529205,0.13729186356067657,0.11636973917484283
1761333850602138000,5.50513818359375,-0.1844811588525772,0.08353576064109802,0.07971785217523575
1761333850620838100,5.523838134765625,-0.17287473380565643,0.024892739951610565,0.02107483521103859
1761333850639538200,5.5425380859375,-0.15027274191379547,-0.055741410702466965,-0.019853105768561363
1761333850658238200,5.56123828125,-0.13194678723812103,-0.12965604662895203,0.011300998739898205
1761333850676938200,5.579938232421875,-0.1545487940311432,-0.15286891162395477,0.07849612087011337
1761333850695638300,5.59863818359375,-0.17165300250053406,-0.09605848789215088,0.10598503798246384
1761333850714338300,5.61733837890625,-0.19608759880065918,-0.02458730712532997,0.09621120244264603
1761333850733038300,5.636038330078125,-0.23884813487529755,0.064598947763443,0.0974329337477684
1761333850751738600,5.654738525390625,-0.26450446248054504,0.07681624591350555,0.08826996386051178
1761333850770438700,5.673438720703125,-0.24434591829776764,0.03222311660647392,0.06933315098285675
1761333850789138700,5.692138671875,-0.22968515753746033,0.015729768201708794,0.08277218043804169
1761333850807838700,5.710838623046875,-0.22296564280986786,-0.011148282326757908,0.08521563559770584
1761333850826538800,5.729538818359375,-0.21868959069252014,-0.06673697382211685,0.03817904740571976
1761333850845238800,5.74823876953125,-0.22968515753746033,-0.05024362727999687,-0.028405211865901947
1761333850863939000,5.76693896484375,-0.22785256803035736,-0.03802633285522461,-0.06322450190782547
1761333850882639000,5.78563916015625,-0.2156352698802948,-0.016035201027989388,-0.05039634555578232
1761333850901339100,5.804339111328125,-0.19181154668331146,-0.0386371985077858,-0.019242240116000175
1761333850920039200,5.8230390625,-0.17715078592300415,-0.1259908676147461,0.03023780696094036
1761333850938739200,5.8417392578125,-0.16126830875873566,-0.18829907476902008,0.06322450190782547
1761333850957439200,5.860439208984375,-0.1533270627260208,-0.1308777779340744,0.048563748598098755
1761333850976139500,5.879139404296875,-0.1533270627260208,-0.052076224237680435,-0.015577051788568497
1761333850994839300,5.89783935546875,-0.14721840620040894,-0.008704823441803455,-0.05528326332569122
1761333851013539600,5.91653955078125,-0.13561198115348816,-0.05146535858511925,-0.08093958348035812
1761333851032239600,5.935239501953125,-0.08857539296150208,-0.08078686892986298,-0.09865466505289078
1761333851050939600,5.953939697265625,-0.036651886999607086,-0.1101083755493164,-0.09987638890743256
1761333851069639700,5.9726396484375,0.0030543238390237093,-0.11988221108913422,-0.07116574794054031
1761333851088339700,5.991339599609375,0.03481929376721382,-0.10155627131462097,-0.03451386094093323
1761333851107039700,6.010039794921875,0.06902772188186646,-0.141262486577034,-0.032681263983249664
1761333851125740000,6.028739990234375,0.08979712426662445,-0.13209950923919678,-0.047952886670827866
1761333851144440000,6.047440185546875,0.09590577334165573,-0.08261945843696594,-0.06750056147575378
1761333851163140000,6.06614013671875,0.07452550530433655,-0.030695954337716103,-0.07116574794054031
1761333851181840100,6.084840087890625,0.05436696484684944,-0.02458730712532997,-0.06872228533029556
1761333851200540200,6.1035400390625,0.0616973415017128,-0.0844520553946495,-0.0717766135931015
1761333851219240200,6.122240234375,0.1081230640411377,-0.10094540566205978,-0.07116574794054031
1761333851237940200,6.140940185546875,0.13255766034126282,-0.061850059777498245,-0.04734202101826668
1761333851256640500,6.159640625,0.12217295914888382,-0.01847865991294384,-0.016187917441129684
1761333851275340500,6.178340576171875,0.0977383628487587,-0.02458730712532997,0.004581485874950886
1761333851294040600,6.19704052734375,0.05925388261675835,-0.07101303339004517,0.008246674202382565
1761333851312740600,6.21574072265625,0.017104214057326317,-0.07712167501449585,-0.01435532234609127
1761333851331440600,6.234440673828125,-0.009773836471140385,-0.06368265300989151,-0.06811141967773438
1761333851350140700,6.253140625,-0.033597562462091446,-0.04108065739274025,-0.1127045527100563
1761333851368841000,6.271841064453125,-0.07269290834665298,0.008399390615522861,-0.11636973917484283
1761333851387540700,6.290540771484375,-0.09162971377372742,0.03283398225903511,-0.0821613147854805
1761333851406241000,6.309240966796875,-0.10629047453403473,0.02000582218170166,-0.04001164436340332
1761333851424941000,6.327941162109375,-0.10567960888147354,-0.02458730712532997,-0.022907428443431854
1761333851443641000,6.34664111328125,-0.09040798991918564,-0.07223475724458694,-0.038789913058280945
1761333851462341000,6.365341064453125,-0.0513126403093338,-0.0899498388171196,-0.06933315098285675
1761333851481041200,6.384041259765625,0.006108647678047419,-0.10766492038965225,-0.09376774728298187
1761333851499741200,6.4027412109375,0.04886918142437935,-0.14859285950660706,-0.07971785217523575
1761333851518441500,6.42144140625,0.020158538594841957,-0.1766926348209381,-0.019242240116000175
1761333851537141500,6.4401416015625,-0.06230820715427399,-0.11927134543657303,0.03756818547844887
1761333851555841500,6.458841552734375,-0.09101885557174683,-0.008704823441803455,0.032070402055978775
1761333851574541600,6.47754150390625,-0.07757982611656189,0.08720094710588455,-0.0009162971982732415
1761333851593241600,6.49624169921875,-0.050090912729501724,0.2026543915271759,0.0009162971982732415
1761333851611942000,6.51494189453125,-0.04520399495959282,0.22220206260681152,0.032070402055978775
1761333851630642000,6.533641845703125,-0.03848448023200035,0.18127411603927612,0.038789913058280945
1761333851649342000,6.552342041015625,0.004276053514331579,0.12873975932598114,0.013744457624852657
1761333851668042000,6.5710419921875,0.06536252796649933,0.09453132748603821,-0.012522728182375431
1761333851686742000,6.589741943359375,0.1386663019657135,0.04321868345141411,-0.03145953640341759
1761333851705442000,6.608442138671875,0.17043127119541168,-0.0062613640911877155,-0.0204639695584774
1761333851724142300,6.627142333984375,0.1496618688106537,0.017562363296747208,0.016798781231045723
1761333851742842000,6.645842041015625,0.11484257876873016,0.05604684352874756,0.03145953640341759
1761333851761542400,6.66454248046875,0.09957095980644226,0.11346813291311264,0.016798781231045723
1761333851780242400,6.683242431640625,0.10079269111156464,0.1727220118045807,-0.007024944759905338
1761333851798942500,6.7019423828125,0.08857539296150208,0.17088942229747772,-0.013133592903614044
1761333851817642500,6.720642578125,0.07086031138896942,0.11957678198814392,-0.010079269297420979
1761333851836342500,6.739342529296875,0.047036588191986084,0.13729186356067657,0.011300998739898205
1761333851855042800,6.758042724609375,0.017715077847242355,0.19043709337711334,0.0204639695584774
1761333851873742800,6.776742919921875,0.004886918235570192,0.18432845175266266,-0.0015271619195118546
1761333851892443000,6.79544287109375,0.010384701192378998,0.17333288490772247,-0.029016077518463135
1761333851911143000,6.814142822265625,0.007941242307424545,0.19654574990272522,-0.038789913058280945
1761333851929843000,6.832843017578125,-0.010995565913617611,0.21487168967723846,-0.03695731982588768
1761333851948543000,6.85154296875,-0.021991131827235222,0.187382772564888,-0.04062250629067421
1761333851967243300,6.8702431640625,-0.01893680728971958,0.16539163887500763,-0.04917461425065994
1761333851985943300,6.888943359375,0.000610864779446274,0.1513417512178421,-0.06811141967773438
1761333852004643300,6.907643310546875,0.007941242307424545,0.10369429737329483,-0.0870482325553894
1761333852023343400,6.92634326171875,0.017715077847242355,0.07498364895582199,-0.09804379940032959
1761333852042043400,6.94504345703125,0.03543015569448471,0.0798705667257309,-0.09560033679008484
1761333852060743400,6.963743408203125,0.0409279391169548,0.07131846249103546,-0.06872228533029556
1761333852079443500,6.982443359375,0.03848448023200035,0.05971203371882439,-0.03940077871084213
1761333852098143500,7.0011435546875,0.059864748269319534,0.037720900028944016,-0.03451386094093323
1761333852116843800,7.01984375,0.08429934084415436,-0.0013744457392022014,-0.023518294095993042
1761333852135543800,7.038543701171875,0.0873536616563797,-0.03436114266514778,0.006414080038666725
1761333852154243800,7.057243896484375,0.07635809481143951,-0.03497200831770897,0.04673115536570549
1761333852172944000,7.07594384765625,0.06414080411195755,-0.02825249545276165,0.08521563559770584
1761333852191644000,7.094643798828125,0.04886918142437935,-0.03802633285522461,0.11392628401517868
1761333852210344200,7.11334423828125,0.028099779039621353,-0.025809036567807198,0.12431098520755768
1761333852229044200,7.132044189453125,0.015271619893610477,-0.012370011769235134,0.10842850059270859
1761333852247744300,7.150744140625,0.01893680728971958,-0.005650499369949102,0.08643736690282822
1761333852266444300,7.1694443359375,0.033597562462091446,-0.02764163166284561,0.07605266571044922
1761333852285144300,7.188144287109375,0.053756099194288254,-0.07773254066705704,0.05222893878817558
1761333852303844600,7.2068447265625,0.07086031138896942,-0.07101303339004517,0.021685699000954628
1761333852322544400,7.22554443359375,0.07819069176912308,-0.04535670951008797,0.000305432389723137
1761333852341244700,7.24424462890625,0.08429934084415436,-0.07162389904260635,0.0021380267571657896
1761333852359944700,7.26294482421875,0.09162971377372742,-0.11377356201410294,0.00946840364485979
1761333852378644700,7.281644775390625,0.10079269111156464,-0.09544762223958969,0.0204639695584774
1761333852397344800,7.3003447265625,0.11178825795650482,-0.06673697382211685,0.03329212963581085
1761333852416044800,7.319044921875,0.11117739230394363,-0.08261945843696594,0.0565049909055233
1761333852434745000,7.3377451171875,0.0922405794262886,-0.07345648854970932,0.0668896958231926
1761333852453445000,7.356445068359375,0.08002328872680664,-0.025809036567807198,0.05406153202056885
1761333852472145200,7.375145263671875,0.09468404203653336,0.004123337101191282,0.03329212963581085
1761333852490845200,7.39384521484375,0.11423171311616898,-0.02764163166284561,0.01802051067352295
1761333852509545200,7.412545166015625,0.11423171311616898,-0.07712167501449585,-0.010079269297420979
1761333852528245200,7.431245361328125,0.09834922850131989,-0.10705405473709106,-0.06627883017063141
1761333852546945500,7.449945556640625,0.08491020649671555,-0.09239330142736435,-0.10415244847536087
1761333852565645600,7.4686455078125,0.07391463965177536,-0.039858926087617874,-0.09682206809520721
1761333852584345600,7.487345703125,0.06780599057674408,-0.017256930470466614,-0.06261363625526428
1761333852603045600,7.506045654296875,0.04214967042207718,-0.01847865991294384,-0.01802051067352295
1761333852621745700,7.52474560546875,0.008552107028663158,-0.03375028073787689,0.006414080038666725
1761333852640446000,7.543446044921875,-0.017104214057326317,-0.023976443335413933,-0.0009162971982732415
1761333852659146000,7.56214599609375,-0.023212861269712448,-0.0013744457392022014,-0.007635809946805239
1761333852677846000,7.580845947265625,-0.02932151034474373,0.001679878099821508,0.022296564653515816
1761333852696546000,7.599546142578125,-0.04764745384454727,-0.004428769461810589,0.07422006875276566
1761333852715246000,7.61824609375,-0.07391463965177536,-0.02214384824037552,0.0974329337477684
1761333852733946000,7.636946044921875,-0.07024945318698883,-0.0154243353754282,0.07605266571044922
1761333852752646400,7.655646484375,-0.04276053607463837,0.005345067009329796,0.05711585655808449
1761333852771346400,7.674346435546875,-0.0256563201546669,-0.012980876490473747,0.07238747924566269
1761333852790046500,7.69304638671875,-0.017104214057326317,-0.01908952370285988,0.08521563559770584
1761333852808746500,7.71174658203125,-0.000610864779446274,-0.008704823441803455,0.07360920310020447
1761333852827446500,7.730446533203125,0.014660755172371864,-0.016035201027989388,0.04734202101826668
1761333852846146800,7.749146728515625,0.02626718580722809,-0.012980876490473747,0.022296564653515816
1761333852864846800,7.767846923828125,0.01893680728971958,-0.016646064817905426,0.016187917441129684
1761333852883547000,7.786546875,0.0054977829568088055,0.010842849500477314,0.02779434807598591
1761333852902247000,7.805246826171875,0.004276053514331579,0.013286309316754341,0.03329212963581085
1761333852920947000,7.823947021484375,0.003665188793092966,-0.0001527161948615685,0.03329212963581085
1761333852939647200,7.842647216796875,-0.001221729558892548,-0.0001527161948615685,0.03329212963581085
1761333852958347000,7.861346923828125,-0.0054977829568088055,0.04321868345141411,0.05222893878817558
1761333852977047300,7.88004736328125,-0.009773836471140385,0.06154462695121765,0.06811141967773438
1761333852995747300,7.898747314453125,-0.017715077847242355,0.040775224566459656,0.06811141967773438
1761333853014447400,7.917447265625,-0.037262752652168274,0.002290742937475443,0.04428769648075104
1761333853033147400,7.9361474609375,-0.040317077189683914,0.00045814859913662076,-0.0015271619195118546
1761333853051847400,7.954847412109375,-0.034208428114652634,0.017562363296747208,-0.018631376326084137
1761333853070547700,7.973547607421875,-0.04581485688686371,0.05238165333867073,0.008246674202382565
1761333853089247700,7.992247802734375,-0.047036588191986084,0.0639880821108818,0.0461202897131443
1761333853107947800,8.01094775390625,-0.043371398001909256,0.02611446939408779,0.04550942778587341
1761333853126647800,8.029647705078125,-0.0360410213470459,-0.005650499369949102,-0.005192350596189499
1761333853145347800,8.048347900390626,-0.036651886999607086,0.03711003437638283,-0.04245510324835777
1761333853164048000,8.0670478515625,-0.04886918142437935,0.06337722390890121,-0.03329212963581085
1761333853182748200,8.085748046875,-0.05925388261675835,0.04932733252644539,-0.019853105768561363
1761333853201448200,8.1044482421875,-0.04825831577181816,0.06215549260377884,-0.018631376326084137
1761333853220148200,8.123148193359375,-0.021991131827235222,0.06337722390890121,-0.010079269297420979
1761333853238848300,8.14184814453125,0.010995565913617611,0.05238165333867073,0.029626941308379173
1761333853257548300,8.16054833984375,0.01649334840476513,0.02916879393160343,0.06505709886550903
1761333853276248600,8.17924853515625,0.000610864779446274,0.021838415414094925,0.06627883017063141
1761333853294948600,8.197948486328125,-0.0256563201546669,0.03405570983886719,0.05894844979047775
1761333853313648600,8.216648681640624,-0.05436696484684944,0.046883873641490936,0.061391908675432205
1761333853332348700,8.2353486328125,-0.06414080411195755,0.03283398225903511,0.07116574794054031
1761333853351048700,8.254048583984375,-0.05497783049941063,0.011453714221715927,0.07299833744764328
1761333853369749000,8.2727490234375,-0.029932374134659767,0.01206457894295454,0.05711585655808449
1761333853388448800,8.29144873046875,-0.002443459117785096,-0.0032070400193333626,0.0461202897131443
1761333853407149000,8.310149169921875,0.02260199747979641,-0.011148282326757908,0.04917461425065994
1761333853425849000,8.32884912109375,0.040317077189683914,-0.022754713892936707,0.05345066636800766
1761333853444549000,8.347549072265625,0.04886918142437935,-0.03375028073787689,0.0308486707508564
1761333853463249200,8.366249267578125,0.07513637095689774,-0.036804601550102234,-0.0015271619195118546
1761333853481949200,8.38494921875,0.10690133273601532,-0.0435241162776947,-0.007635809946805239
1761333853500649500,8.4036494140625,0.10751219838857651,-0.055741410702466965,-0.008857538923621178
1761333853519349500,8.422349609375,0.10018182545900345,-0.05635227635502815,-0.028405211865901947
1761333853538049500,8.441049560546874,0.10323614627122879,-0.06490438431501389,-0.04062250629067421
1761333853556749600,8.45974951171875,0.10934479534626007,-0.0691804364323616,-0.024740023538470268
1761333853575449600,8.47844970703125,0.09834922850131989,-0.06979130208492279,0.019242240116000175
1761333853594150000,8.49714990234375,0.08979712426662445,-0.05451968312263489,0.03145953640341759
1761333853612850000,8.515849853515626,0.0818558782339096,-0.045967575162649155,0.0015271619195118546
1761333853631550000,8.534550048828125,0.07635809481143951,-0.06490438431501389,-0.04673115536570549
1761333853650250000,8.55325,0.07880155742168427,-0.05757400393486023,-0.07299833744764328
1761333853668950000,8.571949951171876,0.07024945318698883,-0.03252854943275452,-0.05955931544303894
1761333853687650000,8.590650146484375,0.07024945318698883,-0.020311253145337105,-0.026572618633508682
1761333853706350300,8.609350341796874,0.07452550530433655,-0.023365577682852745,-0.011911863461136818
1761333853725050400,8.62805029296875,0.0769689604640007,-0.026419902220368385,-0.03145953640341759
1761333853743750400,8.64675048828125,0.08796452730894089,-0.04230238497257233,-0.0772743970155716
1761333853762450400,8.665450439453124,0.09346231073141098,-0.05146535858511925,-0.09437860548496246
1761333853781150500,8.684150390625,0.10018182545900345,-0.033139415085315704,-0.0766635313630104
1761333853799850800,8.702850830078125,0.10079269111156464,-0.012980876490473747,-0.05100720748305321
1761333853818550800,8.72155078125,0.08429934084415436,0.019394956529140472,-0.025961752980947495
1761333853837250800,8.740250732421876,0.06597339361906052,0.050549060106277466,-0.029626941308379173
1761333853855950800,8.758950927734375,0.056810423731803894,0.08292489498853683,-0.04062250629067421
1761333853874651000,8.77765087890625,0.046425722539424896,0.0847574844956398,-0.0461202897131443
1761333853893351200,8.79635107421875,0.01649334840476513,0.06337722390890121,-0.038789913058280945
1761333853912051200,8.81505126953125,-0.024434590712189674,0.06582067906856537,-0.032681263983249664
1761333853930751200,8.833751220703125,-0.03787361457943916,0.10919208079576492,-0.016187917441129684
1761333853949451300,8.852451171875,-0.0256563201546669,0.040775224566459656,0.000305432389723137
1761333853968151300,8.8711513671875,-0.012217295356094837,-0.0539088174700737,0.005192350596189499
1761333853986851600,8.8898515625,-0.03298669680953026,-0.07834340631961823,0.013744457624852657
1761333854005551400,8.90855126953125,-0.06597339361906052,-0.004428769461810589,0.06017018109560013
1761333854024251600,8.927251708984375,-0.07330377399921417,0.05177079141139984,0.12553271651268005
1761333854042951700,8.94595166015625,-0.06780599057674408,0.0334448479115963,0.14263692498207092
1761333854061651700,8.964651611328126,-0.04886918142437935,-0.009315688163042068,0.10415244847536087
1761333854080351700,8.983351806640625,0.000610864779446274,-0.026419902220368385,0.035124726593494415
1761333854099051800,9.0020517578125,0.047036588191986084,-0.005650499369949102,-0.00946840364485979
1761333854117752000,9.020751953125,0.08796452730894089,0.005345067009329796,-0.02779434807598591
1761333854136452000,9.0394521484375,0.11728604137897491,-0.020922118797898293,-0.0412333719432354
1761333854155152100,9.058152099609375,0.1288924664258957,-0.03191768378019333,-0.048563748598098755
1761333854173852200,9.07685205078125,0.1178968995809555,-0.030085090547800064,-0.047952886670827866
1761333854192552200,9.09555224609375,0.09529490768909454,-0.026419902220368385,-0.0412333719432354
1761333854211252500,9.11425244140625,0.06414080411195755,-0.023365577682852745,-0.0027488914784044027
1761333854229952500,9.132952392578124,0.030543239787220955,0.013897174037992954,0.0565049909055233
1761333854248652500,9.151652587890625,0.004886918235570192,0.030390523374080658,0.08765909820795059
1761333854267352600,9.1703525390625,-0.0054977829568088055,0.018784092739224434,0.0821613147854805
1761333854286052600,9.189052490234374,-0.004276053514331579,0.005345067009329796,0.0461202897131443
1761333854304753000,9.2077529296875,-0.011606430634856224,0.017562363296747208,0.024740023538470268
1761333854323453000,9.226452880859375,-0.021380268037319183,0.02977965772151947,0.01435532234609127
1761333854342153000,9.245153076171874,-0.01588248461484909,0.0383317656815052,0.004581485874950886
1761333854360853000,9.26385302734375,-0.007330377586185932,0.013286309316754341,-0.00946840364485979
1761333854379553000,9.282552978515625,-0.01282816007733345,0.02977965772151947,-0.01740964688360691
1761333854398253300,9.30125341796875,-0.018325943499803543,0.03283398225903511,-0.025961752980947495
1761333854416953300,9.319953369140626,-0.01893680728971958,0.022449281066656113,-0.024740023538470268
1761333854435653400,9.3386533203125,-0.023823726922273636,0.018784092739224434,-0.022907428443431854
1761333854454353400,9.357353515625,-0.037262752652168274,0.018784092739224434,-0.03329212963581085
1761333854473053400,9.376053466796876,-0.046425722539424896,0.041386090219020844,-0.04673115536570549
1761333854491753500,9.39475341796875,-0.0513126403093338,0.05299251899123192,-0.04673115536570549
1761333854510453800,9.413453857421874,-0.043982263654470444,0.06276635825634003,-0.03451386094093323
1761333854529153800,9.43215380859375,-0.017715077847242355,0.051159925758838654,-0.029016077518463135
1761333854547853800,9.450853759765625,0.01588248461484909,0.021838415414094925,-0.0308486707508564
1761333854566553900,9.469553955078124,0.028099779039621353,0.01695149764418602,-0.01802051067352295
1761333854585254000,9.48825390625,0.011606430634856224,0.057268574833869934,0.004581485874950886
1761333854603954200,9.5069541015625,-0.01588248461484909,0.0639880821108818,0.01435532234609127
1761333854622654200,9.525654296875,-0.02260199747979641,0.005955931730568409,-0.000305432389723137
1761333854641354200,9.544354248046876,-0.014660755172371864,-0.026419902220368385,-0.019242240116000175
1761333854660054300,9.56305419921875,0.004276053514331579,0.004734201822429895,-0.013744457624852657
1761333854678754300,9.58175439453125,0.04459312930703163,0.04321868345141411,0.022296564653515816
1761333854697454600,9.60045458984375,0.0818558782339096,0.031001387163996696,0.04367683082818985
1761333854716154600,9.619154541015625,0.09651663154363632,-0.017256930470466614,0.01740964688360691
1761333854734854700,9.637854736328125,0.11545344442129135,-0.058795735239982605,-0.05833758786320686
1761333854753554700,9.6565546875,0.13500112295150757,-0.058795735239982605,-0.11087195575237274
1761333854772254700,9.675254638671875,0.13744457066059113,-0.049632761627435684,-0.0974329337477684
1761333854790955000,9.693955078125,0.11484257876873016,-0.0691804364323616,-0.05406153202056885
1761333854809655000,9.712655029296876,0.09651663154363632,-0.05085449293255806,-0.011911863461136818
1761333854828355000,9.73135498046875,0.08429934084415436,-0.03375028073787689,0.004581485874950886
1761333854847055000,9.75005517578125,0.05742128938436508,-0.02519817277789116,0.019853105768561363
1761333854865755100,9.768755126953126,0.023823726922273636,-0.0154243353754282,0.051618073135614395
1761333854884455400,9.787455322265625,0.008552107028663158,-0.009926552884280682,0.06322450190782547
1761333854903155500,9.806155517578125,0.000610864779446274,0.005955931730568409,0.06505709886550903
1761333854921855500,9.82485546875,-0.000610864779446274,0.044440411031246185,0.038789913058280945
1761333854940555500,9.843555419921875,-0.003665188793092966,0.0896444097161293,0.02779434807598591
1761333854959255600,9.862255615234375,-0.01893680728971958,0.14950916171073914,0.06322450190782547
1761333854977955800,9.880955810546874,-0.04459312930703163,-0.19868376851081848,0.01802051067352295
1761333854996655900,9.89965576171875,0.07757982611656189,-0.18402300775051117,-0.14141519367694855
1761333855015356000,9.91835595703125,0.06780599057674408,-0.04108065739274025,-0.23243404924869537
1761333855034056000,9.937055908203124,0.03543015569448471,-0.014813470654189587,-0.16096286475658417
1761333855052756000,9.955755859375,-0.009773836471140385,0.025503603741526604,0.005803215317428112
