time,seconds_elapsed,z,y,x
1761333845170862300,0.0738623046875,9.375079154968262,1.2538390159606934,0.5288137793540955
1761333845189562400,0.092562255859375,9.968499183654785,1.0863415002822876,0.5120640397071838
1761333845208262400,0.111262451171875,9.994820594787598,1.0600204467773438,0.28953152894973755
1761333845226962400,0.12996240234375,9.8871431350708,1.2131611108779907,0.21296121180057526
1761333845245662500,0.148662353515625,9.698110580444336,1.2681959867477417,0.3158525824546814
1761333845264362500,0.167362548828125,9.485149383544922,1.3830515146255493,0.2991028428077698
1761333845283062500,0.1860625,9.487542152404785,1.5194423198699951,0.007178467698395252
1761333845301762600,0.204762451171875,9.614361763000488,1.4333007335662842,0.09092725813388824
1761333845320462600,0.223462646484375,9.949356079101562,1.4476577043533325,0.32542386651039124
1761333845339162600,0.24216259765625,9.930213928222656,1.4835500717163086,0.27038896083831787
1761333845357863000,0.26086279296875,9.437292098999023,1.552941918373108,0.2560320198535919
1761333845376562700,0.279562744140625,9.131011009216309,1.648654818534851,0.2225325107574463
1761333845395263000,0.298262939453125,9.279366493225098,1.5984054803848267,-0.0023928226437419653
1761333845413963000,0.316962890625,9.863214492797852,1.2634103298187256,0.4833501875400543
1761333845432662800,0.335662841796875,10.308279991149902,1.1653046607971191,0.06699903309345245
1761333845451363000,0.354363037109375,10.526026725769043,1.0360921621322632,-0.09092725813388824
1761333845470063000,0.37306298828125,10.262816429138184,1.1724830865859985,-0.40677985548973083
1761333845488763100,0.39176318359375,10.104889869689941,1.2251251935958862,-0.42352959513664246
1761333845507463200,0.410463134765625,9.884750366210938,1.373480200767517,-0.35892340540885925
1761333845526163200,0.4291630859375,9.949356079101562,1.31365966796875,-0.09092725813388824
1761333845544863200,0.44786328125,9.779465675354004,1.4069796800613403,-0.3086741268634796
1761333845563563300,0.466563232421875,9.66221809387207,1.28255295753479,-0.2153540402650833
1761333845582263300,0.48526318359375,9.499505996704102,1.28255295753479,-0.31106695532798767
1761333845600963300,0.50396337890625,9.722038269042969,1.210768222808838,0.02632104977965355
1761333845619663400,0.522663330078125,9.798608779907227,1.277767300605774,-0.20099709928035736
1761333845638363600,0.54136376953125,9.856036186218262,1.1461620330810547,-0.2727817893028259
1761333845657063400,0.5600634765625,10.01156997680664,1.1868400573730469,-0.1818545162677765
1761333845675763700,0.578763671875,10.171889305114746,1.1629117727279663,-0.15314064919948578
1761333845694463700,0.597463623046875,10.104889869689941,1.1461620330810547,-0.12442677468061447
1761333845713163800,0.616163818359375,9.973284721374512,1.1102696657180786,-0.11724831163883209
1761333845731863800,0.63486376953125,10.052248001098633,1.0480563640594482,-0.22013968229293823
1761333845750563800,0.653563720703125,9.942177772521973,1.069591760635376,-0.14356936514377594
1761333845769263900,0.672263916015625,9.750752449035645,1.0815558433532715,-0.20578274130821228
1761333845787964000,0.6909638671875,9.53779125213623,0.9978070259094238,-0.2153540402650833
1761333845806664000,0.709663818359375,9.477970123291016,0.9906286001205444,-0.23449662327766418
1761333845825364000,0.728364013671875,9.602396965026855,0.9595218896865845,-0.24167509377002716
1761333845844064000,0.74706396484375,9.982855796813965,0.9762716293334961,-0.275174617767334
1761333845862764000,0.765763916015625,10.102497100830078,0.916451096534729,-0.13160525262355804
1761333845881464000,0.784464111328125,9.994820594787598,0.9571290612220764,0.0526420995593071
1761333845900164000,0.8031640625,9.961320877075195,0.9882357716560364,0.07896314561367035
1761333845918864400,0.821864501953125,9.90149974822998,1.074377417564392,0.21296121180057526
1761333845937564200,0.840564208984375,9.738788604736328,1.1365907192230225,0.31345975399017334
1761333845956264400,0.859264404296875,9.714859962463379,1.1461620330810547,0.28235307335853577
1761333845974964500,0.877964599609375,9.841679573059082,1.1509476900100708,0.22971096634864807
1761333845993664500,0.89666455078125,9.891928672790527,1.1461620330810547,0.3278166949748993
1761333846012364500,0.915364501953125,9.772287368774414,1.1676974296569824,0.3732803463935852
1761333846031064600,0.934064697265625,9.738788604736328,1.124626636505127,0.24406790733337402
1761333846049764600,0.9527646484375,9.8871431350708,1.153340458869934,0.10767702013254166
1761333846068464600,0.971464599609375,9.879964828491211,1.129412293434143,0.275174617767334
1761333846087164700,0.99016455078125,9.779465675354004,1.1700903177261353,0.2919243574142456
1761333846105864700,1.00886474609375,9.774680137634277,1.191625714302063,0.3684946894645691
1761333846124564700,1.027564697265625,9.714859962463379,1.2370892763137817,0.34217363595962524
1761333846143264800,1.0462646484375,9.8871431350708,1.1581261157989502,0.2679961323738098
1761333846161964800,1.06496484375,10.107282638549805,1.0360921621322632,-0.016749758273363113
1761333846180665000,1.0836650390625,10.255638122558594,1.1413763761520386,0.3158525824546814
1761333846199365000,1.102365234375,10.116853713989258,1.1509476900100708,0.22013968229293823
1761333846218065200,1.121065185546875,9.868000984191895,1.153340458869934,0.11724831163883209
1761333846236765200,1.13976513671875,9.78664493560791,1.184447169303894,0.14356936514377594
1761333846255465200,1.15846533203125,9.832108497619629,1.2011969089508057,0.23210379481315613
1761333846274165200,1.177165283203125,9.748359680175781,1.1653046607971191,0.27756741642951965
1761333846292865300,1.195865234375,9.748359680175781,1.1581261157989502,0.29431718587875366
1761333846311565300,1.2145654296875,9.717252731323242,1.1748759746551514,0.2919243574142456
1761333846330265300,1.233265380859375,9.76989459991455,1.1892328262329102,0.2105683982372284
1761333846348965400,1.25196533203125,9.90149974822998,1.1820544004440308,0.18424734473228455
1761333846367665400,1.27066552734375,9.882357597351074,1.1820544004440308,0.15553347766399384
1761333846386365400,1.289365478515625,9.750752449035645,1.196411371231079,0.1459621787071228
1761333846405065700,1.308065673828125,9.774680137634277,1.1820544004440308,0.1339980661869049
1761333846423765500,1.326765625,9.987641334533691,1.2203395366668701,0.16749759018421173
1761333846442465800,1.3454658203125,9.968499183654785,1.2490534782409668,0.21774685382843018
1761333846461165800,1.364165771484375,9.78664493560791,1.2849457263946533,0.1818545162677765
1761333846479865900,1.382865966796875,9.834501266479492,1.3758729696273804,0.1986042857170105
1761333846498566000,1.40156591796875,9.839286804199219,1.4021940231323242,0.13160525262355804
1761333846517266000,1.420265869140625,9.78664493560791,1.3758729696273804,0.20338992774486542
1761333846535966000,1.438966064453125,9.860821723937988,1.3399807214736938,0.19621145725250244
1761333846554666000,1.457666015625,9.872786521911621,1.3088740110397339,0.20338992774486542
1761333846573366000,1.476365966796875,9.791430473327637,1.3184453248977661,0.17228323221206665
1761333846592066000,1.495066162109375,9.722038269042969,1.2658032178878784,0.20099709928035736
1761333846610766000,1.51376611328125,9.729216575622559,1.210768222808838,0.1986042857170105
1761333846629466400,1.53246630859375,9.681360244750977,1.184447169303894,0.1579262912273407
1761333846648166100,1.551166259765625,9.695717811584473,1.1820544004440308,0.12681959569454193
1761333846666866400,1.569866455078125,9.58325481414795,1.2011969089508057,0.2392822653055191
1761333846685566500,1.58856640625,9.58325481414795,1.2705888748168945,0.2871387302875519
1761333846704266500,1.6072666015625,9.485149383544922,1.3615161180496216,0.28953152894973755
1761333846722966500,1.625966552734375,9.473184585571289,1.423729419708252,0.1459621787071228
1761333846741666600,1.64466650390625,9.791430473327637,1.4452649354934692,0.10049854964017868
1761333846760366600,1.66336669921875,10.097711563110352,1.3567304611206055,0.09571290761232376
1761333846779066600,1.682066650390625,10.124032974243164,1.3806586265563965,0.16749759018421173
1761333846797766700,1.7007666015625,9.980463027954102,1.404586911201477,0.16510476171970367
1761333846816466700,1.719466796875,10.061819076538086,1.3615161180496216,0.14356936514377594
1761333846835166700,1.738166748046875,10.05703353881836,1.332802176475525,0.1698904037475586
1761333846853866800,1.75686669921875,9.9469633102417,1.2538390159606934,0.17228323221206665
1761333846872566800,1.77556689453125,9.705288887023926,1.2083754539489746,0.13160525262355804
1761333846891267000,1.79426708984375,9.542576789855957,1.160519003868103,0.02871387079358101
1761333846909966800,1.812966796875,9.635896682739258,1.1485549211502075,-0.11485548317432404
1761333846928667100,1.831667236328125,9.966106414794922,1.2897313833236694,-0.16510476171970367
1761333846947367200,1.8503671875,10.071390151977539,1.454836130142212,0.02392822690308094
1761333846966067200,1.869067138671875,9.954142570495605,1.6271194219589233,0.08135596662759781
1761333846984767200,1.887767333984375,9.9469633102417,1.7084753513336182,0.16271193325519562
1761333847003467300,1.90646728515625,9.90149974822998,1.7467604875564575,0.14117653667926788
1761333847022167300,1.925167236328125,9.923035621643066,1.679761528968811,0.07178468257188797
1761333847040867300,1.943867431640625,9.810572624206543,1.5936198234558105,0.004785645287483931
1761333847059567400,1.9625673828125,9.67657470703125,1.459621787071228,0.035892341285943985
1761333847078267400,1.981267333984375,9.554540634155273,1.3663017749786377,0.03349951654672623
1761333847096967400,1.999967529296875,9.561718940734863,1.3232308626174927,0.016749758273363113
1761333847115667700,2.018667724609375,9.702896118164062,1.2921242713928223,0.08614161610603333
1761333847134367500,2.037367431640625,9.755537986755371,1.2873386144638062,0.09810572862625122
1761333847153067800,2.05606787109375,9.822537422180176,1.2897313833236694,0.0933200865983963
1761333847171767800,2.074767822265625,9.76989459991455,1.373480200767517,0.07417750358581543
1761333847190467800,2.0934677734375,9.628718376159668,1.4404792785644531,-0.02871387079358101
1761333847209168000,2.11216796875,9.518648147583008,1.4691931009292603,0.02632104977965355
1761333847227868000,2.130867919921875,9.68375301361084,1.4835500717163086,0.09571290761232376
1761333847246568000,2.14956787109375,9.817750930786133,1.4931213855743408,0.11964113265275955
1761333847265268000,2.16826806640625,9.923035621643066,1.5002998113632202,0.12442677468061447
1761333847283968000,2.186968017578125,9.90149974822998,1.4428720474243164,0.035892341285943985
1761333847302668000,2.20566796875,9.882357597351074,1.4620146751403809,-0.031106693670153618
1761333847321368000,2.2243681640625,9.872786521911621,1.423729419708252,0.02153540402650833
1761333847340068000,2.243068115234375,9.836894035339355,1.4213366508483887,0.05742774158716202
1761333847358768000,2.26176806640625,9.810572624206543,1.3591232299804688,0.09571290761232376
1761333847377468400,2.280468505859375,9.863214492797852,1.3710874319076538,0.14356936514377594
1761333847396168400,2.29916845703125,9.772287368774414,1.4165509939193726,0.17228323221206665
1761333847414868500,2.317868408203125,9.602396965026855,1.4141582250595093,0.23688943684101105
1761333847433568500,2.336568603515625,9.688538551330566,1.4021940231323242,0.30628129839897156
1761333847452268500,2.3552685546875,9.817750930786133,1.3423734903335571,0.23688943684101105
1761333847470968600,2.373968505859375,9.817750930786133,1.3878371715545654,0.23210379481315613
1761333847489668600,2.392668701171875,9.879964828491211,1.3806586265563965,0.1459621787071228
1761333847508368600,2.41136865234375,9.91107177734375,1.3639088869094849,0.11964113265275955
1761333847527068700,2.430068603515625,9.872786521911621,1.3782658576965332,0.11246266216039658
1761333847545768700,2.448768798828125,9.81535816192627,1.3591232299804688,0.13878370821475983
1761333847564468700,2.46746875,9.949356079101562,1.3806586265563965,0.0933200865983963
1761333847583168800,2.486168701171875,9.882357597351074,1.3902299404144287,0.1986042857170105
1761333847601869000,2.504869140625,9.772287368774414,1.435693621635437,0.16749759018421173
1761333847620568800,2.52356884765625,9.698110580444336,1.4380863904953003,0.13639089465141296
1761333847639269000,2.54226904296875,9.702896118164062,1.423729419708252,0.1459621787071228
1761333847657969200,2.56096923828125,9.645467758178711,1.4452649354934692,0.16749759018421173
1761333847676669200,2.579669189453125,9.633503913879395,1.4452649354934692,0.11964113265275955
1761333847695369200,2.598369140625,9.698110580444336,1.4931213855743408,0.1986042857170105
1761333847714069200,2.6170693359375,9.78664493560791,1.4979069232940674,0.21296121180057526
1761333847732769300,2.635769287109375,9.853643417358398,1.490728497505188,0.14117653667926788
1761333847751469300,2.65446923828125,9.899106979370117,1.397408366203308,0.14117653667926788
1761333847770169600,2.673169677734375,9.803394317626953,1.3495519161224365,0.21774685382843018
1761333847788870000,2.691869873046875,9.705288887023926,1.3423734903335571,0.2560320198535919
1761333847807570200,2.710570068359375,9.750752449035645,1.3423734903335571,0.17228323221206665
1761333847826270000,2.72927001953125,9.951749801635742,1.3902299404144287,0.10289137065410614
1761333847844970200,2.74797021484375,10.00439167022705,1.397408366203308,-0.038285162299871445
1761333847863670300,2.766670166015625,9.791430473327637,1.4213366508483887,-0.1052841991186142
1761333847882370300,2.785370361328125,9.638289451599121,1.373480200767517,-0.031106693670153618
1761333847901070300,2.8040703125,9.731609344482422,1.3615161180496216,0
1761333847919770400,2.822770263671875,9.915857315063477,1.3591232299804688,0.08853443711996078
1761333847938470400,2.841470458984375,9.91825008392334,1.3543375730514526,0.11964113265275955
1761333847957170400,2.86017041015625,9.860821723937988,1.368694543838501,0.13878370821475983
1761333847975870500,2.878870361328125,9.784252166748047,1.3854442834854126,0.1459621787071228
1761333847994570500,2.897570556640625,9.784252166748047,1.3830515146255493,0.15074782073497772
1761333848013270500,2.9162705078125,9.781859397888184,1.368694543838501,0.11246266216039658
1761333848031970800,2.934970703125,9.753145217895508,1.34476637840271,0.06699903309345245
1761333848050670600,2.953670654296875,9.67657470703125,1.3232308626174927,0.06939185410737991
1761333848069371000,2.972370849609375,9.609575271606445,1.2658032178878784,0.06699903309345245
1761333848088071000,2.99107080078125,9.714859962463379,1.2035897970199585,0.004785645287483931
1761333848106771000,3.00977099609375,9.91107177734375,1.210768222808838,-0.007178467698395252
1761333848125471000,3.028470947265625,10.112068176269531,1.277767300605774,0.03349951654672623
1761333848144171000,3.0471708984375,10.164710998535156,1.3950155973434448,0.1052841991186142
1761333848162871000,3.06587109375,10.066604614257812,1.5002998113632202,0.10049854964017868
1761333848181571000,3.084571044921875,9.944570541381836,1.495514154434204,0.10049854964017868
1761333848200271000,3.10327099609375,9.91107177734375,1.3926228284835815,0.09810572862625122
1761333848218971100,3.12197119140625,9.856036186218262,1.3112667798995972,0.035892341285943985
1761333848237671400,3.14067138671875,9.726823806762695,1.3471591472625732,0.02153540402650833
1761333848256371200,3.15937109375,9.829715728759766,1.3280165195465088,0.059820566326379776
1761333848275071500,3.178071533203125,10.078569412231445,1.3208380937576294,0.08614161610603333
1761333848293771500,3.196771484375,9.956535339355469,1.3208380937576294,0.13160525262355804
1761333848312471600,3.215471435546875,9.638289451599121,1.301695466041565,0.21296121180057526
1761333848331171600,3.234171630859375,9.523433685302734,1.337587833404541,0.20817556977272034
1761333848349871600,3.25287158203125,9.626325607299805,1.423729419708252,0.20578274130821228
1761333848368571600,3.271571533203125,9.650253295898438,1.397408366203308,0.2225325107574463
1761333848387271700,3.290271728515625,9.523433685302734,1.3519448041915894,0.12442677468061447
1761333848405972000,3.308971923828125,9.549755096435547,1.3304094076156616,0.11485548317432404
1761333848424671700,3.327671630859375,9.779465675354004,1.3184453248977661,0.17228323221206665
1761333848443372000,3.3463720703125,9.973284721374512,1.3304094076156616,0.1866401731967926
1761333848462072000,3.365072021484375,9.975677490234375,1.404586911201477,0.1339980661869049
1761333848480772000,3.383772216796875,9.841679573059082,1.4452649354934692,0.1339980661869049
1761333848499472100,3.40247216796875,9.81535816192627,1.4213366508483887,0.12681959569454193
1761333848518172200,3.421172119140625,9.810572624206543,1.3591232299804688,0.1746760457754135
1761333848536872200,3.4398720703125,9.781859397888184,1.3399807214736938,0.20338992774486542
1761333848555572200,3.458572265625,9.853643417358398,1.3591232299804688,0.24885354936122894
1761333848574272300,3.477272216796875,9.803394317626953,1.3639088869094849,0.16031911969184875
1761333848592972300,3.49597216796875,9.767501831054688,1.3567304611206055,0.11964113265275955
1761333848611672600,3.514672607421875,9.834501266479492,1.337587833404541,0.13639089465141296
1761333848630372400,3.533372314453125,9.863214492797852,1.3806586265563965,0.11724831163883209
1761333848649072600,3.55207275390625,9.913464546203613,1.3567304611206055,0.10767702013254166
1761333848667772700,3.570772705078125,9.8871431350708,1.373480200767517,0.11964113265275955
1761333848686472700,3.58947265625,9.736394882202148,1.3471591472625732,0.18424734473228455
1761333848705172700,3.6081728515625,9.686145782470703,1.4189438819885254,0.15074782073497772
1761333848723872800,3.626872802734375,9.820143699645996,1.4261223077774048,0.1698904037475586
1761333848742572800,3.64557275390625,9.958928108215332,1.4428720474243164,0.2584248483181
1761333848761272800,3.66427294921875,9.970891952514648,1.4189438819885254,0.17946170270442963
1761333848779973000,3.68297314453125,10.085747718811035,1.4189438819885254,0.2584248483181
1761333848798673000,3.7016728515625,10.078569412231445,1.3519448041915894,0.33020952343940735
1761333848817373200,3.720373291015625,10.066604614257812,1.3304094076156616,0.22492532432079315
1761333848836073200,3.7390732421875,9.949356079101562,1.2705888748168945,0.2153540402650833
1761333848854773200,3.757773193359375,9.681360244750977,1.1820544004440308,0.24167509377002716
1761333848873473300,3.776473388671875,9.645467758178711,1.2203395366668701,0.3397808074951172
1761333848892173300,3.79517333984375,9.674181938171387,1.2634103298187256,0.3613162338733673
1761333848910873300,3.813873291015625,9.633503913879395,1.3256237506866455,0.30628129839897156
1761333848929573400,3.832573486328125,9.540184020996094,1.5337992906570435,0.2560320198535919
1761333848948273400,3.8512734375,9.499505996704102,1.6247265338897705,0.19142581522464752
1761333848966973400,3.869973388671875,9.592825889587402,1.6007983684539795,0.15553347766399384
1761333848985673700,3.888673828125,9.710074424743652,1.5361921787261963,0.26081767678260803
1761333849004373500,3.90737353515625,9.731609344482422,1.4165509939193726,0.35413774847984314
1761333849023073800,3.92607373046875,9.750752449035645,1.404586911201477,0.32303106784820557
1761333849041773800,3.94477392578125,9.913464546203613,1.4117653369903564,0.34217363595962524
1761333849060473900,3.963473876953125,10.045069694519043,1.3806586265563965,0.4139583110809326
1761333849079174000,3.982173828125,9.975677490234375,1.4069796800613403,0.38285163044929504
1761333849097874000,4.0008740234375,9.77707290649414,1.399801254272461,0.2799602448940277
1761333849116574000,4.019573974609375,9.736394882202148,1.4644074440002441,0.2273181527853012
1761333849135274000,4.03827392578125,9.870393753051758,1.4524433612823486,0.2679961323738098
1761333849153974000,4.05697412109375,9.954142570495605,1.459621787071228,0.22492532432079315
1761333849172674000,4.075674072265625,9.90149974822998,1.430907964706421,0.2225325107574463
1761333849191374300,4.094374267578125,9.891928672790527,1.3902299404144287,0.22013968229293823
1761333849210074400,4.113074462890625,9.9469633102417,1.3567304611206055,0.275174617767334
1761333849228774400,4.1317744140625,9.834501266479492,1.3399807214736938,0.22492532432079315
1761333849247474400,4.150474365234375,9.707681655883789,1.3710874319076538,0.19621145725250244
1761333849266174500,4.169174560546875,9.597611427307129,1.4452649354934692,0.2991028428077698
1761333849284874500,4.18787451171875,9.659825325012207,1.5170495510101318,0.3684946894645691
1761333849303574500,4.206574462890625,9.623932838439941,1.5122638940811157,0.35413774847984314
1761333849322274600,4.225274658203125,9.511469841003418,1.5696916580200195,0.39481574296951294
1761333849340974600,4.243974609375,9.422935485839844,1.5601203441619873,0.44027936458587646
1761333849359675000,4.2626748046875,9.518648147583008,1.4380863904953003,0.44027936458587646
1761333849378375000,4.281375,9.68375301361084,1.3806586265563965,0.3924229145050049
1761333849397075000,4.300074951171875,9.779465675354004,1.3184453248977661,0.363709032535553
1761333849415775000,4.31877490234375,9.915857315063477,1.332802176475525,0.349352091550827
1761333849434475000,4.33747509765625,10.14317512512207,1.404586911201477,0.5024927258491516
1761333849453175000,4.356175048828125,10.159924507141113,1.5170495510101318,0.5168496966362
1761333849471875000,4.374875,10.112068176269531,1.5720844268798828,0.5072783827781677
1761333849490575000,4.3935751953125,9.973284721374512,1.5696916580200195,0.33738797903060913
1761333849509275400,4.412275390625,9.820143699645996,1.6462619304656982,0.1746760457754135
1761333849527975200,4.43097509765625,9.736394882202148,1.6869399547576904,0.1052841991186142
1761333849546675500,4.449675537109375,9.659825325012207,1.730010747909546,0.19142581522464752
1761333849565375500,4.46837548828125,9.879964828491211,1.679761528968811,0.13878370821475983
1761333849584075500,4.487075439453125,9.836894035339355,1.710868239402771,0.07657032459974289
1761333849602775600,4.505775634765625,9.559326171875,1.7563318014144897,0.1459621787071228
1761333849621475600,4.5244755859375,9.523433685302734,1.674975872039795,0.34217363595962524
1761333849640175600,4.543175537109375,9.652647018432617,1.4452649354934692,0.5575276613235474
1761333849658875600,4.561875732421875,9.53061294555664,1.2323036193847656,0.35413774847984314
1761333849677575700,4.58057568359375,9.248259544372559,1.25144624710083,0.11006984114646912
1761333849696276000,4.59927587890625,9.279366493225098,1.3040883541107178,0.1579262912273407
1761333849714976000,4.61797607421875,10.02592658996582,1.2538390159606934,0.1459621787071228
1761333849733676000,4.636676025390625,10.39202880859375,1.1940184831619263,0.11724831163883209
1761333849752376000,4.6553759765625,10.17428207397461,1.3615161180496216,0.11724831163883209
1761333849771076000,4.674076171875,9.844072341918945,1.5074782371520996,0.3900300860404968
1761333849789776100,4.692776123046875,9.89432144165039,1.4763715267181396,0.35413774847984314
1761333849808476200,4.71147607421875,9.91107177734375,1.368694543838501,0.3924229145050049
1761333849827176400,4.730176513671875,9.89432144165039,1.3615161180496216,0.4211367964744568
1761333849845876200,4.748876220703125,9.80100154876709,1.3591232299804688,0.2991028428077698
1761333849864576500,4.767576416015625,9.889535903930664,1.428515076637268,0.17706887423992157
1761333849883276500,4.786276611328125,9.726823806762695,1.3543375730514526,0.275174617767334
1761333849901976600,4.8049765625,9.372686386108398,1.4644074440002441,0.2632105052471161
1761333849920676600,4.823676513671875,9.442078590393066,1.4811571836471558,0.39481574296951294
1761333849939376600,4.842376708984375,9.970891952514648,1.3208380937576294,0.363709032535553
1761333849958076700,4.86107666015625,10.009177207946777,1.2179467678070068,0.4498506486415863
1761333849976777000,4.87977685546875,9.781859397888184,1.3160524368286133,0.5120640397071838
1761333849995476700,4.898476806640625,9.674181938171387,1.332802176475525,0.40677985548973083
1761333850014177000,4.917177001953125,9.523433685302734,1.2873386144638062,0.32542386651039124
1761333850032877000,4.935876953125,9.686145782470703,1.2394821643829346,0.28953152894973755
1761333850051577000,4.9545771484375,9.865608215332031,1.2131611108779907,0.24646073579788208
1761333850070277000,4.973277099609375,9.820143699645996,1.3591232299804688,0.275174617767334
1761333850088977200,4.99197705078125,9.982855796813965,1.4380863904953003,0.30628129839897156
1761333850107677200,5.01067724609375,10.171889305114746,1.521835207939148,0.39481574296951294
1761333850126377200,5.029377197265625,10.418350219726562,1.5912270545959473,0.4211367964744568
1761333850145077200,5.0480771484375,10.425528526306152,1.5625132322311401,0.5718846321105957
1761333850163777500,5.066777587890625,10.296316146850586,1.6414763927459717,0.8159525394439697
1761333850182477600,5.0854775390625,9.903892517089844,1.6175481081008911,0.5216353535652161
1761333850201177600,5.104177490234375,9.903892517089844,1.3591232299804688,0.5359922647476196
1761333850219877600,5.122877685546875,9.91107177734375,1.466800332069397,0.6269195079803467
1761333850238577700,5.14157763671875,10.009177207946777,1.526620864868164,0.5527420043945312
1761333850257277700,5.160277587890625,9.982855796813965,1.5314065217971802,0.4713860750198364
1761333850275977700,5.178977783203125,10.133604049682617,1.306481122970581,0.05503492057323456
1761333850294678000,5.197677978515625,9.745966911315918,1.6271194219589233,0.6891329288482666
1761333850313378000,5.2163779296875,9.439684867858887,1.5960127115249634,0.519242525100708
1761333850332078000,5.235078125,9.291330337524414,1.5984054803848267,0.48813581466674805
1761333850350778000,5.253778076171875,9.250652313232422,1.7252250909805298,0.43549370765686035
1761333850369478100,5.27247802734375,9.174081802368164,1.6390835046768188,0.33738797903060913
1761333850388178200,5.29117822265625,9.198010444641113,1.6701902151107788,0.2560320198535919
1761333850416228400,5.319228271484375,9.415757179260254,1.797009825706482,0.46899324655532837
1761333850434928400,5.337928466796875,9.408578872680664,1.8233308792114258,0.4139583110809326
1761333850453628400,5.35662841796875,9.442078590393066,1.8089739084243774,0.363709032535553
1761333850472328400,5.375328369140625,9.561718940734863,1.7228323221206665,0.45224347710609436
1761333850491028700,5.39402880859375,9.982855796813965,1.6845471858978271,0.4905286431312561
1761333850509728500,5.412728515625,10.415956497192383,1.7012969255447388,0.6843472719192505
1761333850528428800,5.4314287109375,10.356136322021484,1.6941183805465698,0.7154539823532104
1761333850547128800,5.45012890625,10.061819076538086,1.8041882514953613,0.641276478767395
1761333850565828900,5.468828857421875,9.760323524475098,1.8113667964935303,0.42831525206565857
1761333850584529000,5.48752880859375,9.454042434692383,1.8735800981521606,0.21774685382843018
1761333850603229000,5.50622900390625,9.260223388671875,1.9214365482330322,0.05503492057323456
1761333850621929000,5.524928955078125,9.200403213500977,1.9692929983139038,0.014356935396790504
1761333850640629200,5.543629150390625,9.54496955871582,1.9980069398880005,0
1761333850659329000,5.5623291015625,9.91825008392334,1.9214365482330322,0.1746760457754135
1761333850678029300,5.581029296875,9.987641334533691,1.8999011516571045,0.2919243574142456
1761333850696729300,5.599729248046875,9.927821159362793,1.9334007501602173,0.3613162338733673
1761333850715429400,5.618429443359375,9.997213363647461,1.947757601737976,0.5024927258491516
1761333850734129400,5.63712939453125,9.930213928222656,1.9812572002410889,0.4378865361213684
1761333850752829400,5.655829345703125,9.66221809387207,2.0027925968170166,0.1986042857170105
1761333850771529500,5.674529541015625,9.671789169311523,1.923829436302185,0.09092725813388824
1761333850790229800,5.693229736328125,9.650253295898438,1.9046868085861206,0.11246266216039658
1761333850808929800,5.7119296875,9.408578872680664,2.0578274726867676,0.02632104977965355
1761333850827629800,5.7306298828125,9.317651748657227,2.218146562576294,0.07417750358581543
1761333850846329900,5.749329833984375,9.425328254699707,2.2636101245880127,0.02392822690308094
1761333850865030000,5.76802978515625,9.748359680175781,2.249253273010254,-0.22971096634864807
1761333850883730000,5.78672998046875,9.827322959899902,2.2468605041503906,-0.2153540402650833
1761333850902430000,5.805429931640625,9.875179290771484,2.1846470832824707,-0.26081767678260803
1761333850921130200,5.824130126953125,9.930213928222656,2.1272194385528564,-0.29431718587875366
1761333850939830300,5.842830322265625,9.875179290771484,1.94297194480896,-0.22492532432079315
1761333850958530300,5.8615302734375,9.621540069580078,1.8687944412231445,-0.12203395366668701
1761333850977230300,5.880230224609375,9.533005714416504,1.7826528549194336,-0.11964113265275955
1761333850995930400,5.898930419921875,9.549755096435547,1.765903115272522,-0.19381862878799438
1761333851014630400,5.91763037109375,9.57607650756836,1.8065811395645142,-0.39481574296951294
1761333851033330700,5.93633056640625,9.609575271606445,1.698904037475586,-0.43549370765686035
1761333851052030700,5.95503076171875,9.781859397888184,1.730010747909546,-0.39960137009620667
1761333851070730800,5.973730712890625,9.93260669708252,1.7156537771224976,-0.3038884699344635
1761333851089430800,5.9924306640625,9.789037704467773,1.7778671979904175,-0.3278166949748993
1761333851108130800,6.011130859375,9.712467193603516,1.832902193069458,-0.22013968229293823
1761333851126830800,6.029830810546875,9.707681655883789,1.8161523342132568,-0.031106693670153618
1761333851145531100,6.04853125,9.772287368774414,1.8424733877182007,0.19621145725250244
1761333851164231000,6.06723095703125,9.760323524475098,1.8424733877182007,0.3397808074951172
1761333851182931200,6.08593115234375,9.719645500183105,1.852044701576233,0.24167509377002716
1761333851201631200,6.10463134765625,9.80817985534668,1.765903115272522,0.17228323221206665
1761333851220331300,6.123331298828125,9.958928108215332,1.6845471858978271,0.3038884699344635
1761333851239031300,6.14203125,9.91825008392334,1.679761528968811,0.5958128571510315
1761333851257731300,6.1607314453125,9.731609344482422,1.7060825824737549,0.7441678643226624
1761333851276431400,6.179431396484375,9.554540634155273,1.6965112686157227,0.7968099117279053
1761333851295131600,6.198131591796875,9.389435768127441,1.6654045581817627,0.8350951075553894
1761333851313831700,6.216831787109375,9.229117393493652,1.6534404754638672,0.7752745151519775
1761333851332531700,6.23553173828125,9.190832138061523,1.679761528968811,0.6819544434547424
1761333851351231700,6.254231689453125,9.315258979797363,1.6342978477478027,0.7896314859390259
1761333851369931800,6.272931884765625,9.518648147583008,1.5960127115249634,0.7489534616470337
1761333851388631800,6.2916318359375,9.616754531860352,1.6175481081008911,0.6939185857772827
1761333851407331800,6.310331787109375,9.549755096435547,1.6510475873947144,0.6436693072319031
1761333851426032000,6.3290322265625,9.4660062789917,1.7515461444854736,0.5694918036460876
1761333851444732200,6.347732177734375,9.54496955871582,1.9334007501602173,0.5575276613235474
1761333851463432200,6.36643212890625,9.707681655883789,2.0027925968170166,0.46899324655532837
1761333851482132200,6.38513232421875,9.994820594787598,2.1367905139923096,0.5144568681716919
1761333851500832300,6.403832275390625,10.320243835449219,2.313859462738037,0.8111668825149536
1761333851519532300,6.4225322265625,10.566704750061035,2.390429735183716,1.124626636505127
1761333851538232600,6.441232666015625,10.447063446044922,2.2372891902923584,1.007378339767456
1761333851556932600,6.4599326171875,10.179067611694336,2.012363910675049,0.6197410821914673
1761333851575632600,6.478632568359375,10.15753173828125,1.7850457429885864,0.397208571434021
1761333851594332700,6.497332763671875,10.030712127685547,1.5290136337280273,0.35413774847984314
1761333851613032700,6.51603271484375,9.741181373596191,1.4189438819885254,0.28235307335853577
1761333851631732700,6.534732666015625,9.45164966583252,1.332802176475525,0.09810572862625122
1761333851650432800,6.553432861328125,9.360722541809082,1.2586246728897095,-0.02632104977965355
1761333851669133000,6.572133056640625,9.372686386108398,1.306481122970581,-0.14117653667926788
1761333851687833000,6.5908330078125,9.497113227844238,1.4524433612823486,-0.014356935396790504
1761333851706533000,6.609533203125,9.78664493560791,1.5409778356552124,0.3517449200153351
1761333851725233200,6.628233154296875,9.856036186218262,1.6366907358169556,0.5742774605751038
1761333851743933200,6.64693310546875,9.78664493560791,1.7467604875564575,0.4737788736820221
1761333851762633200,6.66563330078125,9.724431037902832,1.698904037475586,0.38763725757598877
1761333851781333500,6.68433349609375,9.722038269042969,1.703689694404602,0.42352959513664246
1761333851800033500,6.703033447265625,9.714859962463379,1.7180466651916504,0.46420758962631226
1761333851818733600,6.721733642578125,9.827322959899902,1.6869399547576904,0.5000999569892883
1761333851837433600,6.74043359375,9.80100154876709,1.495514154434204,0.5910272002220154
1761333851856133600,6.759133544921875,9.561718940734863,1.4428720474243164,0.44745782017707825
1761333851874833700,6.777833740234375,9.44447135925293,1.4931213855743408,0.28235307335853577
1761333851893534000,6.796533935546875,9.511469841003418,1.552941918373108,0.25363919138908386
1761333851912234000,6.81523388671875,9.547362327575684,1.5744773149490356,0.26081767678260803
1761333851930934000,6.83393408203125,9.497113227844238,1.6534404754638672,0.14356936514377594
1761333851949634000,6.852634033203125,9.501898765563965,1.6606189012527466,0.02632104977965355
1761333851968334000,6.871333984375,9.482755661010742,1.581655740737915,-0.02632104977965355
1761333851987034400,6.890034423828125,9.511469841003418,1.6821542978286743,-0.07657032459974289
1761333852005734100,6.908734130859375,9.659825325012207,1.765903115272522,-0.1339980661869049
1761333852024434400,6.927434326171875,9.779465675354004,1.7252250909805298,-0.16749759018421173
1761333852043134500,6.946134521484375,9.93978500366211,1.7515461444854736,-0.1746760457754135
1761333852061834500,6.96483447265625,10.068997383117676,1.852044701576233,-0.13878370821475983
1761333852080534500,6.983534423828125,10.068997383117676,1.9094724655151367,-0.23449662327766418
1761333852099234600,7.002234619140625,10.085747718811035,1.8352949619293213,-0.24406790733337402
1761333852117934800,7.020934814453125,10.238887786865234,1.789831280708313,-0.1746760457754135
1761333852136635000,7.039634765625,10.332208633422852,1.7084753513336182,-0.059820566326379776
1761333852155335000,7.0583349609375,10.303494453430176,1.672582983970642,0.031106693670153618
1761333852174035000,7.077034912109375,10.17428207397461,1.643869161605835,0.0526420995593071
1761333852192735000,7.09573486328125,10.01156997680664,1.6223337650299072,0.02392822690308094
1761333852211435000,7.11443505859375,9.76989459991455,1.5649060010910034,-0.004785645287483931
1761333852230135300,7.13313525390625,9.56650447845459,1.5625132322311401,-0.11485548317432404
1761333852248835300,7.15183544921875,9.518648147583008,1.5960127115249634,-0.20578274130821228
1761333852267535400,7.170535400390625,9.439684867858887,1.6917256116867065,-0.28953152894973755
1761333852286235400,7.1892353515625,9.415757179260254,1.7276179790496826,-0.28953152894973755
1761333852304935400,7.207935302734375,9.468399047851562,1.7443677186965942,-0.18424734473228455
1761333852323635500,7.226635498046875,9.602396965026855,1.765903115272522,-0.13878370821475983
1761333852342335500,7.24533544921875,9.681360244750977,1.7778671979904175,-0.17228323221206665
1761333852361035800,7.264035888671875,9.7938232421875,1.7467604875564575,-0.08614161610603333
1761333852379735800,7.28273583984375,9.896714210510254,1.6917256116867065,-0.05503492057323456
1761333852398435800,7.301435791015625,9.930213928222656,1.6869399547576904,-0.014356935396790504
1761333852417135900,7.320135986328125,9.903892517089844,1.6558332443237305,0.11724831163883209
1761333852435836000,7.3388359375,9.748359680175781,1.6175481081008911,0.16031911969184875
1761333852454536200,7.3575361328125,9.56650447845459,1.5409778356552124,0.1052841991186142
1761333852473236200,7.376236328125,9.485149383544922,1.5385849475860596,0.040677983313798904
1761333852491936300,7.394936279296875,9.432506561279297,1.6366907358169556,0.13639089465141296
1761333852510636300,7.41363623046875,9.343972206115723,1.672582983970642,0.2512463629245758
1761333852529336300,7.43233642578125,9.473184585571289,1.6893328428268433,0.31824541091918945
1761333852548036400,7.451036376953125,9.748359680175781,1.6031911373138428,0.4378865361213684
1761333852566736600,7.469736572265625,9.915857315063477,1.6414763927459717,0.40677985548973083
1761333852585436700,7.488436767578125,9.999606132507324,1.7084753513336182,0.45224347710609436
1761333852604136700,7.50713671875,9.958928108215332,1.7826528549194336,0.4737788736820221
1761333852622836700,7.525836669921875,9.865608215332031,1.8496519327163696,0.4546363055706024
1761333852641536800,7.544536865234375,9.827322959899902,1.9142581224441528,0.38763725757598877
1761333852660237000,7.563237060546875,9.973284721374512,1.9262222051620483,0.34217363595962524
1761333852678936800,7.581936767578125,10.088140487670898,1.947757601737976,0.3517449200153351
1761333852697637000,7.60063720703125,9.963713645935059,2.021935224533081,0.3684946894645691
1761333852716337200,7.619337158203125,9.781859397888184,1.9716858863830566,0.26081767678260803
1761333852735037200,7.638037109375,9.68375301361084,1.8448662757873535,0.06939185410737991
1761333852753737200,7.6567373046875,9.755537986755371,1.7228323221206665,0.02632104977965355
1761333852772437200,7.675437255859375,9.781859397888184,1.6271194219589233,0.064606212079525
1761333852791137500,7.694137451171875,9.674181938171387,1.5481562614440918,0.08374879509210587
1761333852809837600,7.712837646484375,9.56889820098877,1.576870083808899,0.09092725813388824
1761333852828537600,7.73153759765625,9.56889820098877,1.6510475873947144,0.12442677468061447
1761333852847237600,7.750237548828125,9.650253295898438,1.7515461444854736,0.22492532432079315
1761333852865937700,7.768937744140625,9.798608779907227,1.8233308792114258,0.3086741268634796
1761333852884637700,7.7876376953125,9.810572624206543,1.8089739084243774,0.28235307335853577
1761333852903338000,7.806337890625,9.734002113342285,1.8472590446472168,0.2871387302875519
1761333852922038000,7.8250380859375,9.717252731323242,1.8544375896453857,0.29431718587875366
1761333852940738000,7.843738037109375,9.834501266479492,1.8089739084243774,0.33738797903060913
1761333852959438000,7.86243798828125,9.839286804199219,1.7826528549194336,0.3613162338733673
1761333852978138000,7.88113818359375,9.7005033493042,1.8185452222824097,0.33738797903060913
1761333852996838400,7.89983837890625,9.549755096435547,1.8400806188583374,0.363709032535553
1761333853015538400,7.918538330078125,9.497113227844238,1.828116536140442,0.3397808074951172
1761333853034238500,7.937238525390625,9.609575271606445,1.770688772201538,0.2632105052471161
1761333853052938500,7.9559384765625,9.844072341918945,1.7563318014144897,0.35413774847984314
1761333853071638500,7.974638427734375,9.906285285949707,1.7467604875564575,0.3326023519039154
1761333853090338600,7.993338623046875,9.693324089050293,1.7994025945663452,0.2991028428077698
1761333853109038800,8.012038818359375,9.41336441040039,1.8305093050003052,0.16749759018421173
1761333853127739000,8.03073876953125,9.461220741271973,1.8305093050003052,0.20099709928035736
1761333853146439000,8.04943896484375,9.688538551330566,1.797009825706482,0.2632105052471161
1761333853165139000,8.068138916015625,9.78664493560791,1.7922241687774658,0.2512463629245758
1761333853183839000,8.0868388671875,9.760323524475098,1.7611174583435059,0.11246266216039658
1761333853202539300,8.105539306640624,9.755537986755371,1.7994025945663452,0.02632104977965355
1761333853221239300,8.1242392578125,9.8871431350708,1.9022940397262573,-0.031106693670153618
1761333853239939300,8.142939208984375,9.913464546203613,2.076970100402832,0.035892341285943985
1761333853258639400,8.161639404296874,9.827322959899902,2.2396819591522217,0.18424734473228455
1761333853277339400,8.18033935546875,9.767501831054688,2.289931297302246,0.2560320198535919
1761333853296039700,8.199039794921875,9.80817985534668,2.2205393314361572,0.27038896083831787
1761333853314739500,8.217739501953124,9.827322959899902,2.0889341831207275,0.23449662327766418
1761333853333439700,8.236439697265626,9.789037704467773,1.94297194480896,0.05742774158716202
1761333853352139800,8.255139892578125,9.67657470703125,1.8185452222824097,-0.03349951654672623
1761333853370839800,8.27383984375,9.614361763000488,1.7324036359786987,-0.12681959569454193
1761333853389539800,8.292539794921876,9.667003631591797,1.7491533756256104,-0.11006984114646912
1761333853408239900,8.311239990234375,9.681360244750977,1.794616937637329,-0.10049854964017868
1761333853426940200,8.329940185546874,9.56650447845459,1.8735800981521606,-0.0933200865983963
1761333853445640200,8.34864013671875,9.461220741271973,1.9070796966552734,-0.15553347766399384
1761333853464340200,8.36734033203125,9.561718940734863,1.9214365482330322,-0.1986042857170105
1761333853483040300,8.386040283203124,9.65503978729248,1.9669002294540405,-0.062213387340307236
1761333853501740300,8.404740234375,9.623932838439941,2.038684844970703,0.05024927482008934
1761333853529790500,8.43279052734375,9.69093132019043,2.0195422172546387,0.05503492057323456
1761333853548490500,8.451490478515625,9.865608215332031,1.9669002294540405,0.13639089465141296
1761333853567190800,8.470190673828125,9.923035621643066,1.9453648328781128,0.2632105052471161
1761333853585890800,8.488890869140626,9.719645500183105,1.9645073413848877,0.3038884699344635
1761333853604590800,8.5075908203125,9.456435203552246,1.9669002294540405,0.30149564146995544
1761333853623291000,8.526290771484375,9.418149948120117,2.0099709033966064,0.21774685382843018
1761333853641991000,8.544990966796876,9.621540069580078,1.9645073413848877,0.24167509377002716
1761333853660691000,8.56369091796875,9.822537422180176,1.8735800981521606,0.27756741642951965
1761333853679391200,8.58239111328125,9.848857879638672,1.825723648071289,0.2273181527853012
1761333853698091300,8.60109130859375,9.702896118164062,1.8305093050003052,0.20817556977272034
1761333853716791300,8.619791259765625,9.540184020996094,1.7443677186965942,0.15314064919948578
1761333853735491300,8.6384912109375,9.485149383544922,1.7563318014144897,0.16749759018421173
1761333853754191400,8.65719140625,9.638289451599121,1.710868239402771,0.20099709928035736
1761333853772891600,8.6758916015625,9.810572624206543,1.7180466651916504,0.2847459018230438
1761333853791591400,8.69459130859375,9.848857879638672,1.7419748306274414,0.3206382393836975
1761333853810291700,8.713291748046874,9.827322959899902,1.7994025945663452,0.44027936458587646
1761333853828991700,8.73199169921875,9.734002113342285,1.8664016723632812,0.4211367964744568
1761333853847691800,8.75069189453125,9.667003631591797,1.8807586431503296,0.4043870270252228
1761333853866392000,8.76939208984375,9.650253295898438,1.9573289155960083,0.45942193269729614
1761333853885091800,8.788091796875,9.7005033493042,2.014756679534912,0.5407779216766357
1761333853903792000,8.806792236328125,9.784252166748047,2.045863389968872,0.5359922647476196
1761333853922492200,8.8254921875,9.820143699645996,2.0817556381225586,0.4378865361213684
1761333853941192200,8.844192138671875,9.817750930786133,2.2301106452941895,0.275174617767334
1761333853959892500,8.862892578125,9.80100154876709,2.3090739250183105,0.24646073579788208
1761333853978592300,8.88159228515625,10.03549861907959,2.2707886695861816,0.35892340540885925
1761333853997292500,8.90029248046875,10.293923377990723,2.021935224533081,0.3924229145050049
1761333854015992600,8.91899267578125,10.229316711425781,1.828116536140442,0.21774685382843018
1761333854034692600,8.937692626953124,9.719645500183105,1.672582983970642,0.05503492057323456
1761333854053392600,8.956392578125,9.31047248840332,1.576870083808899,-0.08614161610603333
1761333854072092700,8.9750927734375,9.176474571228027,1.5050854682922363,-0.2273181527853012
1761333854090793000,8.99379296875,9.29611587524414,1.526620864868164,-0.16749759018421173
1761333854109493000,9.012492919921876,9.410971641540527,1.6510475873947144,-0.11246266216039658
1761333854128193000,9.031193115234375,9.535398483276367,1.832902193069458,-0.016749758273363113
1761333854146893000,9.04989306640625,9.667003631591797,1.9262222051620483,0.14356936514377594
1761333854165593000,9.068593017578126,9.803394317626953,2.0003998279571533,0.3565305769443512
1761333854184293400,9.08729345703125,9.949356079101562,2.0506489276885986,0.49292147159576416
1761333854202993400,9.105993408203124,10.133604049682617,2.03629207611084,0.5551348328590393
1761333854221693400,9.124693359375,10.17428207397461,1.9597218036651611,0.605384111404419
1761333854240393500,9.1433935546875,9.937392234802246,1.9573289155960083,0.5216353535652161
1761333854259093500,9.162093505859374,9.647860527038574,1.9357935190200806,0.4019941985607147
1761333854277793800,9.180793701171876,9.454042434692383,1.9525432586669922,0.3206382393836975
1761333854296493800,9.199493896484375,9.494720458984375,1.9022940397262573,0.34695929288864136
1761333854315193900,9.21819384765625,9.559326171875,1.8999011516571045,0.34217363595962524
1761333854333894000,9.236893798828126,9.535398483276367,1.852044701576233,0.2871387302875519
1761333854352594000,9.255593994140625,9.597611427307129,1.8951154947280884,0.23449662327766418
1761333854371294000,9.2742939453125,9.657432556152344,1.8903298377990723,0.33020952343940735
1761333854389994200,9.292994140625,9.626325607299805,1.9525432586669922,0.3086741268634796
1761333854408694300,9.3116943359375,9.664610862731934,1.9669002294540405,0.26560330390930176
1761333854427394300,9.330394287109375,9.688538551330566,1.9405791759490967,0.25363919138908386
1761333854446094300,9.34909423828125,9.640682220458984,1.9094724655151367,0.2799602448940277
1761333854464794400,9.36779443359375,9.7005033493042,1.8305093050003052,0.23449662327766418
1761333854483494700,9.38649462890625,9.774680137634277,1.7419748306274414,0.1818545162677765
1761333854502194700,9.405194580078126,9.796216011047363,1.6917256116867065,0.09571290761232376
1761333854520894700,9.423894775390625,9.729216575622559,1.7371892929077148,0.009571290574967861
1761333854539594800,9.4425947265625,9.726823806762695,1.8735800981521606,-0.004785645287483931
1761333854558294800,9.461294677734376,9.81535816192627,2.0578274726867676,0.10767702013254166
1761333854576995000,9.4799951171875,9.858428955078125,2.1583259105682373,0.26081767678260803
1761333854595695000,9.498695068359375,9.734002113342285,2.2612173557281494,0.23449662327766418
1761333854614395100,9.51739501953125,9.631111145019531,2.227717876434326,0.07178468257188797
1761333854633095200,9.53609521484375,9.66221809387207,1.978864312171936,0.0023928226437419653
1761333854651795200,9.554795166015625,9.80100154876709,1.6558332443237305,-0.035892341285943985
1761333854670495500,9.57349560546875,9.844072341918945,1.4811571836471558,-0.11246266216039658
1761333854689195500,9.592195556640625,9.635896682739258,1.5481562614440918,-0.09571290761232376
1761333854707895600,9.6108955078125,9.339186668395996,1.765903115272522,-0.04785645380616188
1761333854726595600,9.629595703125,9.238688468933105,1.892722725868225,-0.035892341285943985
1761333854745295600,9.648295654296875,9.501898765563965,2.00518536567688,0.04307080805301666
1761333854763996000,9.666995849609375,9.839286804199219,2.0267207622528076,0.21774685382843018
1761333854782695700,9.68569580078125,10.00439167022705,2.1128623485565186,0.33020952343940735
1761333854801396000,9.70439599609375,10.045069694519043,2.053041934967041,0.3326023519039154
1761333854820096000,9.723095947265625,9.966106414794922,2.053041934967041,0.3397808074951172
1761333854838796000,9.741796142578124,9.978070259094238,2.0338993072509766,0.46420758962631226
1761333854857496300,9.760496337890626,10.013962745666504,1.9573289155960083,0.48095735907554626
1761333854876196000,9.779196044921875,9.841679573059082,1.8831514120101929,0.3924229145050049
1761333854894896400,9.797896484375,9.702896118164062,1.820937991142273,0.3397808074951172
1761333854913596400,9.816596435546876,9.56889820098877,1.794616937637329,0.33499518036842346
1761333854932296400,9.83529638671875,9.633503913879395,1.8975083827972412,0.31106695532798767
1761333854950996500,9.85399658203125,9.274580955505371,1.6319050788879395,0.31345975399017334
1761333854969696500,9.872696533203126,9.047262191772461,1.8711873292922974,-0.29431718587875366
1761333854988396800,9.891396728515625,9.09272575378418,1.7922241687774658,-0.34217363595962524
1761333855007096800,9.910096923828124,9.571290969848633,1.7635103464126587,0.27038896083831787
1761333855025796900,9.928796875,10.418350219726562,1.8640087842941284,0.4977070987224579
1761333855044497000,9.947496826171875,10.74855899810791,1.9357935190200806,0.5216353535652161
1761333855063197000,9.966197021484374,10.521241188049316,1.919043779373169,0.3206382393836975
