time,seconds_elapsed,z,y,x
1761315635089154300,0.063154296875,-0.7585601806640625,-0.70037841796875,0.2820281982421875
1761315635099201500,0.073201416015625,-0.7546539306640625,-0.67816162109375,0.2874603271484375
1761315635109249300,0.083249267578125,-0.7289581298828125,-0.6494903564453125,0.2741241455078125
1761315635119296300,0.093296142578125,-0.7173309326171875,-0.629150390625,0.2461395263671875
1761315635129343200,0.10334326171875,-0.7303009033203125,-0.6127166748046875,0.2254791259765625
1761315635139391500,0.1133916015625,-0.7530364990234375,-0.584564208984375,0.2110748291015625
1761315635149438500,0.1234384765625,-0.78289794921875,-0.5558013916015625,0.20916748046875
1761315635159486200,0.133486328125,-0.812286376953125,-0.53607177734375,0.2218780517578125
1761315635169533200,0.143533203125,-0.847320556640625,-0.5256195068359375,0.234649658203125
1761315635179581400,0.15358154296875,-0.844940185546875,-0.5293121337890625,0.239990234375
1761315635189628400,0.16362841796875,-0.813568115234375,-0.534271240234375,0.2376708984375
1761315635199675400,0.17367529296875,-0.81494140625,-0.5424652099609375,0.2185211181640625
1761315635209723400,0.183723388671875,-0.861175537109375,-0.536895751953125,0.162750244140625
1761315635219770400,0.193770263671875,-0.835601806640625,-0.4375,0.1912841796875
1761315635229818400,0.203818359375,-0.8245391845703125,-0.3639984130859375,0.16131591796875
1761315635239865300,0.213865234375,-0.73052978515625,-0.4549407958984375,0.16351318359375
1761315635249913300,0.223913330078125,-0.7048797607421875,-0.5218963623046875,0.139678955078125
1761315635259960300,0.233960205078125,-0.7268218994140625,-0.5505218505859375,0.1038818359375
1761315635270008300,0.24400830078125,-0.6995849609375,-0.5659332275390625,0.044097900390625
1761315635280055300,0.25405517578125,-0.739532470703125,-0.57708740234375,-0.0637664794921875
1761315635290102300,0.264102294921875,-0.738311767578125,-0.5081939697265625,-0.11224365234375
1761315635300150300,0.274150390625,-0.7489776611328125,-0.460113525390625,-0.12249755859375
1761315635310197200,0.284197265625,-0.7537994384765625,-0.444915771484375,-0.1104888916015625
1761315635320245200,0.294245361328125,-0.7744293212890625,-0.43731689453125,-0.10870361328125
1761315635330292500,0.30429248046875,-0.790679931640625,-0.41668701171875,-0.1294708251953125
1761315635340340500,0.314340576171875,-0.7883453369140625,-0.4175872802734375,-0.1378326416015625
1761315635350387500,0.324387451171875,-0.79998779296875,-0.4409027099609375,-0.1369171142578125
1761315635360435200,0.334435302734375,-0.8096923828125,-0.4635772705078125,-0.1469573974609375
1761315635370482400,0.344482421875,-0.8274078369140625,-0.4722442626953125,-0.167816162109375
1761315635380529400,0.354529296875,-0.839691162109375,-0.448883056640625,-0.205352783203125
1761315635390577400,0.364577392578125,-0.811553955078125,-0.39276123046875,-0.2429656982421875
1761315635400624400,0.374624267578125,-0.7890625,-0.3480224609375,-0.2532196044921875
1761315635410672400,0.38467236328125,-0.8690643310546875,-0.35394287109375,-0.2107086181640625
1761315635420719400,0.39471923828125,-0.9715728759765625,-0.3848114013671875,-0.1495208740234375
1761315635430767400,0.404767333984375,-0.9918975830078125,-0.4333038330078125,-0.08917236328125
1761315635440814300,0.414814453125,-1.019927978515625,-0.480072021484375,-0.0473175048828125
1761315635450861600,0.424861572265625,-1.0559234619140625,-0.5565948486328125,-0.0574798583984375
1761315635460909300,0.434909423828125,-1.100189208984375,-0.6754608154296875,-0.10302734375
1761315635470956300,0.444956298828125,-1.1336669921875,-0.7530517578125,-0.15789794921875
1761315635481004300,0.45500439453125,-1.1099700927734375,-0.7714080810546875,-0.202880859375
1761315635491051500,0.465051513671875,-1.12786865234375,-0.7809295654296875,-0.2049407958984375
1761315635501099300,0.475099365234375,-1.1269989013671875,-0.8001556396484375,-0.192901611328125
1761315635511146200,0.485146240234375,-1.0980224609375,-0.825042724609375,-0.191497802734375
1761315635521194500,0.495194580078125,-1.084197998046875,-0.84429931640625,-0.193450927734375
1761315635531241500,0.505241455078125,-1.0764617919921875,-0.8525543212890625,-0.203155517578125
1761315635541288400,0.515288330078125,-1.0623779296875,-0.85211181640625,-0.2057647705078125
1761315635551336200,0.525336181640625,-1.0114288330078125,-0.820953369140625,-0.214385986328125
1761315635561383200,0.535383056640625,-0.9326934814453125,-0.7623748779296875,-0.265289306640625
1761315635571431400,0.545431396484375,-0.8352813720703125,-0.698577880859375,-0.2993621826171875
1761315635581478400,0.555478515625,-0.7138214111328125,-0.6302032470703125,-0.27813720703125
1761315635591526100,0.565526123046875,-0.6909637451171875,-0.591217041015625,-0.23486328125
1761315635601573400,0.575573486328125,-0.719573974609375,-0.5733489990234375,-0.1828765869140625
1761315635611621400,0.585621337890625,-0.7069244384765625,-0.5508270263671875,-0.14385986328125
1761315635621668400,0.59566845703125,-0.647064208984375,-0.50909423828125,-0.11016845703125
1761315635631715300,0.60571533203125,-0.5944061279296875,-0.4727630615234375,-0.071685791015625
1761315635641763300,0.615763427734375,-0.529144287109375,-0.435516357421875,-0.02642822265625
1761315635651810300,0.625810302734375,-0.5067596435546875,-0.3964996337890625,-0.0425567626953125
1761315635661858300,0.6358583984375,-0.54449462890625,-0.405517578125,-0.013275146484375
1761315635671905300,0.6459052734375,-0.5530853271484375,-0.4113922119140625,0.044525146484375
1761315635681953500,0.65595361328125,-0.5992889404296875,-0.4520416259765625,0.053497314453125
1761315635692000500,0.66600048828125,-0.6999359130859375,-0.4871673583984375,0.0463104248046875
1761315635702047500,0.676047607421875,-0.788055419921875,-0.470794677734375,0.0541839599609375
1761315635712095500,0.686095458984375,-0.7441253662109375,-0.459228515625,0.07684326171875
1761315635722142700,0.696142822265625,-0.688232421875,-0.4802398681640625,0.1178741455078125
1761315635732190700,0.706190673828125,-0.732025146484375,-0.5066070556640625,0.14990234375
1761315635742237400,0.716237548828125,-0.7367095947265625,-0.4920654296875,0.14874267578125
1761315635752285700,0.72628564453125,-0.6973724365234375,-0.46429443359375,0.1414794921875
1761315635762332700,0.736332763671875,-0.72723388671875,-0.46063232421875,0.1698150634765625
1761315635772380700,0.746380615234375,-0.803192138671875,-0.4866485595703125,0.2089996337890625
1761315635782427600,0.756427734375,-0.817626953125,-0.5149993896484375,0.2158660888671875
1761315635792474600,0.766474609375,-0.777679443359375,-0.4679718017578125,0.20611572265625
1761315635802522600,0.776522705078125,-0.7521514892578125,-0.4337310791015625,0.203155517578125
1761315635812569600,0.786569580078125,-0.6749420166015625,-0.423858642578125,0.2313690185546875
1761315635822617600,0.79661767578125,-0.78228759765625,-0.5465545654296875,0.2629547119140625
1761315635832664600,0.80666455078125,-0.75140380859375,-0.6109771728515625,0.2621307373046875
1761315635842712600,0.816712646484375,-0.653411865234375,-0.5169677734375,0.20660400390625
1761315635852759600,0.826759521484375,-0.6943359375,-0.4994354248046875,0.1595306396484375
1761315635862806500,0.836806640625,-0.673858642578125,-0.496795654296875,0.1293182373046875
1761315635872854800,0.846854736328125,-0.6872711181640625,-0.463165283203125,0.0943450927734375
1761315635882901800,0.85690185546875,-0.6990814208984375,-0.40960693359375,0.0830535888671875
1761315635892949500,0.866949462890625,-0.76531982421875,-0.434112548828125,0.11602783203125
1761315635902996500,0.87699658203125,-0.8052825927734375,-0.4470977783203125,0.1395111083984375
1761315635913044700,0.887044677734375,-0.8113555908203125,-0.414703369140625,0.1427764892578125
1761315635923091700,0.897091796875,-0.843475341796875,-0.331298828125,0.1378326416015625
1761315635933138700,0.907138671875,-0.7739105224609375,-0.2711181640625,0.1005096435546875
1761315635943186400,0.9171865234375,-0.64971923828125,-0.2972412109375,0.035186767578125
1761315635953233700,0.927233642578125,-0.6007843017578125,-0.2975311279296875,-0.02032470703125
1761315635963281700,0.93728173828125,-0.605560302734375,-0.2852325439453125,-0.04229736328125
1761315635973328600,0.94732861328125,-0.640472412109375,-0.28668212890625,-0.0080413818359375
1761315635983376400,0.95737646484375,-0.7179718017578125,-0.3897705078125,0.0804901123046875
1761315635993423600,0.967423583984375,-0.8247528076171875,-0.5498046875,0.1555328369140625
1761315636003471600,0.9774716796875,-1.040985107421875,-0.67193603515625,0.1941986083984375
1761315636013518600,0.9875185546875,-1.345184326171875,-0.6623382568359375,0.191650390625
1761315636023565600,0.997565673828125,-1.2957763671875,-0.7722320556640625,0.263916015625
1761315636033613600,1.007613525390625,-1.202545166015625,-0.8603973388671875,0.244873046875
1761315636043660500,1.01766064453125,-1.2845916748046875,-0.8580474853515625,0.190216064453125
1761315636053708500,1.02770849609375,-1.4173736572265625,-0.79461669921875,0.09686279296875
1761315636063755500,1.037755615234375,-1.54058837890625,-0.695068359375,0.05615234375
1761315636073803800,1.0478037109375,-1.6879730224609375,-0.6176605224609375,0.1258697509765625
1761315636083850500,1.0578505859375,-1.7737579345703125,-0.5850372314453125,0.1973419189453125
1761315636093898500,1.0678984375,-1.7827301025390625,-0.5861053466796875,0.2130889892578125
1761315636103945500,1.077945556640625,-1.8397369384765625,-0.6077423095703125,0.1577911376953125
1761315636113992700,1.08799267578125,-1.820404052734375,-0.60565185546875,0.1025543212890625
1761315636124040700,1.098040771484375,-1.6438140869140625,-0.626129150390625,0.0830535888671875
1761315636134087700,1.108087646484375,-1.46099853515625,-0.6772613525390625,0.0148773193359375
1761315636144135700,1.1181357421875,-1.247894287109375,-0.698944091796875,-0.1033172607421875
1761315636154182700,1.1281826171875,-1.034942626953125,-0.667755126953125,-0.2104644775390625
1761315636164230700,1.138230712890625,-0.785430908203125,-0.608612060546875,-0.26153564453125
1761315636174277600,1.148277587890625,-0.55450439453125,-0.5449981689453125,-0.2519989013671875
1761315636184324600,1.15832470703125,-0.3951873779296875,-0.48870849609375,-0.1970672607421875
1761315636194372600,1.16837255859375,-0.32586669921875,-0.436065673828125,-0.092010498046875
1761315636204419600,1.178419677734375,-0.302459716796875,-0.4047088623046875,0.021484375
1761315636214467600,1.188467529296875,-0.281646728515625,-0.4448394775390625,0.1165771484375
1761315636224514800,1.198514892578125,-0.3399658203125,-0.441162109375,0.1133880615234375
1761315636234562600,1.2085625,-0.425323486328125,-0.18389892578125,-0.013824462890625
1761315636244609500,1.218609619140625,-0.3055419921875,0.0663604736328125,-0.1535797119140625
1761315636254657500,1.228657470703125,-0.2549591064453125,0.1069183349609375,-0.237823486328125
1761315636264704800,1.238704833984375,-0.245391845703125,0.0255584716796875,-0.2483367919921875
1761315636274751700,1.248751708984375,-0.1854705810546875,0.0041656494140625,-0.0956878662109375
1761315636284799500,1.258799560546875,-0.2117462158203125,0.056976318359375,0.000732421875
1761315636294846500,1.268846435546875,-0.2559356689453125,0.10894775390625,0.0066986083984375
1761315636304894700,1.278894775390625,-0.2024078369140625,0.079620361328125,0.0323944091796875
1761315636314941700,1.288941650390625,-0.1113128662109375,0.0478973388671875,0.0209197998046875
1761315636324989400,1.298989501953125,-0.0609588623046875,0.0281219482421875,0.0026702880859375
1761315636335036400,1.309036376953125,-0.0228118896484375,-0.035919189453125,-0.0121917724609375
1761315636345083600,1.319083740234375,0.0236968994140625,-0.1282958984375,-0.05560302734375
1761315636355131600,1.329131591796875,0.025909423828125,-0.2335205078125,-0.137237548828125
1761315636365178600,1.3391787109375,0.00555419921875,-0.374603271484375,-0.2672119140625
1761315636375226600,1.3492265625,0.0185546875,-0.494049072265625,-0.482818603515625
1761315636385273600,1.359273681640625,0.06182861328125,-0.5445404052734375,-0.6918792724609375
1761315636395321600,1.369321533203125,0.1484832763671875,-0.603729248046875,-0.7927093505859375
1761315636405368600,1.37936865234375,0.21771240234375,-0.635955810546875,-0.7938690185546875
1761315636415415600,1.38941552734375,0.211456298828125,-0.5369415283203125,-0.750213623046875
1761315636425463600,1.399463623046875,0.092803955078125,-0.3533782958984375,-0.6938934326171875
1761315636435510500,1.409510498046875,-0.083953857421875,-0.38409423828125,-0.4984893798828125
1761315636445558500,1.41955859375,-0.29656982421875,-0.4326019287109375,-0.47540283203125
1761315636455605500,1.42960546875,-0.656768798828125,-0.435302734375,-0.400787353515625
1761315636465653800,1.43965380859375,-1.07391357421875,-0.3995361328125,-0.308258056640625
1761315636475700700,1.44970068359375,-1.41070556640625,-0.3865509033203125,-0.2068023681640625
1761315636485748500,1.45974853515625,-1.685394287109375,-0.4497528076171875,-0.0906219482421875
1761315636495795500,1.46979541015625,-2.0134429931640625,-0.5298919677734375,-0.02166748046875
1761315636505842700,1.4798427734375,-2.387054443359375,-0.57489013671875,0.0198211669921875
1761315636515890700,1.489890625,-2.7107086181640625,-0.5928497314453125,-0.032928466796875
1761315636525937700,1.499937744140625,-2.9947662353515625,-0.553314208984375,-0.1917572021484375
1761315636535985700,1.509985595703125,-3.145538330078125,-0.409759521484375,-0.4627227783203125
1761315636546032600,1.52003271484375,-3.1094818115234375,-0.2088623046875,-0.7099151611328125
1761315636556080600,1.53008056640625,-3.0210418701171875,-0.11688232421875,-0.864227294921875
1761315636566127600,1.540127685546875,-2.8980560302734375,-0.17059326171875,-0.890899658203125
1761315636576174600,1.550174560546875,-2.719696044921875,-0.24853515625,-0.8067169189453125
1761315636586222600,1.56022265625,-2.53826904296875,-0.3259429931640625,-0.679595947265625
1761315636596269600,1.57026953125,-2.30389404296875,-0.36248779296875,-0.5540771484375
1761315636606317600,1.580317626953125,-2.0398406982421875,-0.3514556884765625,-0.4503021240234375
1761315636616364800,1.59036474609375,-1.7717742919921875,-0.3016357421875,-0.37359619140625
1761315636626412500,1.60041259765625,-1.49615478515625,-0.234527587890625,-0.3143463134765625
1761315636636459500,1.61045947265625,-1.23529052734375,-0.161376953125,-0.2655792236328125
1761315636646507500,1.620507568359375,-0.9930572509765625,-0.117950439453125,-0.21734619140625
1761315636656554800,1.6305546875,-0.7616729736328125,-0.09283447265625,-0.1725921630859375
1761315636666601700,1.640601806640625,-0.56787109375,-0.064239501953125,-0.1465606689453125
1761315636676649500,1.6506494140625,-0.409423828125,-0.0325775146484375,-0.1048431396484375
1761315636686696400,1.660696533203125,-0.28509521484375,-0.01934814453125,-0.0413665771484375
1761315636696744700,1.67074462890625,-0.189605712890625,-0.0315704345703125,0.0378570556640625
1761315636706795300,1.680795166015625,-0.103729248046875,-0.0433349609375,0.11285400390625
1761315636716843300,1.69084326171875,-0.0366973876953125,-0.0455780029296875,0.1729278564453125
1761315636726890200,1.70089013671875,0.02294921875,-0.05224609375,0.214141845703125
1761315636736937200,1.710937255859375,0.06414794921875,-0.0836639404296875,0.232177734375
1761315636746985200,1.720985107421875,0.1107940673828125,-0.12725830078125,0.273345947265625
1761315636757032200,1.7310322265625,0.1123199462890625,-0.187164306640625,0.348541259765625
1761315636767080200,1.741080078125,0.047271728515625,-0.2947235107421875,0.38360595703125
1761315636777127200,1.751127197265625,-0.00115966796875,-0.3935699462890625,0.3840789794921875
1761315636787175200,1.761175048828125,0.0305633544921875,-0.414642333984375,0.348358154296875
1761315636797222400,1.771222412109375,0.093597412109375,-0.3777923583984375,0.2462615966796875
1761315636807270400,1.7812705078125,0.1596221923828125,-0.323699951171875,0.099151611328125
1761315636817317000,1.791317138671875,0.2236480712890625,-0.285369873046875,-0.012725830078125
1761315636827364000,1.801364013671875,0.232391357421875,-0.251068115234375,-0.1036529541015625
1761315636837412400,1.811412353515625,0.1790771484375,-0.20404052734375,-0.1666107177734375
1761315636847459300,1.821459228515625,0.07855224609375,-0.1932830810546875,-0.185272216796875
1761315636857507300,1.83150732421875,-0.0614471435546875,-0.278564453125,-0.1445465087890625
1761315636867554300,1.84155419921875,-0.1856536865234375,-0.431121826171875,-0.0606536865234375
1761315636877602300,1.851602294921875,-0.3344879150390625,-0.5532073974609375,-0.0336151123046875
1761315636887649300,1.861649169921875,-0.5092620849609375,-0.5799102783203125,-0.0997314453125
1761315636897696300,1.8716962890625,-0.7266845703125,-0.537200927734375,-0.23065185546875
1761315636907744300,1.881744140625,-0.995361328125,-0.5124664306640625,-0.4067535400390625
1761315636917791500,1.89179150390625,-1.3736724853515625,-0.4904937744140625,-0.568603515625
1761315636927839200,1.901839111328125,-1.7727508544921875,-0.4803009033203125,-0.712158203125
1761315636937886200,1.91188623046875,-2.091094970703125,-0.4936370849609375,-0.814239501953125
1761315636947934500,1.9219345703125,-2.379608154296875,-0.529632568359375,-0.7821197509765625
1761315636957981400,1.9319814453125,-2.614532470703125,-0.6066131591796875,-0.6786346435546875
1761315636968029200,1.942029296875,-2.7617645263671875,-0.6874237060546875,-0.567352294921875
1761315636978076200,1.952076171875,-2.8823394775390625,-0.7976837158203125,-0.493743896484375
1761315636988123100,1.962123046875,-2.9665679931640625,-0.8361053466796875,-0.5572357177734375
1761315636998171400,1.97217138671875,-2.871490478515625,-0.7103271484375,-0.7393646240234375
1761315637008218400,1.98221826171875,-2.6903839111328125,-0.6080780029296875,-0.842926025390625
1761315637018266000,1.99226611328125,-2.438262939453125,-0.6013946533203125,-0.861083984375
1761315637028313000,2.00231298828125,-2.1394195556640625,-0.6312103271484375,-0.7788848876953125
1761315637038361300,2.012361328125,-1.8673553466796875,-0.6891937255859375,-0.6030731201171875
1761315637048408300,2.022408203125,-1.619140625,-0.713714599609375,-0.434173583984375
1761315637058455300,2.032455322265625,-1.371002197265625,-0.694183349609375,-0.2877960205078125
1761315637068503300,2.04250341796875,-1.1497039794921875,-0.6576080322265625,-0.1714019775390625
1761315637078550300,2.05255029296875,-0.9109954833984375,-0.634521484375,-0.06585693359375
1761315637088598300,2.062598388671875,-0.6524200439453125,-0.6200103759765625,0.012481689453125
1761315637098645200,2.072645263671875,-0.388214111328125,-0.568084716796875,0.0259857177734375
1761315637108693200,2.082693359375,-0.1516265869140625,-0.4819793701171875,0.0143280029296875
1761315637118740200,2.092740234375,0.01904296875,-0.401519775390625,0.0088043212890625
1761315637128788200,2.102788330078125,0.1183013916015625,-0.3097991943359375,-0.0077667236328125
1761315637138835200,2.112835205078125,0.163604736328125,-0.214202880859375,-0.0157318115234375
1761315637148882400,2.12288232421875,0.202178955078125,-0.158447265625,-0.00537109375
1761315637158930200,2.13293017578125,0.2272186279296875,-0.1160888671875,0.00238037109375
1761315637168977200,2.14297705078125,0.2142486572265625,-0.066314697265625,0.0361175537109375
1761315637179025200,2.153025146484375,0.1706390380859375,-0.0494384765625,0.094024658203125
1761315637189072400,2.163072265625,0.1109619140625,-0.0749053955078125,0.1491851806640625
1761315637199120400,2.173120361328125,0.057281494140625,-0.093658447265625,0.1889190673828125
1761315637209167400,2.18316748046875,0.011322021484375,-0.1025390625,0.2239227294921875
1761315637219214000,2.193214111328125,-0.0176544189453125,-0.1107940673828125,0.2328948974609375
1761315637229262300,2.203262451171875,-0.0354766845703125,-0.0988922119140625,0.2029876708984375
1761315637239309300,2.213309326171875,-0.0538787841796875,-0.0662384033203125,0.1608123779296875
1761315637249357300,2.223357421875,-0.064117431640625,-0.041107177734375,0.1209869384765625
1761315637259404300,2.233404296875,-0.0750274658203125,-0.030548095703125,0.095733642578125
1761315637269452300,2.243452392578125,-0.0770263671875,-0.044464111328125,0.07769775390625
1761315637279499300,2.253499267578125,-0.075592041015625,-0.065460205078125,0.0644989013671875
1761315637289547300,2.26354736328125,-0.0813446044921875,-0.0696258544921875,0.031341552734375
1761315637299594200,2.27359423828125,-0.0827484130859375,-0.0755462646484375,-0.0062255859375
1761315637309641500,2.283641357421875,-0.0992584228515625,-0.123382568359375,-0.056060791015625
1761315637319689200,2.293689208984375,-0.1031036376953125,-0.173736572265625,-0.111358642578125
1761315637329736200,2.303736083984375,-0.114471435546875,-0.2037811279296875,-0.1541900634765625
1761315637339784400,2.313784423828125,-0.1797332763671875,-0.2572784423828125,-0.196929931640625
1761315637349831400,2.32383154296875,-0.300537109375,-0.332061767578125,-0.24005126953125
1761315637359879200,2.333879150390625,-0.454833984375,-0.406280517578125,-0.3216094970703125
1761315637369926100,2.343926025390625,-0.6355743408203125,-0.4462127685546875,-0.45233154296875
1761315637379973000,2.35397314453125,-0.857208251953125,-0.482025146484375,-0.6207122802734375
1761315637390021400,2.364021484375,-1.17962646484375,-0.5636444091796875,-0.7408294677734375
1761315637400068400,2.374068359375,-1.48944091796875,-0.7074432373046875,-0.797821044921875
1761315637410116000,2.3841162109375,-1.840057373046875,-0.7097320556640625,-0.8632659912109375
1761315637420163000,2.3941630859375,-2.19580078125,-0.4815826416015625,-1.0140838623046875
1761315637430211300,2.40421142578125,-2.4816436767578125,-0.338531494140625,-1.0474853515625
1761315637440258300,2.41425830078125,-2.7891693115234375,-0.4628143310546875,-0.9708099365234375
1761315637450305300,2.42430517578125,-2.931976318359375,-0.5573272705078125,-0.9432373046875
1761315637460353300,2.434353271484375,-2.855133056640625,-0.5522613525390625,-0.9635009765625
1761315637470400300,2.444400146484375,-2.6903839111328125,-0.631866455078125,-0.9127044677734375
1761315637480448300,2.4544482421875,-2.548736572265625,-0.7725982666015625,-0.7879180908203125
1761315637490495200,2.4644951171875,-2.4070892333984375,-0.8604583740234375,-0.6796112060546875
1761315637500543200,2.474543212890625,-2.2226715087890625,-0.86614990234375,-0.625396728515625
1761315637510590200,2.484590087890625,-2.0116729736328125,-0.8156890869140625,-0.5966339111328125
1761315637520637200,2.49463720703125,-1.815093994140625,-0.7372589111328125,-0.5202789306640625
1761315637530685200,2.504685302734375,-1.6097412109375,-0.6610870361328125,-0.40728759765625
1761315637540732400,2.514732421875,-1.38580322265625,-0.6010589599609375,-0.30389404296875
1761315637550780400,2.524780517578125,-1.1528778076171875,-0.51287841796875,-0.245086669921875
1761315637560827100,2.5348271484375,-0.89361572265625,-0.390167236328125,-0.2147216796875
1761315637570875100,2.544875244140625,-0.6726837158203125,-0.3033447265625,-0.2614898681640625
1761315637580922400,2.55492236328125,-0.4534454345703125,-0.235565185546875,-0.359344482421875
1761315637590970400,2.564970458984375,-0.2264404296875,-0.1735076904296875,-0.4756927490234375
1761315637601017300,2.575017333984375,-0.05352783203125,-0.1128082275390625,-0.529632568359375
1761315637611064300,2.585064208984375,0.0368804931640625,-0.0524139404296875,-0.46197509765625
1761315637621112300,2.5951123046875,0.057373046875,-0.0350189208984375,-0.323822021484375
1761315637631159300,2.6051591796875,0.0261688232421875,-0.0564117431640625,-0.150054931640625
1761315637641207300,2.615207275390625,-0.0195159912109375,-0.0916748046875,0.017181396484375
1761315637651254300,2.625254150390625,-0.062530517578125,-0.1253509521484375,0.1615142822265625
1761315637661302300,2.63530224609375,-0.10418701171875,-0.1562347412109375,0.263458251953125
1761315637671349200,2.645349365234375,-0.1160736083984375,-0.1699371337890625,0.321685791015625
1761315637681396200,2.655396240234375,-0.1036529541015625,-0.1681060791015625,0.3323211669921875
1761315637691444200,2.6654443359375,-0.067291259765625,-0.1681365966796875,0.3025054931640625
1761315637701491500,2.675491455078125,-0.0071258544921875,-0.163421630859375,0.279510498046875
1761315637711535400,2.685535400390625,0.001068115234375,-0.1652069091796875,0.2613372802734375
1761315637721582300,2.695582275390625,-0.0081939697265625,-0.18359375,0.2348785400390625
1761315637731630600,2.705630615234375,0.0195465087890625,-0.1925811767578125,0.183563232421875
1761315637741677600,2.715677490234375,0.0724029541015625,-0.17242431640625,0.134185791015625
1761315637751724500,2.725724609375,0.1076507568359375,-0.1329193115234375,0.12347412109375
1761315637761772300,2.735772216796875,0.1154937744140625,-0.104034423828125,0.1302032470703125
1761315637771819500,2.745819580078125,0.1094512939453125,-0.1071319580078125,0.152435302734375
1761315637781867500,2.755867431640625,0.126953125,-0.1169586181640625,0.1976318359375
1761315637791914500,2.76591455078125,0.136138916015625,-0.0734405517578125,0.2572174072265625
1761315637801962500,2.77596240234375,0.1292724609375,-0.0115509033203125,0.364959716796875
1761315637812009500,2.786009521484375,0.0973663330078125,-0.0616455078125,0.479400634765625
1761315637822057500,2.796057373046875,-0.026153564453125,-0.2021484375,0.470977783203125
1761315637832104400,2.8061044921875,-0.2490081787109375,-0.3976287841796875,0.407196044921875
1761315637842151400,2.8161513671875,-0.6361236572265625,-0.5072479248046875,0.1689453125
1761315637852199700,2.82619970703125,-1.1334228515625,-0.371826171875,-0.3511962890625
1761315637862246400,2.836246337890625,-1.9587249755859375,-0.2435760498046875,-0.93536376953125
1761315637872294400,2.84629443359375,-2.872894287109375,-0.177703857421875,-1.41455078125
1761315637882341400,2.85634130859375,-3.455322265625,-0.1264801025390625,-1.6613922119140625
1761315637892389600,2.8663896484375,-3.7524871826171875,-0.169403076171875,-1.6404571533203125
1761315637902436600,2.8764365234375,-3.81854248046875,-0.2730560302734375,-1.5384063720703125
1761315637912483300,2.8864833984375,-3.7006683349609375,-0.334625244140625,-1.4552459716796875
1761315637922531300,2.89653125,-3.5583038330078125,-0.2790069580078125,-1.4498138427734375
1761315637932578600,2.90657861328125,-3.4027099609375,-0.1930084228515625,-1.352935791015625
1761315637942626600,2.91662646484375,-3.222015380859375,-0.27227783203125,-1.0380859375
1761315637952673500,2.926673583984375,-2.977569580078125,-0.420623779296875,-0.674072265625
1761315637962721500,2.936721435546875,-2.6374359130859375,-0.4863433837890625,-0.447357177734375
1761315637972768500,2.9467685546875,-2.235748291015625,-0.47125244140625,-0.3294525146484375
1761315637982815500,2.9568154296875,-1.847747802734375,-0.4317626953125,-0.2618865966796875
1761315637992863500,2.966863525390625,-1.51611328125,-0.380126953125,-0.1885986328125
1761315638002910500,2.976910400390625,-1.231048583984375,-0.3075714111328125,-0.121063232421875
1761315638012958500,2.98695849609375,-0.9909820556640625,-0.2275238037109375,-0.0610504150390625
1761315638023005400,2.99700537109375,-0.802825927734375,-0.162811279296875,0.0012359619140625
1761315638033053400,3.007053466796875,-0.6440277099609375,-0.1223602294921875,0.043731689453125
1761315638043100700,3.0171005859375,-0.510711669921875,-0.0812225341796875,0.063018798828125
1761315638053147600,3.027147705078125,-0.4012603759765625,-0.0321502685546875,0.0605010986328125
1761315638063195400,3.0371953125,-0.2974395751953125,0.0113677978515625,0.0601654052734375
1761315638073242400,3.047242431640625,-0.1887054443359375,0.0420074462890625,0.057464599609375
1761315638083290600,3.05729052734375,-0.079742431640625,0.0458831787109375,0.090057373046875
1761315638093337600,3.067337646484375,0.0295867919921875,0.0043487548828125,0.13372802734375
1761315638103385300,3.07738525390625,0.133819580078125,-0.0572509765625,0.1697845458984375
1761315638113432300,3.087432373046875,0.2496795654296875,-0.096710205078125,0.20318603515625
1761315638123479300,3.097479248046875,0.3419952392578125,-0.1264801025390625,0.2255401611328125
1761315638133527600,3.107527587890625,0.4257049560546875,-0.1361541748046875,0.2299346923828125
1761315638143574500,3.117574462890625,0.5003814697265625,-0.115203857421875,0.22845458984375
1761315638153622300,3.127622314453125,0.5306549072265625,-0.093475341796875,0.22686767578125
1761315638163669500,3.13766943359375,0.543212890625,-0.080078125,0.25042724609375
1761315638173717500,3.147717529296875,0.5283050537109375,-0.0735931396484375,0.2884674072265625
1761315638183764500,3.157764404296875,0.4818267822265625,-0.07330322265625,0.310272216796875
1761315638193811500,3.1678115234375,0.4384613037109375,-0.0576171875,0.316986083984375
1761315638203859500,3.177859375,0.389984130859375,-0.0313873291015625,0.296875
1761315638213906400,3.187906494140625,0.34185791015625,0.00140380859375,0.259063720703125
1761315638223954400,3.197954345703125,0.286346435546875,0.021270751953125,0.2235260009765625
1761315638234001400,3.20800146484375,0.2097015380859375,0.0168609619140625,0.20147705078125
1761315638244049700,3.218049560546875,0.112701416015625,-0.032440185546875,0.1720428466796875
1761315638254096400,3.228096435546875,0.036376953125,-0.0654449462890625,0.129364013671875
1761315638264143400,3.238143310546875,-0.049560546875,-0.068603515625,0.0944061279296875
1761315638274191400,3.24819140625,-0.1539154052734375,-0.0910186767578125,0.0790252685546875
1761315638284238600,3.258238525390625,-0.3255615234375,-0.1243133544921875,0.0576629638671875
1761315638294286600,3.26828662109375,-0.5853271484375,-0.1573333740234375,0.048004150390625
1761315638304333600,3.27833349609375,-0.9201202392578125,-0.1501312255859375,-0.042877197265625
1761315638314381600,3.288381591796875,-1.42169189453125,-0.0558013916015625,-0.2371368408203125
1761315638324428500,3.298428466796875,-1.98553466796875,0.0292510986328125,-0.4693756103515625
1761315638334475500,3.3084755859375,-2.4309844970703125,-0.0722808837890625,-0.7505950927734375
1761315638344523500,3.3185234375,-3.1154937744140625,-0.05523681640625,-1.02001953125
1761315638354570500,3.328570556640625,-3.9427642822265625,0.2587127685546875,-1.32354736328125
1761315638364618500,3.338618408203125,-4.5458526611328125,0.768096923828125,-1.8035430908203125
1761315638374665500,3.34866552734375,-4.956939697265625,1.35565185546875,-2.172119140625
1761315638384713500,3.35871337890625,-5.100982666015625,1.57574462890625,-2.138458251953125
1761315638394760400,3.368760498046875,-4.8706207275390625,1.412689208984375,-1.7888641357421875
1761315638404807700,3.3788076171875,-4.3762359619140625,1.0781097412109375,-1.313507080078125
1761315638414855400,3.38885546875,-3.8303070068359375,0.6903076171875,-0.88427734375
1761315638424902400,3.39890234375,-3.188140869140625,0.39044189453125,-0.6048583984375
1761315638434950700,3.40895068359375,-2.45965576171875,0.070709228515625,-0.487152099609375
1761315638444997600,3.41899755859375,-1.8226165771484375,-0.152008056640625,-0.3838043212890625
1761315638455045400,3.42904541015625,-1.2641448974609375,-0.2917327880859375,-0.2992401123046875
1761315638465092400,3.43909228515625,-0.7545013427734375,-0.4005584716796875,-0.203460693359375
1761315638475139300,3.449139404296875,-0.353912353515625,-0.4591217041015625,-0.126708984375
1761315638485187600,3.4591875,-0.005279541015625,-0.485107421875,-0.0527801513671875
1761315638495234600,3.469234619140625,0.269012451171875,-0.46380615234375,0.0323638916015625
1761315638505282300,3.4792822265625,0.46209716796875,-0.3398895263671875,0.06634521484375
1761315638515329500,3.48932958984375,0.6134033203125,-0.2172698974609375,0.0800933837890625
1761315638525377500,3.49937744140625,0.712860107421875,-0.094573974609375,0.1044464111328125
1761315638535424500,3.509424560546875,0.7747802734375,-0.003204345703125,0.1402130126953125
1761315638545471500,3.519471435546875,0.7935638427734375,0.035980224609375,0.2257232666015625
1761315638555519500,3.52951953125,0.7886505126953125,0.0476226806640625,0.34539794921875
1761315638565566500,3.53956640625,0.7840728759765625,0.0641632080078125,0.4534912109375
1761315638575614500,3.549614501953125,0.793548583984375,0.07135009765625,0.5540313720703125
1761315638585661400,3.559661376953125,0.785919189453125,0.04034423828125,0.629669189453125
1761315638595709400,3.56970947265625,0.773406982421875,0.014892578125,0.66961669921875
1761315638605756400,3.57975634765625,0.7524261474609375,0.0153045654296875,0.678741455078125
1761315638615803400,3.589803466796875,0.72100830078125,0.0298919677734375,0.6578216552734375
1761315638625851400,3.599851318359375,0.6829833984375,0.053924560546875,0.5943603515625
1761315638635898600,3.609898681640625,0.6649627685546875,0.0763397216796875,0.4972076416015625
1761315638645946600,3.619946533203125,0.631317138671875,0.0657196044921875,0.3998870849609375
1761315638655993300,3.629993408203125,0.5612945556640625,0.0362091064453125,0.296356201171875
1761315638666041300,3.640041259765625,0.50750732421875,0.031524658203125,0.19989013671875
1761315638676088600,3.650088623046875,0.419403076171875,0.0435333251953125,0.1167144775390625
1761315638686135600,3.660135498046875,0.273529052734375,0.0856781005859375,0.055572509765625
1761315638696183600,3.67018359375,0.1373138427734375,0.1507415771484375,0.0143585205078125
1761315638706234000,3.680234130859375,-0.0088348388671875,0.2129974365234375,-0.00677490234375
1761315638716282000,3.6902822265625,-0.1646881103515625,0.22674560546875,0.006561279296875
1761315638726329300,3.700329345703125,-0.326904296875,0.1968536376953125,0.041259765625
1761315638736377300,3.71037744140625,-0.53387451171875,0.144622802734375,0.05328369140625
1761315638746424300,3.72042431640625,-0.7368927001953125,0.1131744384765625,-0.0440826416015625
1761315638756471000,3.730470947265625,-0.9104766845703125,0.096466064453125,-0.27947998046875
1761315638766519300,3.740519287109375,-1.18109130859375,0.034912109375,-0.49261474609375
1761315638776566300,3.750566162109375,-1.568634033203125,-0.09173583984375,-0.6447296142578125
1761315638786614300,3.7606142578125,-2.06500244140625,-0.2736053466796875,-0.7866973876953125
1761315638796661200,3.7706611328125,-2.6275482177734375,-0.351043701171875,-0.95501708984375
1761315638806709200,3.780709228515625,-3.0423736572265625,-0.3769073486328125,-1.170318603515625
1761315638816756200,3.790756103515625,-3.26318359375,-0.3072662353515625,-1.4896697998046875
1761315638826803200,3.80080322265625,-3.4442901611328125,-0.10723876953125,-1.7281494140625
1761315638836851200,3.810851318359375,-3.4779815673828125,0.0813446044921875,-1.8369140625
1761315638846898400,3.8208984375,-3.470489501953125,0.1856689453125,-1.76959228515625
1761315638856946200,3.8309462890625,-3.579681396484375,0.1623382568359375,-1.501495361328125
1761315638866993200,3.8409931640625,-3.66046142578125,0.0959320068359375,-1.13232421875
1761315638877040000,3.8510400390625,-3.590423583984375,0.00439453125,-0.8146209716796875
1761315638887088400,3.86108837890625,-3.27166748046875,-0.01934814453125,-0.6352386474609375
1761315638897135400,3.87113525390625,-2.8242950439453125,-0.0083160400390625,-0.5630340576171875
1761315638907183000,3.88118310546875,-2.3976287841796875,-0.012481689453125,-0.48907470703125
1761315638917230000,3.89122998046875,-2.0282135009765625,-0.00103759765625,-0.3963775634765625
1761315638927278300,3.9012783203125,-1.7781524658203125,0.046478271484375,-0.3314361572265625
1761315638937325300,3.9113251953125,-1.5541839599609375,0.092376708984375,-0.2911529541015625
1761315638947372300,3.921372314453125,-1.36053466796875,0.1331939697265625,-0.2427215576171875
1761315638957420300,3.931420166015625,-1.1758880615234375,0.142486572265625,-0.203369140625
1761315638967467300,3.94146728515625,-0.977447509765625,0.139678955078125,-0.17144775390625
1761315638977515300,3.951515380859375,-0.764434814453125,0.139678955078125,-0.1395111083984375
1761315638987562200,3.961562255859375,-0.5300140380859375,0.140472412109375,-0.141632080078125
1761315638997609200,3.971609130859375,-0.27099609375,0.197296142578125,-0.16351318359375
1761315639007657200,3.9816572265625,-0.0282440185546875,0.2579498291015625,-0.1590118408203125
1761315639017704200,3.9917041015625,0.1517486572265625,0.2718048095703125,-0.1439666748046875
1761315639027752200,4.001752197265625,0.268890380859375,0.32244873046875,-0.094390869140625
1761315639037799200,4.011799072265625,0.3227691650390625,0.3843536376953125,-0.003143310546875
1761315639047847200,4.02184716796875,0.376739501953125,0.3746337890625,0.1220245361328125
1761315639057894100,4.03189404296875,0.4580841064453125,0.329254150390625,0.2302093505859375
1761315639067941000,4.041941162109375,0.5711212158203125,0.32952880859375,0.2800445556640625
1761315639077989400,4.0519892578125,0.6733245849609375,0.35430908203125,0.3002471923828125
1761315639088036400,4.062036376953125,0.767974853515625,0.3665313720703125,0.2907257080078125
1761315639098084000,4.072083984375,0.8204345703125,0.400634765625,0.2846221923828125
1761315639108131000,4.082131103515625,0.8329315185546875,0.4443359375,0.301513671875
1761315639118179300,4.092179443359375,0.765228271484375,0.4495849609375,0.3154754638671875
1761315639128226300,4.102226318359375,0.6887969970703125,0.42596435546875,0.322784423828125
1761315639138273300,4.112273193359375,0.6059417724609375,0.3535919189453125,0.3354644775390625
1761315639148321000,4.122321044921875,0.5413818359375,0.2355499267578125,0.3382110595703125
1761315639158368300,4.1323681640625,0.5821075439453125,0.1346282958984375,0.3120574951171875
1761315639168416300,4.142416259765625,0.6956939697265625,0.00787353515625,0.2677459716796875
1761315639178463200,4.152463134765625,0.859100341796875,-0.0404205322265625,0.175811767578125
1761315639188511200,4.16251123046875,1.0193328857421875,0.0167236328125,0.1330413818359375
1761315639198558200,4.17255810546875,1.0140228271484375,-0.039794921875,0.17230224609375
1761315639208605200,4.182605224609375,0.8570098876953125,-0.1483612060546875,0.2321624755859375
1761315639218653200,4.192653076171875,0.6758575439453125,-0.2989654541015625,0.3343963623046875
1761315639228700200,4.2027001953125,0.379913330078125,-0.5430450439453125,0.485076904296875
1761315639238748400,4.21274853515625,-0.0552520751953125,-0.703094482421875,0.548004150390625
1761315639248795400,4.22279541015625,-0.534881591796875,-0.6414794921875,0.4439239501953125
1761315639258842000,4.232842041015625,-1.054931640625,-0.6155853271484375,0.297698974609375
1761315639268890000,4.24289013671875,-1.6537017822265625,-0.647308349609375,0.0578460693359375
1761315639278937300,4.252937255859375,-2.3294525146484375,-0.2656402587890625,-0.4438629150390625
1761315639288985300,4.2629853515625,-3.0167694091796875,0.2476959228515625,-0.9823150634765625
1761315639299032300,4.2730322265625,-3.579315185546875,0.6516265869140625,-1.407684326171875
1761315639309080000,4.283080078125,-4.0699462890625,0.9844970703125,-1.68072509765625
1761315639319127300,4.293127197265625,-4.50848388671875,1.003082275390625,-1.7597198486328125
1761315639329174300,4.30317431640625,-4.7467803955078125,0.8569183349609375,-1.759674072265625
1761315639339222300,4.31322216796875,-4.699920654296875,0.692169189453125,-1.760040283203125
1761315639349269200,4.323269287109375,-4.5105438232421875,0.55859375,-1.7432708740234375
1761315639359317200,4.333317138671875,-4.2233428955078125,0.4019012451171875,-1.7416839599609375
1761315639369364200,4.3433642578125,-3.915863037109375,0.308135986328125,-1.795074462890625
1761315639379411200,4.3534111328125,-3.641876220703125,0.2832489013671875,-1.80572509765625
1761315639389459200,4.363459228515625,-3.4336090087890625,0.213134765625,-1.698638916015625
1761315639399506400,4.37350634765625,-3.2402496337890625,0.21563720703125,-1.539642333984375
1761315639409554200,4.38355419921875,-3.012908935546875,0.2737579345703125,-1.3383026123046875
1761315639419601200,4.39360107421875,-2.7005767822265625,0.2914886474609375,-1.1311492919921875
1761315639429649200,4.403649169921875,-2.29815673828125,0.29168701171875,-0.9605865478515625
1761315639439696400,4.4136962890625,-1.7830657958984375,0.2678070068359375,-0.8489227294921875
1761315639449743400,4.423743408203125,-1.23126220703125,0.2104339599609375,-0.783599853515625
1761315639459791000,4.433791015625,-0.678741455078125,0.14300537109375,-0.7809295654296875
1761315639469838000,4.443838134765625,-0.17877197265625,0.044830322265625,-0.7866668701171875
1761315639479886300,4.45388623046875,0.069091796875,-0.0140533447265625,-0.8024139404296875
1761315639489933300,4.463933349609375,0.2160491943359375,-0.05438232421875,-0.7699432373046875
1761315639499980300,4.473980224609375,0.2586669921875,-0.0620574951171875,-0.649261474609375
1761315639510028000,4.484028076171875,0.2694244384765625,-0.033905029296875,-0.4604949951171875
1761315639520075300,4.4940751953125,0.3419036865234375,0.0107269287109375,-0.2946014404296875
1761315639530123300,4.504123291015625,0.4694671630859375,0.0743560791015625,-0.1966705322265625
1761315639540170200,4.514170166015625,0.6229095458984375,0.172454833984375,-0.100799560546875
1761315639550218200,4.52421826171875,0.815216064453125,0.2770233154296875,-0.0017547607421875
1761315639560265200,4.53426513671875,0.9679718017578125,0.3821258544921875,0.1265716552734375
1761315639570312200,4.544312255859375,1.0887603759765625,0.4889678955078125,0.3284149169921875
1761315639580360200,4.554360107421875,1.1980133056640625,0.6254730224609375,0.5679779052734375
1761315639590407200,4.5644072265625,1.329742431640625,0.6578521728515625,0.77947998046875
1761315639600455200,4.574455078125,1.4397125244140625,0.5959014892578125,0.920135498046875
1761315639610502100,4.584502197265625,1.52789306640625,0.5611724853515625,0.9746856689453125
1761315639620549000,4.594549072265625,1.5661773681640625,0.5206298828125,0.987579345703125
1761315639630597000,4.60459716796875,1.5367279052734375,0.48760986328125,0.9956817626953125
1761315639640644400,4.614644287109375,1.4943695068359375,0.4871063232421875,0.9579620361328125
1761315639650692400,4.6246923828125,1.44635009765625,0.5132293701171875,0.849853515625
1761315639660739000,4.634739013671875,1.329132080078125,0.5398406982421875,0.714019775390625
1761315639670787300,4.644787353515625,1.1454620361328125,0.5808258056640625,0.5656585693359375
1761315639680834300,4.654834228515625,0.8603057861328125,0.6505584716796875,0.4401092529296875
1761315639690881300,4.66488134765625,0.518463134765625,0.673980712890625,0.3339691162109375
1761315639700929300,4.67492919921875,0.2317047119140625,0.6562957763671875,0.2384796142578125
1761315639710972700,4.68497265625,0.006378173828125,0.6197509765625,0.14947509765625
1761315639721021000,4.69502099609375,-0.1672515869140625,0.5451812744140625,0.0697021484375
1761315639731068000,4.70506787109375,-0.3155975341796875,0.4268341064453125,0.0062408447265625
1761315639741115000,4.715114990234375,-0.473907470703125,0.3331298828125,-0.110015869140625
1761315639751163000,4.725162841796875,-0.62353515625,0.27471923828125,-0.28289794921875
1761315639761209900,4.7352099609375,-0.82342529296875,0.0426483154296875,-0.4089813232421875
1761315639771257900,4.7452578125,-1.1690673828125,-0.3024139404296875,-0.5009307861328125
1761315639781304800,4.755304931640625,-1.5772552490234375,-0.4957122802734375,-0.61376953125
1761315639791352800,4.765352783203125,-2.095367431640625,-0.573150634765625,-0.8118743896484375
1761315639801400000,4.775400146484375,-2.660491943359375,-0.50811767578125,-1.1208343505859375
1761315639811446800,4.78544677734375,-3.2415924072265625,-0.2644500732421875,-1.5256805419921875
1761315639821494800,4.795494873046875,-3.810211181640625,0.06939697265625,-1.924041748046875
1761315639831541800,4.805541748046875,-4.331451416015625,0.4166717529296875,-2.2366180419921875
1761315639841590000,4.815590087890625,-4.676483154296875,0.588714599609375,-2.4448699951171875
1761315639851637000,4.825636962890625,-4.76971435546875,0.5880279541015625,-2.522735595703125
1761315639861684000,4.83568408203125,-4.65423583984375,0.5893707275390625,-2.500762939453125
1761315639871731700,4.845731689453125,-4.427642822265625,0.513519287109375,-2.3493804931640625
1761315639881779000,4.855779052734375,-4.0734405517578125,0.370758056640625,-2.0914154052734375
1761315639891827000,4.865826904296875,-3.564178466796875,0.244720458984375,-1.83294677734375
1761315639901870800,4.875870849609375,-2.9561614990234375,0.08575439453125,-1.636322021484375
1761315639911918800,4.8859189453125,-2.3175506591796875,-0.0678558349609375,-1.51251220703125
1761315639921965800,4.8959658203125,-1.71612548828125,-0.184295654296875,-1.402740478515625
1761315639932012800,4.9060126953125,-1.227569580078125,-0.2833709716796875,-1.2474517822265625
1761315639942061000,4.91606103515625,-0.87060546875,-0.33831787109375,-1.0435333251953125
1761315639952108000,4.92610791015625,-0.5995941162109375,-0.337432861328125,-0.8204803466796875
1761315639962155800,4.93615576171875,-0.4226531982421875,-0.2994842529296875,-0.61859130859375
1761315639972202800,4.94620263671875,-0.3044281005859375,-0.2370452880859375,-0.4362640380859375
1761315639982251000,4.9562509765625,-0.1960601806640625,-0.14892578125,-0.2728271484375
1761315639992298000,4.966298095703125,-0.092559814453125,-0.067474365234375,-0.1439971923828125
1761315640002345000,4.976344970703125,0.0033416748046875,0.00286865234375,-0.043121337890625
1761315640012392700,4.986392822265625,0.1029052734375,0.070709228515625,0.03314208984375
1761315640022440000,4.99643994140625,0.1844940185546875,0.1417083740234375,0.100250244140625
1761315640032488000,5.006488037109375,0.254058837890625,0.209747314453125,0.1605072021484375
1761315640042535000,5.016534912109375,0.3191375732421875,0.278961181640625,0.2257232666015625
1761315640052582000,5.026581787109375,0.3850860595703125,0.2791748046875,0.280548095703125
1761315640062630000,5.0366298828125,0.477020263671875,0.2104644775390625,0.3046112060546875
1761315640072676900,5.0466767578125,0.56903076171875,0.1566619873046875,0.306488037109375
1761315640082724900,5.056724853515625,0.634429931640625,0.1550750732421875,0.31304931640625
1761315640092771800,5.066771728515625,0.6476287841796875,0.1563568115234375,0.336273193359375
1761315640102819000,5.076819091796875,0.6491851806640625,0.1808013916015625,0.34185791015625
1761315640112866800,5.08686669921875,0.6236724853515625,0.2245025634765625,0.3355865478515625
1761315640122913800,5.096913818359375,0.57916259765625,0.231842041015625,0.3267974853515625
1761315640132961800,5.1069619140625,0.4873199462890625,0.2354736328125,0.2909088134765625
1761315640143009000,5.117009033203125,0.372772216796875,0.3137359619140625,0.2478485107421875
1761315640153056800,5.127056884765625,0.23016357421875,0.39984130859375,0.2221527099609375
1761315640163103700,5.137103759765625,0.0603790283203125,0.4335784912109375,0.2299957275390625
1761315640173150700,5.147150634765625,-0.1067352294921875,0.3879547119140625,0.23944091796875
1761315640183199000,5.157198974609375,-0.21954345703125,0.278961181640625,0.204559326171875
1761315640193246000,5.167245849609375,-0.3070831298828125,0.1710968017578125,0.1291046142578125
1761315640203293700,5.177293701171875,-0.3879241943359375,0.0658721923828125,0.02569580078125
1761315640213340700,5.187340576171875,-0.495330810546875,-0.0203094482421875,-0.0894317626953125
1761315640223388000,5.197387939453125,-0.65069580078125,-0.0931396484375,-0.18865966796875
1761315640233436000,5.207435791015625,-0.8614349365234375,-0.2148590087890625,-0.2082061767578125
1761315640243483000,5.21748291015625,-1.169342041015625,-0.4296112060546875,-0.1639404296875
1761315640253530600,5.227530517578125,-1.571075439453125,-0.7524261474609375,-0.073150634765625
1761315640263577900,5.237577880859375,-2.0137481689453125,-1.1537628173828125,0.00701904296875
1761315640273624800,5.247624755859375,-2.3744659423828125,-1.402069091796875,0.029388427734375
1761315640283672800,5.2576728515625,-2.5554656982421875,-1.4608001708984375,0.0737152099609375
1761315640293719800,5.2677197265625,-2.6874237060546875,-1.671600341796875,0.2020111083984375
1761315640303767800,5.277767822265625,-2.80072021484375,-1.67498779296875,0.1135406494140625
1761315640313814800,5.287814697265625,-2.717926025390625,-1.260223388671875,-0.132110595703125
1761315640323861800,5.29786181640625,-2.621551513671875,-1.1085968017578125,-0.2518463134765625
1761315640333909800,5.30790966796875,-2.5485382080078125,-1.2188873291015625,-0.2994537353515625
1761315640343957000,5.31795703125,-2.4723663330078125,-1.3124847412109375,-0.386932373046875
1761315640354004700,5.328004638671875,-2.3338470458984375,-1.32281494140625,-0.4693603515625
1761315640364051700,5.3380517578125,-2.2392730712890625,-1.3354949951171875,-0.5127410888671875
1761315640374100000,5.348099853515625,-2.151519775390625,-1.251495361328125,-0.5474700927734375
1761315640384147000,5.35814697265625,-2.044586181640625,-1.0076141357421875,-0.5277557373046875
1761315640394194000,5.36819384765625,-1.90130615234375,-0.7507476806640625,-0.4083404541015625
1761315640404242000,5.378241943359375,-1.6706390380859375,-0.5522003173828125,-0.25616455078125
1761315640414288600,5.38828857421875,-1.38037109375,-0.3932037353515625,-0.125762939453125
1761315640424337000,5.3983369140625,-1.0670013427734375,-0.2815093994140625,-0.0251617431640625
1761315640434384000,5.4083837890625,-0.762603759765625,-0.195556640625,0.0289459228515625
1761315640444430800,5.418430908203125,-0.4788360595703125,-0.1277618408203125,0.0604705810546875
1761315640454478800,5.428478759765625,-0.2163543701171875,-0.084136962890625,0.06982421875
1761315640464525800,5.43852587890625,0.0193939208984375,-0.0459136962890625,0.0629730224609375
1761315640474573800,5.44857373046875,0.19091796875,-0.0144195556640625,0.052825927734375
1761315640484620800,5.458620849609375,0.29327392578125,0.00860595703125,0.05267333984375
1761315640494667800,5.468667724609375,0.3361358642578125,0.016815185546875,0.0577392578125
1761315640504716000,5.478716064453125,0.3428192138671875,0.01458740234375,0.0638885498046875
1761315640514762800,5.4887626953125,0.345123291015625,0.0364532470703125,0.0606842041015625
1761315640524810800,5.498810791015625,0.341156005859375,0.0647125244140625,0.0486297607421875
1761315640534857700,5.508857666015625,0.3167266845703125,0.076934814453125,0.0406951904296875
1761315640544907800,5.51890771484375,0.321929931640625,0.0869140625,0.0281219482421875
1761315640554956000,5.5289560546875,0.357666015625,0.1339874267578125,0.0209503173828125
1761315640565003000,5.5390029296875,0.3836822509765625,0.215484619140625,0.0318145751953125
1761315640575050000,5.549050048828125,0.4528350830078125,0.3228607177734375,0.0584869384765625
1761315640585097700,5.55909765625,0.50018310546875,0.414764404296875,0.1077728271484375
1761315640595144700,5.569144775390625,0.51812744140625,0.460418701171875,0.1306304931640625
1761315640605193000,5.57919287109375,0.57501220703125,0.4777374267578125,0.1203155517578125
1761315640615240000,5.589239990234375,0.6368408203125,0.490478515625,0.1213531494140625
1761315640625287700,5.59928759765625,0.7113494873046875,0.5503082275390625,0.162750244140625
1761315640635335000,5.6093349609375,0.8079681396484375,0.585845947265625,0.2603607177734375
1761315640645382000,5.6193818359375,0.80804443359375,0.5853271484375,0.4061279296875
1761315640655430000,5.629429931640625,0.6785430908203125,0.49737548828125,0.5297088623046875
1761315640665476900,5.639476806640625,0.518951416015625,0.307403564453125,0.5303497314453125
1761315640675524900,5.64952490234375,0.3187713623046875,0.134033203125,0.39532470703125
1761315640685571800,5.65957177734375,0.1464385986328125,-0.03607177734375,0.22149658203125
1761315640695618800,5.669618896484375,-0.1442108154296875,-0.3404083251953125,0.146942138671875
1761315640705666800,5.679666748046875,-0.55010986328125,-0.860931396484375,0.2146759033203125
1761315640715713000,5.689713134765625,-1.0604705810546875,-1.462188720703125,0.1548614501953125
1761315640725761300,5.69976123046875,-1.4788665771484375,-1.1915740966796875,-0.419036865234375
1761315640735808300,5.709808349609375,-1.9176177978515625,-0.6721954345703125,-1.1216888427734375
1761315640745855000,5.71985498046875,-2.596343994140625,-0.5121612548828125,-1.56011962890625
1761315640755903000,5.729903076171875,-3.34088134765625,-0.5350341796875,-1.67974853515625
1761315640765950200,5.7399501953125,-3.9664154052734375,-0.663299560546875,-1.5327606201171875
1761315640775998200,5.749998291015625,-4.4288177490234375,-0.8633880615234375,-1.2223663330078125
1761315640786045200,5.760045166015625,-4.6208953857421875,-1.0616607666015625,-0.927001953125
1761315640796092200,5.770092041015625,-4.5542449951171875,-1.08062744140625,-0.764678955078125
1761315640806140200,5.78014013671875,-4.443359375,-1.03466796875,-0.5881805419921875
1761315640816187100,5.790187255859375,-4.2870941162109375,-1.0075225830078125,-0.4078369140625
1761315640826235100,5.800235107421875,-4.0590057373046875,-0.88958740234375,-0.36785888671875
1761315640836282000,5.8102822265625,-3.7099151611328125,-0.7596588134765625,-0.4041595458984375
1761315640846329000,5.8203291015625,-3.27197265625,-0.67291259765625,-0.4579010009765625
1761315640856377000,5.830377197265625,-2.808013916015625,-0.5975189208984375,-0.4502105712890625
1761315640866424000,5.840424072265625,-2.4114227294921875,-0.520965576171875,-0.38897705078125
1761315640876472000,5.85047216796875,-2.061859130859375,-0.4429168701171875,-0.30780029296875
1761315640886519300,5.860519287109375,-1.733612060546875,-0.35400390625,-0.24749755859375
1761315640896566300,5.870566162109375,-1.34576416015625,-0.235748291015625,-0.248565673828125
1761315640906614000,5.880614013671875,-0.8954010009765625,-0.1378631591796875,-0.27801513671875
1761315640916661000,5.890660888671875,-0.445648193359375,-0.0569305419921875,-0.2836456298828125
1761315640926709200,5.900709228515625,-0.0943603515625,-0.00408935546875,-0.2120819091796875
1761315640936756200,5.910756103515625,0.15240478515625,0.059051513671875,-0.1004180908203125
1761315640946803200,5.92080322265625,0.3691864013671875,0.1126556396484375,0.0253753662109375
1761315640956851000,5.930850830078125,0.5486907958984375,0.1535186767578125,0.1241302490234375
1761315640966898200,5.940898193359375,0.69940185546875,0.2241058349609375,0.199554443359375
1761315640976946200,5.9509462890625,0.8180389404296875,0.3082122802734375,0.2434234619140625
1761315640986993200,5.9609931640625,0.912384033203125,0.3820648193359375,0.2754669189453125
1761315640997041200,5.971041259765625,0.970733642578125,0.4136810302734375,0.293304443359375
1761315641007088000,5.981088134765625,1.014801025390625,0.4861907958984375,0.3028106689453125
1761315641017135000,5.991135009765625,1.034759521484375,0.561920166015625,0.33453369140625
1761315641027183000,6.00118310546875,0.9980621337890625,0.559783935546875,0.4037628173828125
1761315641037230000,6.01122998046875,0.907867431640625,0.498504638671875,0.497528076171875
1761315641047278000,6.021278076171875,0.8029327392578125,0.3936767578125,0.5731201171875
1761315641057325000,6.031324951171875,0.703399658203125,0.28546142578125,0.577667236328125
1761315641067372000,6.0413720703125,0.6005859375,0.2659149169921875,0.50665283203125
1761315641077420000,6.051419921875,0.4583892822265625,0.3211822509765625,0.3936614990234375
1761315641087467300,6.06146728515625,0.2602996826171875,0.3506622314453125,0.304656982421875
1761315641097515000,6.071514892578125,0.04254150390625,0.26123046875,0.2482147216796875
1761315641107562000,6.08156201171875,-0.1351470947265625,0.1037139892578125,0.1875457763671875
1761315641117609000,6.09160888671875,-0.2391204833984375,-0.075592041015625,0.092376708984375
1761315641127657200,6.1016572265625,-0.307373046875,-0.298614501953125,0.003082275390625
1761315641137704200,6.1117041015625,-0.3896331787109375,-0.441497802734375,-0.14337158203125
1761315641147752000,6.121751953125,-0.5295867919921875,-0.4692840576171875,-0.278839111328125
1761315641157799000,6.131798828125,-0.7748565673828125,-0.7226104736328125,-0.2862548828125
1761315641167846100,6.14184619140625,-1.063201904296875,-0.982696533203125,-0.2708282470703125
1761315641177894100,6.15189404296875,-1.26239013671875,-0.939727783203125,-0.29180908203125
1761315641187941000,6.161941162109375,-1.4414520263671875,-0.889617919921875,-0.262298583984375
1761315641197989000,6.171989013671875,-1.7080078125,-0.9433746337890625,-0.143310546875
1761315641208036000,6.1820361328125,-1.9445343017578125,-0.8814239501953125,-0.0369110107421875
1761315641218083000,6.1920830078125,-2.118316650390625,-0.779632568359375,0.0565643310546875
1761315641228131000,6.202131103515625,-2.1705474853515625,-0.8391265869140625,0.11187744140625
1761315641238178000,6.212177978515625,-2.1435699462890625,-0.8678741455078125,-0.0056610107421875
1761315641248226000,6.22222607421875,-2.041595458984375,-0.8281097412109375,-0.2130279541015625
1761315641258273000,6.23227294921875,-1.906097412109375,-0.854705810546875,-0.343658447265625
1761315641268320000,6.242320068359375,-1.824462890625,-0.952850341796875,-0.3762664794921875
1761315641278368000,6.252367919921875,-1.8096923828125,-1.0490875244140625,-0.31085205078125
1761315641288415200,6.262415283203125,-1.8353271484375,-1.13616943359375,-0.1802978515625
1761315641298463200,6.272463134765625,-1.806793212890625,-1.1734161376953125,-0.0802154541015625
1761315641308510000,6.282510009765625,-1.6946563720703125,-1.1385498046875,-0.0450592041015625
1761315641318557000,6.292556884765625,-1.53704833984375,-1.095611572265625,-0.0446319580078125
1761315641328605200,6.302605224609375,-1.375762939453125,-1.0295867919921875,-0.0503692626953125
1761315641338652200,6.312652099609375,-1.220306396484375,-0.935150146484375,-0.048370361328125
1761315641348700200,6.3227001953125,-1.0867767333984375,-0.830535888671875,-0.064727783203125
1761315641358747000,6.332746826171875,-0.9815826416015625,-0.7206878662109375,-0.0698394775390625
1761315641368794000,6.342794189453125,-0.8994140625,-0.6476898193359375,-0.073455810546875
1761315641378842000,6.352842041015625,-0.823577880859375,-0.5886383056640625,-0.084625244140625
1761315641388889000,6.36288916015625,-0.7659454345703125,-0.5365142822265625,-0.0954742431640625
1761315641398937300,6.372937255859375,-0.727081298828125,-0.4987030029296875,-0.09014892578125
1761315641408984000,6.382984130859375,-0.688201904296875,-0.4671173095703125,-0.0768890380859375
1761315641419031000,6.393031005859375,-0.638580322265625,-0.438812255859375,-0.0611724853515625
1761315641429079000,6.4030791015625,-0.5992279052734375,-0.40972900390625,-0.03814697265625
1761315641439126000,6.4131259765625,-0.570648193359375,-0.390167236328125,-0.019622802734375
1761315641449174300,6.42317431640625,-0.527008056640625,-0.3757476806640625,0.01324462890625
1761315641459221200,6.43322119140625,-0.4944915771484375,-0.3661651611328125,0.0571136474609375
1761315641469269000,6.44326904296875,-0.4326171875,-0.3644866943359375,0.09307861328125
1761315641479316000,6.45331591796875,-0.3666839599609375,-0.350433349609375,0.1149749755859375
1761315641489363200,6.46336328125,-0.2949676513671875,-0.3310699462890625,0.1045074462890625
1761315641499411200,6.4734111328125,-0.22509765625,-0.31787109375,0.07257080078125
1761315641509458200,6.483458251953125,-0.190948486328125,-0.3030242919921875,0.0526885986328125
1761315641519505000,6.4935048828125,-0.1745452880859375,-0.29278564453125,0.042999267578125
1761315641529553200,6.50355322265625,-0.16900634765625,-0.2730712890625,0.0377044677734375
1761315641539600100,6.51360009765625,-0.1640472412109375,-0.2516326904296875,0.044036865234375
1761315641549648100,6.523648193359375,-0.1705474853515625,-0.260498046875,0.055633544921875
1761315641559695000,6.533695068359375,-0.1681671142578125,-0.2930908203125,0.0592041015625
1761315641569743000,6.5437431640625,-0.161346435546875,-0.329193115234375,0.0659332275390625
1761315641579790000,6.5537900390625,-0.1592559814453125,-0.3381805419921875,0.06951904296875
1761315641589837000,6.563837158203125,-0.1322174072265625,-0.354888916015625,0.0509185791015625
1761315641599885300,6.57388525390625,-0.098236083984375,-0.43505859375,0.009368896484375
1761315641609932300,6.583932373046875,-0.0570068359375,-0.593505859375,-0.030609130859375
1761315641619979300,6.593979248046875,-0.08636474609375,-0.7989959716796875,-0.05755615234375
1761315641630027000,6.604027099609375,-0.196563720703125,-1.031463623046875,-0.0588226318359375
1761315641640074000,6.614073974609375,-0.4100341796875,-1.247589111328125,-0.0264434814453125
1761315641650122200,6.624122314453125,-0.817230224609375,-1.2933502197265625,-0.0105743408203125
1761315641660169200,6.634169189453125,-1.323974609375,-1.2720794677734375,0.039947509765625
1761315641670217000,6.644217041015625,-1.7733306884765625,-1.2943878173828125,0.0581512451171875
1761315641680264000,6.654263916015625,-2.0936279296875,-1.2652740478515625,0.0027923583984375
1761315641690311200,6.664311279296875,-2.19976806640625,-1.28302001953125,-0.05389404296875
1761315641700359200,6.674359130859375,-2.271728515625,-1.2912750244140625,-0.0936126708984375
1761315641710407200,6.6844072265625,-2.32037353515625,-1.2538909912109375,-0.080841064453125
1761315641720455200,6.694455078125,-2.2678985595703125,-1.24884033203125,-0.037353515625
1761315641730502100,6.704502197265625,-2.113006591796875,-1.2367706298828125,-0.0536651611328125
1761315641740549400,6.71454931640625,-1.889312744140625,-1.222747802734375,-0.09613037109375
1761315641750597000,6.72459716796875,-1.6429443359375,-1.2317047119140625,-0.1163787841796875
1761315641760644000,6.73464404296875,-1.3484954833984375,-1.245391845703125,-0.1437835693359375
1761315641770691000,6.744691162109375,-1.039886474609375,-1.2355194091796875,-0.170989990234375
1761315641780739300,6.7547392578125,-0.775115966796875,-1.1782989501953125,-0.1533660888671875
1761315641790786300,6.764786376953125,-0.5701446533203125,-1.1284027099609375,-0.0946502685546875
1761315641800834300,6.774834228515625,-0.3848114013671875,-1.076019287109375,-0.0275421142578125
1761315641810881000,6.784881103515625,-0.2256011962890625,-0.9896392822265625,0.0311737060546875
1761315641820929300,6.79492919921875,-0.1131744384765625,-0.8885650634765625,0.0734100341796875
1761315641830976300,6.804976318359375,-0.0313568115234375,-0.7571258544921875,0.09332275390625
1761315641841023200,6.815023193359375,0.041015625,-0.5734710693359375,0.070037841796875
1761315641851071200,6.8250712890625,0.1194000244140625,-0.340423583984375,-0.0073699951171875
1761315641861118200,6.8351181640625,0.204559326171875,-0.094940185546875,-0.1008453369140625
1761315641871166200,6.845166259765625,0.2729644775390625,0.116180419921875,-0.1717529296875
1761315641881213200,6.855213134765625,0.3194427490234375,0.2708740234375,-0.1919708251953125
1761315641891260200,6.86526025390625,0.3362579345703125,0.361480712890625,-0.164825439453125
1761315641901308400,6.875308349609375,0.3567657470703125,0.402587890625,-0.0951995849609375
1761315641911355100,6.885355224609375,0.4000701904296875,0.407073974609375,-0.061767578125
1761315641921403100,6.895403076171875,0.4748687744140625,0.4647216796875,-0.0544281005859375
1761315641931450000,6.9054501953125,0.5404052734375,0.5228271484375,-0.0467071533203125
1761315641941497300,6.915497314453125,0.5700836181640625,0.5139007568359375,-0.00958251953125
1761315641951545300,6.92554541015625,0.5776824951171875,0.4680633544921875,0.039276123046875
1761315641961592300,6.93559228515625,0.60943603515625,0.4061126708984375,0.083984375
1761315641971639000,6.94563916015625,0.616455078125,0.3586883544921875,0.1430206298828125
1761315641981687300,6.955687255859375,0.59454345703125,0.3054656982421875,0.1955718994140625
1761315641991734300,6.965734375,0.583831787109375,0.25433349609375,0.23602294921875
1761315642001782300,6.9757822265625,0.5939788818359375,0.30694580078125,0.2194976806640625
1761315642011829200,6.985829345703125,0.5391845703125,0.3410491943359375,0.2153472900390625
1761315642021877200,6.995877197265625,0.448577880859375,0.2983856201171875,0.2214508056640625
1761315642031924200,7.00592431640625,0.3248291015625,0.2428436279296875,0.231597900390625
1761315642041971200,7.01597119140625,0.143798828125,0.2297210693359375,0.2130279541015625
1761315642052019200,7.026019287109375,-0.0225067138671875,0.1999664306640625,0.1890411376953125
1761315642062066400,7.03606640625,-0.1384735107421875,0.1104736328125,0.194488525390625
1761315642072113200,7.046113037109375,-0.2485809326171875,0.005157470703125,0.2341766357421875
1761315642082161200,7.0561611328125,-0.3635711669921875,-0.097930908203125,0.2783660888671875
1761315642092208000,7.0662080078125,-0.4716949462890625,-0.2397003173828125,0.3032379150390625
1761315642102256400,7.07625634765625,-0.65631103515625,-0.388427734375,0.2350311279296875
1761315642112303400,7.086303466796875,-0.912353515625,-0.4600372314453125,0.021759033203125
1761315642122350300,7.096350341796875,-1.122039794921875,-0.398529052734375,-0.4024658203125
1761315642132398000,7.106398193359375,-1.3873748779296875,-0.1779327392578125,-0.9565887451171875
1761315642142445300,7.1164453125,-1.785797119140625,0.1021881103515625,-1.532958984375
1761315642152493300,7.126493408203125,-2.2771759033203125,0.3674468994140625,-1.9731597900390625
1761315642162540300,7.136540283203125,-3.027923583984375,0.660614013671875,-2.1879730224609375
1761315642172587300,7.146587158203125,-3.8887176513671875,0.95892333984375,-2.177490234375
1761315642182635300,7.15663525390625,-4.7093353271484375,1.2010955810546875,-2.0475921630859375
1761315642192682200,7.16668212890625,-5.24090576171875,1.3911590576171875,-1.8911895751953125
1761315642202730200,7.176730224609375,-5.3759002685546875,1.48260498046875,-1.7557220458984375
1761315642212777200,7.186777099609375,-5.1800994873046875,1.4479522705078125,-1.65472412109375
1761315642222824400,7.196824462890625,-4.761932373046875,1.2236175537109375,-1.50457763671875
1761315642232872200,7.2068720703125,-4.1461029052734375,0.757568359375,-1.2620391845703125
1761315642242919200,7.216919189453125,-3.4766082763671875,0.2691650390625,-1.115966796875
1761315642252967200,7.22696728515625,-2.79534912109375,-0.0666046142578125,-1.0540313720703125
1761315642263014400,7.237014404296875,-2.1777496337890625,-0.3144378662109375,-0.95123291015625
1761315642273061400,7.247061279296875,-1.6626129150390625,-0.465423583984375,-0.8191070556640625
1761315642283109000,7.257109130859375,-1.281463623046875,-0.507293701171875,-0.6859588623046875
1761315642293156000,7.267156005859375,-0.9941864013671875,-0.498809814453125,-0.529693603515625
1761315642303204400,7.277204345703125,-0.767486572265625,-0.46832275390625,-0.367828369140625
1761315642313251300,7.287251220703125,-0.5776214599609375,-0.4061279296875,-0.2188568115234375
1761315642323298300,7.29729833984375,-0.36065673828125,-0.314788818359375,-0.08966064453125
1761315642333346000,7.307345947265625,-0.079376220703125,-0.221405029296875,0.00115966796875
1761315642343393300,7.317393310546875,0.1907501220703125,-0.148681640625,0.063812255859375
1761315642353441300,7.327441162109375,0.408050537109375,-0.0967864990234375,0.152862548828125
1761315642363488300,7.33748828125,0.54815673828125,-0.0848541259765625,0.23919677734375
1761315642373535200,7.34753515625,0.642486572265625,-0.082855224609375,0.321136474609375
1761315642383583200,7.357583251953125,0.670166015625,-0.063690185546875,0.3587188720703125
1761315642393630200,7.367630126953125,0.6613006591796875,-0.000640869140625,0.3882293701171875
1761315642403678200,7.37767822265625,0.6345367431640625,0.0887603759765625,0.430511474609375
1761315642413725200,7.38772509765625,0.598052978515625,0.1816253662109375,0.47332763671875
1761315642423772400,7.3977724609375,0.5325164794921875,0.25439453125,0.5267181396484375
1761315642433820200,7.407820068359375,0.4899444580078125,0.3061981201171875,0.57177734375
1761315642443867100,7.4178671875,0.4797210693359375,0.401153564453125,0.5911102294921875
1761315642453915100,7.4279150390625,0.43890380859375,0.5124969482421875,0.6100006103515625
1761315642463962400,7.43796240234375,0.3796539306640625,0.5697174072265625,0.639984130859375
1761315642474009300,7.44800927734375,0.3621063232421875,0.59967041015625,0.6572113037109375
1761315642484057000,7.45805712890625,0.3198394775390625,0.6550750732421875,0.651214599609375
1761315642494104000,7.46810400390625,0.2207794189453125,0.6212158203125,0.655975341796875
1761315642504152300,7.47815234375,0.1718902587890625,0.4915008544921875,0.61492919921875
1761315642514199300,7.48819921875,0.190826416015625,0.3908233642578125,0.50390625
1761315642524246300,7.498246337890625,0.1713104248046875,0.282928466796875,0.3470001220703125
1761315642534294000,7.5082939453125,0.112762451171875,0.072662353515625,0.19781494140625
1761315642544341200,7.51834130859375,-0.05023193359375,-0.2533416748046875,0.05206298828125
1761315642554389200,7.52838916015625,-0.34033203125,-0.5112762451171875,-0.1350250244140625
1761315642564436200,7.538436279296875,-0.599945068359375,-0.7096099853515625,-0.347747802734375
1761315642574483200,7.548483154296875,-0.864227294921875,-0.923583984375,-0.5280914306640625
1761315642584531200,7.55853125,-1.2138214111328125,-1.042724609375,-0.7288970947265625
1761315642594578200,7.568578125,-1.5427703857421875,-1.02630615234375,-1.0148773193359375
1761315642604626200,7.578626220703125,-1.8877105712890625,-0.9847564697265625,-1.3929901123046875
1761315642614673200,7.588673095703125,-2.3740386962890625,-0.8128509521484375,-1.6850433349609375
1761315642624720400,7.598720458984375,-2.8067169189453125,-0.7409515380859375,-1.8925018310546875
1761315642634768100,7.60876806640625,-3.213226318359375,-0.848419189453125,-1.99322509765625
1761315642644815000,7.618815185546875,-3.480133056640625,-0.8902587890625,-2.0323486328125
1761315642654862000,7.628862060546875,-3.5538177490234375,-0.933013916015625,-2.001556396484375
1761315642664910300,7.638910400390625,-3.5605010986328125,-0.930999755859375,-1.8270263671875
1761315642674957300,7.648957275390625,-3.423095703125,-0.9348907470703125,-1.5456085205078125
1761315642685005300,7.65900537109375,-3.167816162109375,-0.977508544921875,-1.2465972900390625
1761315642695052000,7.669052001953125,-2.8358154296875,-0.9850921630859375,-1.0054931640625
1761315642705099300,7.679099365234375,-2.4975738525390625,-0.9281463623046875,-0.861297607421875
1761315642715146000,7.68914599609375,-2.1466064453125,-0.8000030517578125,-0.7906036376953125
1761315642725193200,7.699193115234375,-1.7798004150390625,-0.679229736328125,-0.72271728515625
1761315642735241200,7.7092412109375,-1.3974761962890625,-0.58575439453125,-0.599578857421875
1761315642745288200,7.7192880859375,-1.0715789794921875,-0.503143310546875,-0.463775634765625
1761315642755335200,7.729335205078125,-0.7679595947265625,-0.421295166015625,-0.333587646484375
1761315642765383200,7.739383056640625,-0.4862823486328125,-0.3194580078125,-0.1947174072265625
1761315642775430100,7.74943017578125,-0.2353363037109375,-0.227264404296875,-0.058074951171875
1761315642785478100,7.75947802734375,-0.017120361328125,-0.1366424560546875,0.0396881103515625
1761315642795525000,7.769525146484375,0.1652069091796875,-0.062835693359375,0.1258087158203125
1761315642805572000,7.779572021484375,0.31195068359375,-0.0265350341796875,0.21392822265625
1761315642815620000,7.7896201171875,0.39471435546875,-0.0120849609375,0.2769775390625
1761315642825667000,7.7996669921875,0.4435272216796875,0.00701904296875,0.300323486328125
1761315642835715000,7.809715087890625,0.4699249267578125,0.041778564453125,0.3069915771484375
1761315642845762300,7.81976220703125,0.49835205078125,0.05987548828125,0.3131866455078125
1761315642855809300,7.829809326171875,0.5241851806640625,0.0682373046875,0.3277740478515625
1761315642865857000,7.83985693359375,0.535003662109375,0.0756378173828125,0.36041259765625
1761315642875904000,7.849904052734375,0.5348358154296875,0.073089599609375,0.3924102783203125
1761315642885952300,7.8599521484375,0.5348968505859375,0.07391357421875,0.4248809814453125
1761315642895999200,7.869999267578125,0.5236968994140625,0.0897369384765625,0.4604034423828125
1761315642906046200,7.880046142578125,0.4787750244140625,0.0981903076171875,0.4688873291015625
1761315642916094000,7.890093994140625,0.433074951171875,0.0948638916015625,0.4580078125
1761315642926141200,7.90014111328125,0.3943939208984375,0.0908050537109375,0.42388916015625
1761315642936189200,7.910189208984375,0.3496856689453125,0.0991363525390625,0.373138427734375
1761315642946236200,7.920236083984375,0.312103271484375,0.10162353515625,0.34014892578125
1761315642956283100,7.930283203125,0.293121337890625,0.05059814453125,0.3546295166015625
1761315642966331100,7.9403310546875,0.248565673828125,-0.04150390625,0.3874053955078125
1761315642976378000,7.950378173828125,0.2113494873046875,-0.11944580078125,0.4290924072265625
1761315642986425000,7.960425048828125,0.17388916015625,-0.1878509521484375,0.461456298828125
1761315642996473000,7.97047314453125,0.1349334716796875,-0.2816314697265625,0.4958343505859375
1761315643006520000,7.98052001953125,0.071685791015625,-0.4380035400390625,0.51690673828125
1761315643016568000,7.990568115234375,-0.039886474609375,-0.641082763671875,0.485809326171875
1761315643026615000,8.000614990234375,-0.1719207763671875,-0.8303680419921875,0.3556976318359375
1761315643036662000,8.010662109375,-0.422149658203125,-0.9119415283203125,0.05780029296875
1761315643046710300,8.020710205078124,-0.8319854736328125,-0.7999725341796875,-0.36181640625
1761315643056757200,8.03075732421875,-1.404571533203125,-0.6236114501953125,-0.8809814453125
1761315643066805200,8.04080517578125,-2.152130126953125,-0.4087371826171875,-1.3946380615234375
1761315643076852000,8.05085205078125,-3.0767974853515625,-0.2689361572265625,-1.700469970703125
1761315643086899000,8.06089892578125,-3.9553375244140625,-0.287078857421875,-1.8032684326171875
1761315643096947200,8.070947265625,-4.5323028564453125,-0.2962188720703125,-1.8409881591796875
1761315643106994200,8.080994140625,-4.8954620361328125,-0.251739501953125,-1.7542724609375
1761315643117042200,8.091042236328125,-4.8558197021484375,-0.362884521484375,-1.528961181640625
1761315643127089200,8.101089111328125,-4.509002685546875,-0.6128997802734375,-1.181671142578125
1761315643137136000,8.11113623046875,-3.89984130859375,-0.8844146728515625,-0.8320159912109375
1761315643147184000,8.12118408203125,-3.121185302734375,-1.0809478759765625,-0.608734130859375
1761315643157231000,8.131231201171875,-2.3028717041015625,-1.19757080078125,-0.54864501953125
1761315643167279400,8.141279296875,-1.5905303955078125,-1.1920928955078125,-0.5672760009765625
1761315643177326000,8.151326171875,-1.0718994140625,-1.1549072265625,-0.56365966796875
1761315643187373000,8.161373046875,-0.7389984130859375,-1.0729217529296875,-0.5471038818359375
1761315643197421000,8.171421142578126,-0.5229339599609375,-0.91827392578125,-0.5072021484375
1761315643207468000,8.181468017578124,-0.3768157958984375,-0.7661285400390625,-0.4376983642578125
1761315643217516300,8.191516357421875,-0.2385406494140625,-0.6065673828125,-0.359527587890625
1761315643227563300,8.201563232421876,-0.1109466552734375,-0.44158935546875,-0.3108062744140625
1761315643237610000,8.21160986328125,-0.002532958984375,-0.302215576171875,-0.2584228515625
1761315643247658200,8.221658203125,0.0716094970703125,-0.1935577392578125,-0.212066650390625
1761315643257705200,8.231705322265626,0.14056396484375,-0.102874755859375,-0.17901611328125
1761315643267752200,8.241752197265624,0.21051025390625,-0.0161590576171875,-0.1519775390625
1761315643277800200,8.25180029296875,0.265655517578125,0.084869384765625,-0.1574554443359375
1761315643287847200,8.26184716796875,0.322113037109375,0.245758056640625,-0.2082061767578125
1761315643297895200,8.271895263671874,0.385986328125,0.490814208984375,-0.28363037109375
1761315643307942100,8.281942138671875,0.4989776611328125,0.7303924560546875,-0.355682373046875
1761315643317989000,8.291989013671875,0.679656982421875,0.9117889404296875,-0.3171844482421875
1761315643328037400,8.302037353515624,0.816986083984375,0.9348297119140625,-0.1764373779296875
1761315643338084000,8.312083984375,0.92437744140625,0.7061920166015625,0.0966796875
1761315643348132000,8.322132080078125,1.058258056640625,0.59039306640625,0.358612060546875
1761315643358179000,8.332178955078126,1.135009765625,0.6352996826171875,0.5392913818359375
1761315643368226000,8.34222607421875,1.1678619384765625,0.6092529296875,0.6982269287109375
1761315643378274300,8.3522744140625,1.10321044921875,0.501739501953125,0.8278350830078125
1761315643388321300,8.3623212890625,0.99871826171875,0.4809417724609375,0.8649749755859375
1761315643398369000,8.372369140625,0.8825225830078125,0.465667724609375,0.844696044921875
1761315643408416000,8.382416015625,0.6832275390625,0.3448638916015625,0.80828857421875
1761315643418463200,8.392463134765626,0.4888916015625,0.0856781005859375,0.8167724609375
1761315643428511200,8.40251123046875,0.22015380859375,-0.23797607421875,0.831329345703125
1761315643438558200,8.41255810546875,-0.135498046875,-0.5619964599609375,0.6897430419921875
1761315643448606200,8.422606201171876,-0.472869873046875,-0.639251708984375,0.2061614990234375
1761315643458653200,8.432653076171874,-0.777557373046875,-0.4305267333984375,-0.629852294921875
1761315643468700200,8.4427001953125,-1.0655517578125,-0.163055419921875,-1.5705413818359375
1761315643478748200,8.452748046875,-1.4212188720703125,0.2099609375,-2.3743438720703125
1761315643488795100,8.462795166015624,-1.8798065185546875,0.527130126953125,-2.8791351318359375
1761315643498842000,8.472842041015625,-2.6532135009765625,0.694366455078125,-2.89959716796875
1761315643508890000,8.48289013671875,-3.3097991943359375,0.7054595947265625,-2.3985595703125
1761315643518937000,8.49293701171875,-3.8151702880859375,0.4165496826171875,-1.7184906005859375
1761315643528985300,8.5029853515625,-3.9376983642578125,0.1125946044921875,-1.213958740234375
1761315643539032300,8.5130322265625,-3.6682891845703125,-0.0194244384765625,-0.87042236328125
1761315643549079300,8.523079345703126,-3.2384490966796875,-0.0699310302734375,-0.6910247802734375
1761315643559127000,8.533126953125,-2.7006072998046875,-0.1213226318359375,-0.6028594970703125
1761315643569174000,8.543174072265625,-2.1128997802734375,-0.2490386962890625,-0.5348052978515625
1761315643579222300,8.55322216796875,-1.544769287109375,-0.3368988037109375,-0.5466766357421875
1761315643589269200,8.563269287109375,-0.9763946533203125,-0.2943572998046875,-0.6202545166015625
1761315643599316200,8.573316162109375,-0.5499420166015625,-0.220977783203125,-0.591766357421875
1761315643609364000,8.583364013671876,-0.2950592041015625,-0.229888916015625,-0.5154266357421875
1761315643619411200,8.5934111328125,-0.25445556640625,-0.319427490234375,-0.4534759521484375
1761315643629458200,8.603458251953125,-0.303863525390625,-0.3162689208984375,-0.3415069580078125
1761315643639506200,8.613506103515626,-0.4552001953125,-0.2465972900390625,-0.2790374755859375
1761315643649553200,8.62355322265625,-0.6781005859375,-0.2247161865234375,-0.251739501953125
1761315643659601200,8.63360107421875,-0.8021240234375,-0.142913818359375,-0.24591064453125
1761315643669648100,8.643648193359375,-0.9756927490234375,-0.0135040283203125,-0.22930908203125
1761315643679695000,8.653695068359376,-1.1014404296875,0.045135498046875,-0.21697998046875
1761315643689743000,8.6637431640625,-1.13690185546875,0.0506134033203125,-0.196624755859375
1761315643699790300,8.673790283203125,-1.0715789794921875,0.0508575439453125,-0.194671630859375
1761315643709838800,8.6838388671875,-0.9302978515625,0.0664825439453125,-0.21966552734375
1761315643719885800,8.6938857421875,-0.7763824462890625,0.0837554931640625,-0.27288818359375
1761315643729932800,8.703932861328125,-0.6862335205078125,0.101409912109375,-0.3253021240234375
1761315643739981000,8.71398095703125,-0.587738037109375,0.1091156005859375,-0.31854248046875
1761315643750027800,8.72402783203125,-0.58148193359375,0.095611572265625,-0.2921142578125
1761315643760075800,8.73407568359375,-0.668212890625,0.0431060791015625,-0.2639312744140625
1761315643770122800,8.744122802734376,-0.709564208984375,-0.0311126708984375,-0.2259063720703125
1761315643780170000,8.754169921875,-0.7672882080078125,-0.0771942138671875,-0.2119140625
1761315643790218000,8.764218017578125,-0.700164794921875,-0.0608978271484375,-0.2425689697265625
1761315643800265000,8.774264892578126,-0.732330322265625,-0.0197906494140625,-0.3076324462890625
1761315643810312700,8.784312744140625,-0.8349456787109375,-0.141845703125,-0.2322540283203125
1761315643820360000,8.79435986328125,-0.9202880859375,-0.33758544921875,-0.1566162109375
1761315643830407000,8.804406982421876,-1.0381622314453125,-0.36663818359375,-0.139892578125
1761315643840455000,8.814454833984374,-1.240020751953125,-0.274749755859375,-0.2032012939453125
1761315643850502000,8.824501953125,-1.5102996826171875,-0.1551971435546875,-0.3361358642578125
1761315643860548900,8.834548828125,-1.60418701171875,0.02813720703125,-0.438262939453125
1761315643870596900,8.844596923828124,-1.5657196044921875,0.196502685546875,-0.4383392333984375
1761315643880643800,8.854643798828125,-1.446197509765625,0.224822998046875,-0.361175537109375
1761315643890691800,8.86469189453125,-1.030364990234375,-0.0423126220703125,-0.2630462646484375
1761315643900739000,8.874739013671874,-0.7992706298828125,-0.31378173828125,-0.2860565185546875
1761315643910783700,8.88478369140625,-0.838897705078125,-0.403839111328125,-0.30609130859375
1761315643920831000,8.8948310546875,-0.830169677734375,-0.4455413818359375,-0.397216796875
1761315643930878000,8.9048779296875,-0.8290863037109375,-0.5031280517578125,-0.371307373046875
1761315643940926000,8.914926025390624,-0.7108001708984375,-0.485443115234375,-0.260040283203125
1761315643950972700,8.92497265625,-0.65350341796875,-0.495880126953125,-0.2062225341796875
1761315643961021000,8.93502099609375,-0.6518402099609375,-0.6490478515625,-0.2403411865234375
1761315643971068000,8.94506787109375,-0.4321441650390625,-0.699066162109375,-0.2390594482421875
1761315643981115000,8.955114990234375,-0.2932891845703125,-0.6693878173828125,-0.22760009765625
1761315643991163000,8.965162841796875,-0.281494140625,-0.62457275390625,-0.1754608154296875
1761315644001209900,8.9752099609375,-0.42181396484375,-0.5672760009765625,-0.0820770263671875
1761315644011256800,8.9852568359375,-0.748291015625,-0.5121612548828125,-0.0298614501953125
1761315644021304800,8.995304931640625,-0.95281982421875,-0.5416107177734375,-0.000823974609375
1761315644031351800,9.005351806640626,-0.888580322265625,-0.5789947509765625,0.027923583984375
1761315644041400000,9.015400146484374,-0.825531005859375,-0.5657806396484375,0.0065460205078125
1761315644051447000,9.025447021484375,-0.8007659912109375,-0.5171966552734375,-0.04736328125
1761315644061493800,9.03549365234375,-0.7692413330078125,-0.481475830078125,-0.0790557861328125
1761315644071541800,9.045541748046874,-0.7376708984375,-0.4336395263671875,-0.0685272216796875
1761315644081588700,9.055588623046875,-0.72613525390625,-0.3960723876953125,-0.037017822265625
1761315644091637000,9.065636962890625,-0.7040252685546875,-0.431976318359375,-0.0175018310546875
1761315644101684000,9.07568408203125,-0.68634033203125,-0.4954833984375,-0.0062408447265625
1761315644111730700,9.085730712890625,-0.7034759521484375,-0.5320281982421875,-0.0022735595703125
1761315644121779000,9.095779052734375,-0.7060089111328125,-0.54144287109375,-0.018310546875
1761315644131826000,9.105825927734376,-0.7162322998046875,-0.538543701171875,-0.0395660400390625
1761315644141874000,9.1158740234375,-0.715576171875,-0.5323333740234375,-0.05914306640625
1761315644151921000,9.1259208984375,-0.71087646484375,-0.5275726318359375,-0.0783233642578125
1761315644161967900,9.1359677734375,-0.724273681640625,-0.51666259765625,-0.079132080078125
1761315644172015900,9.146015869140625,-0.765472412109375,-0.5087127685546875,-0.0565948486328125
1761315644182062800,9.156062744140625,-0.82684326171875,-0.501983642578125,-0.0148773193359375
1761315644192109800,9.16610986328125,-0.8697509765625,-0.50408935546875,0.0248565673828125
1761315644202158000,9.176157958984374,-0.8830108642578125,-0.511749267578125,0.043243408203125
1761315644212205000,9.186205078125,-0.874237060546875,-0.515625,0.0355072021484375
1761315644222252800,9.196252685546876,-0.8498687744140625,-0.5059661865234375,0.0064697265625
1761315644232299800,9.2062998046875,-0.8451995849609375,-0.496063232421875,-0.01043701171875
1761315644242346800,9.2163466796875,-0.872833251953125,-0.506011962890625,-0.011383056640625
1761315644252395000,9.22639501953125,-0.9154510498046875,-0.5116119384765625,-0.002288818359375
1761315644262442000,9.23644189453125,-0.918853759765625,-0.5004730224609375,0.013336181640625
1761315644272489700,9.24648974609375,-0.90582275390625,-0.4847412109375,0.0303802490234375
1761315644282536700,9.25653662109375,-0.9072265625,-0.4808807373046875,0.0542144775390625
1761315644292584000,9.266583984375,-0.909332275390625,-0.4956207275390625,0.0715179443359375
1761315644302632000,9.2766318359375,-0.8918304443359375,-0.5053558349609375,0.0695037841796875
1761315644312679000,9.286678955078125,-0.8720855712890625,-0.5057830810546875,0.0635986328125
1761315644322726000,9.296725830078126,-0.8666839599609375,-0.52044677734375,0.0634307861328125
1761315644332774000,9.30677392578125,-0.85223388671875,-0.540191650390625,0.0584716796875
1761315644342820900,9.31682080078125,-0.825927734375,-0.5503082275390625,0.0411834716796875
1761315644352868900,9.326868896484376,-0.7958984375,-0.5532684326171875,0.0236663818359375
1761315644362915800,9.336915771484374,-0.7837982177734375,-0.5466461181640625,0.01385498046875
1761315644372963000,9.346963134765625,-0.7922515869140625,-0.536468505859375,0.008697509765625
1761315644383010800,9.3570107421875,-0.8083953857421875,-0.5255889892578125,0.015625
1761315644393057800,9.367057861328124,-0.8278350830078125,-0.51617431640625,0.031005859375
1761315644403106000,9.37710595703125,-0.828155517578125,-0.5034637451171875,0.0427703857421875
1761315644413153000,9.387153076171876,-0.82366943359375,-0.4985504150390625,0.0529327392578125
1761315644423200000,9.397199951171874,-0.8341522216796875,-0.50726318359375,0.0640411376953125
1761315644433247700,9.407247802734375,-0.8327178955078125,-0.5134735107421875,0.0645904541015625
1761315644443294700,9.417294677734375,-0.83416748046875,-0.5091552734375,0.0631561279296875
1761315644453342000,9.427342041015624,-0.8582305908203125,-0.504425048828125,0.06903076171875
1761315644463390000,9.437389892578125,-0.8659515380859375,-0.5078277587890625,0.061004638671875
1761315644473437000,9.44743701171875,-0.85406494140625,-0.507843017578125,0.041107177734375
1761315644483484700,9.457484619140626,-0.849151611328125,-0.49847412109375,0.0194854736328125
1761315644493532000,9.467531982421875,-0.837890625,-0.4966583251953125,0.00616455078125
1761315644503579000,9.477578857421875,-0.84259033203125,-0.5056610107421875,0.001861572265625
1761315644513627000,9.487626953125,-0.8560028076171875,-0.51531982421875,0.0002593994140625
1761315644523673900,9.497673828125,-0.848968505859375,-0.5218353271484375,0.008148193359375
1761315644533721900,9.507721923828125,-0.8553009033203125,-0.521820068359375,0.0145111083984375
1761315644543769900,9.517769775390626,-0.86798095703125,-0.5195770263671875,0.0189971923828125
1761315644553816800,9.52781689453125,-0.865234375,-0.522003173828125,0.0228424072265625
1761315644563864800,9.53786474609375,-0.85662841796875,-0.5241546630859375,0.0269775390625
1761315644573911800,9.547911865234376,-0.8527374267578125,-0.5248565673828125,0.03875732421875
1761315644583958800,9.557958740234374,-0.8494110107421875,-0.53289794921875,0.0490570068359375
1761315644594006800,9.5680068359375,-0.853607177734375,-0.54656982421875,0.0494537353515625
1761315644604054000,9.578053955078126,-0.8658447265625,-0.5502166748046875,0.044708251953125
1761315644614101800,9.588101806640625,-0.8614349365234375,-0.549835205078125,0.042572021484375
1761315644624148700,9.598148681640625,-0.852935791015625,-0.547088623046875,0.038970947265625
1761315644634195700,9.60819580078125,-0.84033203125,-0.5396270751953125,0.0357208251953125
1761315644644244000,9.618243896484374,-0.8297271728515625,-0.531585693359375,0.038330078125
1761315644654291000,9.628291015625,-0.8242950439453125,-0.532073974609375,0.044342041015625
1761315644664338000,9.638337890625,-0.8140716552734375,-0.546295166015625,0.049041748046875
1761315644674385700,9.6483857421875,-0.82269287109375,-0.552215576171875,0.05108642578125
1761315644684432600,9.6584326171875,-0.84454345703125,-0.5477294921875,0.0529632568359375
1761315644694481000,9.66848095703125,-0.843048095703125,-0.5451507568359375,0.0517120361328125
1761315644704528000,9.67852783203125,-0.832489013671875,-0.54486083984375,0.0432891845703125
1761315644714574600,9.68857470703125,-0.816619873046875,-0.54364013671875,0.02520751953125
1761315644724622600,9.69862255859375,-0.8077545166015625,-0.5443115234375,0.0099029541015625
1761315644734669600,9.708669677734376,-0.8109588623046875,-0.547210693359375,0.009063720703125
1761315644744717600,9.718717529296875,-0.8152618408203125,-0.5594635009765625,0.0203399658203125
1761315644754764500,9.7287646484375,-0.8174285888671875,-0.575408935546875,0.02685546875
1761315644764811500,9.7388115234375,-0.81317138671875,-0.5847625732421875,0.026458740234375
1761315644774859800,9.74885986328125,-0.8202972412109375,-0.5897369384765625,0.0262451171875
1761315644784906800,9.75890673828125,-0.833984375,-0.593902587890625,0.02044677734375
1761315644794953500,9.768953369140625,-0.8411407470703125,-0.58892822265625,0.012969970703125
1761315644805001500,9.77900146484375,-0.816253662109375,-0.578460693359375,0.002655029296875
1761315644815048700,9.789048583984375,-0.8082427978515625,-0.566436767578125,-0.001373291015625
1761315644825096700,9.7990966796875,-0.81268310546875,-0.56646728515625,-0.00396728515625
1761315644835143700,9.809143798828124,-0.8060455322265625,-0.5613861083984375,-0.0048828125
1761315644845190400,9.8191904296875,-0.80694580078125,-0.55450439453125,0.007293701171875
1761315644855238700,9.82923876953125,-0.8040771484375,-0.5663604736328125,0.0308990478515625
1761315644865285600,9.83928564453125,-0.79595947265625,-0.5830535888671875,0.05450439453125
1761315644875333600,9.849333740234375,-0.7921600341796875,-0.5875396728515625,0.0750274658203125
1761315644885380600,9.859380615234375,-0.7868499755859375,-0.5829925537109375,0.0861358642578125
1761315644895427600,9.869427490234376,-0.7928009033203125,-0.58172607421875,0.0971527099609375
1761315644905475600,9.8794755859375,-0.7930755615234375,-0.58685302734375,0.111175537109375
1761315644915522600,9.8895224609375,-0.80487060546875,-0.5980987548828125,0.1215972900390625
1761315644925569500,9.899569580078126,-0.8136749267578125,-0.603271484375,0.125
1761315644935617800,9.90961767578125,-0.80877685546875,-0.5880584716796875,0.1194915771484375
1761315644945664800,9.919664794921875,-0.80780029296875,-0.5697479248046875,0.1075439453125
1761315644955712500,9.92971240234375,-0.80572509765625,-0.5634613037109375,0.093902587890625
1761315644965759500,9.939759521484374,-0.8040924072265625,-0.56494140625,0.091156005859375
1761315644975806700,9.949806640625,-0.799652099609375,-0.5703582763671875,0.0977783203125
1761315644985854700,9.959854736328126,-0.8045196533203125,-0.5775299072265625,0.10772705078125
1761315644995901700,9.969901611328124,-0.8094940185546875,-0.5926513671875,0.1164093017578125
1761315645005949400,9.979949462890625,-0.80914306640625,-0.6058807373046875,0.12567138671875
1761315645015996700,9.98999658203125,-0.80474853515625,-0.60321044921875,0.13043212890625
1761315645026043600,10.000043701171874,-0.79095458984375,-0.591156005859375,0.12384033203125
1761315645036091600,10.010091552734375,-0.777801513671875,-0.5836944580078125,0.1119232177734375
1761315645046138600,10.020138671875,-0.7650604248046875,-0.5878448486328125,0.101531982421875
1761315645056185600,10.030185546875,-0.7477874755859375,-0.5900421142578125,0.095123291015625
1761315645066233600,10.040233642578125,-0.735137939453125,-0.592437744140625,0.09423828125
1761315645076280600,10.050280517578125,-0.723968505859375,-0.6035308837890625,0.09442138671875
1761315645086328600,10.06032861328125,-0.7183837890625,-0.617340087890625,0.0912017822265625
1761315645096375800,10.070375732421875,-0.72149658203125,-0.627105712890625,0.0871734619140625
1761315645106422800,10.0804228515625,-0.7232818603515625,-0.6316986083984375,0.088653564453125
1761315645116470500,10.090470458984376,-0.7204437255859375,-0.631378173828125,0.090484619140625
1761315645126517500,10.100517578125,-0.72650146484375,-0.624420166015625,0.0960540771484375
1761315645136564500,10.110564453125,-0.74090576171875,-0.61895751953125,0.0963897705078125
1761315645146612700,10.12061279296875,-0.749542236328125,-0.6205291748046875,0.090850830078125
1761315645156659700,10.13065966796875,-0.744415283203125,-0.6155853271484375,0.0728759765625
1761315645166707500,10.14070751953125,-0.7452239990234375,-0.591552734375,0.0463409423828125
1761315645176754700,10.150754638671875,-0.7451629638671875,-0.5700836181640625,0.0265045166015625
1761315645186801700,10.1608017578125,-0.73858642578125,-0.563934326171875,0.014190673828125
1761315645196849700,10.170849609375,-0.7395172119140625,-0.563262939453125,0.01702880859375
1761315645206896600,10.180896728515625,-0.7411041259765625,-0.5675811767578125,0.026397705078125
1761315645216944600,10.190944580078124,-0.746124267578125,-0.5737152099609375,0.032196044921875
1761315645226991600,10.20099169921875,-0.74981689453125,-0.5762481689453125,0.0373077392578125
1761315645237038600,10.21103857421875,-0.74322509765625,-0.5804443359375,0.040802001953125
1761315645247086600,10.221086669921876,-0.7342681884765625,-0.5870513916015625,0.0388641357421875
1761315645257133800,10.2311337890625,-0.7342529296875,-0.5966339111328125,0.039825439453125
1761315645267180800,10.241180908203125,-0.729705810546875,-0.60284423828125,0.03997802734375
1761315645277228500,10.251228515625,-0.7222900390625,-0.599151611328125,0.04144287109375
1761315645287275500,10.261275634765624,-0.7237396240234375,-0.59747314453125,0.045989990234375
1761315645297323800,10.27132373046875,-0.7286529541015625,-0.6020965576171875,0.0444793701171875
1761315645307370800,10.281370849609376,-0.7280426025390625,-0.6100921630859375,0.04193115234375
1761315645317417700,10.291417724609374,-0.7376251220703125,-0.615264892578125,0.0445709228515625
1761315645327465500,10.301465576171875,-0.74822998046875,-0.6171875,0.04571533203125
1761315645337512400,10.311512451171875,-0.7486724853515625,-0.613037109375,0.0459136962890625
1761315645347559700,10.3215595703125,-0.75335693359375,-0.604644775390625,0.0467681884765625
1761315645357607700,10.331607666015625,-0.772003173828125,-0.60174560546875,0.046844482421875
1761315645367654700,10.341654541015625,-0.788238525390625,-0.601593017578125,0.0413818359375
1761315645377702700,10.35170263671875,-0.7971343994140625,-0.6013336181640625,0.0352325439453125
1761315645387749600,10.36174951171875,-0.80316162109375,-0.598724365234375,0.02960205078125
1761315645397796600,10.371796630859375,-0.7998199462890625,-0.5919036865234375,0.0197906494140625
1761315645407844600,10.3818447265625,-0.798248291015625,-0.5865936279296875,0.0134124755859375
1761315645417891600,10.3918916015625,-0.795379638671875,-0.5760345458984375,0.007476806640625
1761315645427939600,10.401939697265625,-0.7938232421875,-0.562713623046875,-0.001861572265625
1761315645437986600,10.411986572265626,-0.783843994140625,-0.5524139404296875,-0.0118865966796875
1761315645448033500,10.422033447265624,-0.7975921630859375,-0.5437164306640625,-0.010223388671875
1761315645458081800,10.432081787109375,-0.8182373046875,-0.544830322265625,-0.0072174072265625
1761315645468128800,10.442128662109376,-0.822479248046875,-0.556365966796875,-0.0074310302734375
1761315645478175700,10.45217578125,-0.8081817626953125,-0.567169189453125,-0.009857177734375
1761315645488223500,10.462223388671875,-0.780853271484375,-0.56951904296875,-0.014801025390625
1761315645498270500,10.4722705078125,-0.7701568603515625,-0.5680999755859375,-0.0154266357421875
1761315645508318700,10.482318603515624,-0.7620086669921875,-0.5722198486328125,-0.00958251953125
1761315645518365700,10.49236572265625,-0.7715301513671875,-0.578216552734375,0.002166748046875
1761315645528412700,10.50241259765625,-0.8022003173828125,-0.587554931640625,0.01385498046875
1761315645538460400,10.51246044921875,-0.801422119140625,-0.5876007080078125,0.0121917724609375
1761315645548507600,10.522507568359375,-0.790130615234375,-0.5756378173828125,0.008331298828125
1761315645558554600,10.5325546875,-0.7856292724609375,-0.5731658935546875,0.006500244140625
1761315645568602600,10.5426025390625,-0.790435791015625,-0.584442138671875,0.009521484375
1761315645578649600,10.552649658203125,-0.8022308349609375,-0.5980377197265625,0.017730712890625
1761315645588697600,10.562697509765625,-0.811798095703125,-0.6045074462890625,0.024322509765625
1761315645598744600,10.57274462890625,-0.8257293701171875,-0.6042327880859375,0.02490234375
1761315645608791600,10.58279150390625,-0.8321380615234375,-0.5889129638671875,0.015838623046875
1761315645618839600,10.592839599609375,-0.825897216796875,-0.5710296630859375,0.01190185546875
1761315645628886800,10.60288671875,-0.834930419921875,-0.5629119873046875,0.0149383544921875
1761315645638933800,10.612933837890624,-0.844757080078125,-0.5614166259765625,0.0162200927734375
1761315645648981500,10.6229814453125,-0.8365631103515625,-0.5579376220703125,0.0136871337890625
1761315645659028500,10.633028564453125,-0.8202667236328125,-0.5530548095703125,0.01507568359375
1761315645669076700,10.64307666015625,-0.8130645751953125,-0.5571441650390625,0.0203094482421875
1761315645679123700,10.653123779296875,-0.81494140625,-0.564239501953125,0.0169219970703125
1761315645689170700,10.663170654296875,-0.7950592041015625,-0.562164306640625,-0.0022125244140625
1761315645699218400,10.673218505859374,-0.7805938720703125,-0.5481109619140625,-0.01678466796875
1761315645709265700,10.683265625,-0.7926788330078125,-0.539703369140625,-0.0221099853515625
1761315645719316700,10.693316650390624,-0.80126953125,-0.5409088134765625,-0.0234222412109375
1761315645729364700,10.70336474609375,-0.782135009765625,-0.5468902587890625,-0.0284881591796875
1761315645739411700,10.71341162109375,-0.7572174072265625,-0.5496063232421875,-0.0287933349609375
1761315645749459700,10.723459716796874,-0.7515106201171875,-0.5565948486328125,-0.0216522216796875
1761315645759506700,10.733506591796875,-0.7802886962890625,-0.559906005859375,-0.0052642822265625
1761315645769553700,10.7435537109375,-0.824066162109375,-0.54827880859375,0.01116943359375
1761315645779602000,10.753601806640624,-0.824066162109375,-0.52728271484375,0.0247039794921875
1761315645789649000,10.76364892578125,-0.7972412109375,-0.5047760009765625,0.036651611328125
1761315645799696600,10.773696533203125,-0.7835693359375,-0.489044189453125,0.0619659423828125
1761315645809743600,10.78374365234375,-0.7903289794921875,-0.49090576171875,0.09466552734375
1761315645819790800,10.793790771484375,-0.7968902587890625,-0.48675537109375,0.114471435546875
1761315645829838800,10.8038388671875,-0.7931060791015625,-0.44952392578125,0.1182403564453125
1761315645839885800,10.8138857421875,-0.9103240966796875,-0.4325714111328125,0.1108856201171875
1761315645849932500,10.8239326171875,-0.8746490478515625,-0.4836883544921875,0.0834197998046875
1761315645859980800,10.833980712890625,-0.8406219482421875,-0.5223541259765625,0.0447540283203125
1761315645870027800,10.84402783203125,-0.8460845947265625,-0.5088653564453125,0.02642822265625
1761315645880075800,10.85407568359375,-0.85137939453125,-0.4974822998046875,0.00433349609375
1761315645890122800,10.864122802734375,-0.8410186767578125,-0.5027008056640625,-0.0214080810546875
1761315645900169700,10.874169677734375,-0.827423095703125,-0.5114593505859375,-0.0294189453125
1761315645910217700,10.8842177734375,-0.8126983642578125,-0.5233154296875,-0.019195556640625
1761315645920264700,10.8942646484375,-0.8236846923828125,-0.5059051513671875,0.00396728515625
