time,seconds_elapsed,z,y,x
1761315635089154300,0.063154296875,-0.4954949617385864,-0.556727945804596,-0.4743518531322479
1761315635099201500,0.073201416015625,-0.48011308908462524,-0.619565486907959,-0.5211875438690186
1761315635109249300,0.083249267578125,-0.4854316711425781,-0.5537862181663513,-0.5327839851379395
1761315635119296300,0.093296142578125,-0.49571147561073303,-0.4338156282901764,-0.5229356288909912
1761315635129343200,0.10334326171875,-0.5188889503479004,-0.3508530855178833,-0.49709659814834595
1761315635139391500,0.1133916015625,-0.5663220286369324,-0.36582431197166443,-0.42272862792015076
1761315635149438500,0.1234384765625,-0.6458373069763184,-0.5134094953536987,-0.26158207654953003
1761315635159486200,0.133486328125,-0.7693214416503906,-0.8150948286056519,-0.07904235273599625
1761315635169533200,0.143533203125,-0.8556163907051086,-1.1333668231964111,0.09897372126579285
1761315635179581400,0.15358154296875,-0.8590790629386902,-1.3540669679641724,0.24331066012382507
1761315635189628400,0.16362841796875,-0.7758608460426331,-1.5466885566711426,0.34286653995513916
1761315635199675400,0.17367529296875,-0.635844349861145,-1.916269063949585,0.4223472476005554
1761315635209723400,0.183723388671875,-0.6172171235084534,-2.3391807079315186,0.42259839177131653
1761315635219770400,0.193770263671875,-0.6991016268730164,-2.840019941329956,0.22867178916931152
1761315635229818400,0.203818359375,-0.8105540871620178,-3.128511428833008,0.0641677975654602
1761315635239865300,0.213865234375,-0.8735408186912537,-3.1497461795806885,0.012123242020606995
1761315635249913300,0.223913330078125,-0.8431674242019653,-3.1004111766815186,0.016895093023777008
1761315635259960300,0.233960205078125,-0.7114804983139038,-2.7000365257263184,0.054919175803661346
1761315635270008300,0.24400830078125,-0.3223569989204407,-2.261409282684326,0.17282716929912567
1761315635280055300,0.25405517578125,0.09960222244262695,-1.8373864889144897,0.2747141122817993
1761315635290102300,0.264102294921875,0.37074530124664307,-1.3598268032073975,0.30637750029563904
1761315635300150300,0.274150390625,0.5068759918212891,-0.8782433867454529,0.24164511263370514
1761315635310197200,0.284197265625,0.5585724711418152,-0.44777724146842957,0.08570398390293121
1761315635320245200,0.294245361328125,0.5409508347511292,-0.14641553163528442,-0.14571724832057953
1761315635330292500,0.30429248046875,0.49377402663230896,0.021467475220561028,-0.4252261221408844
1761315635340340500,0.314340576171875,0.4178672730922699,0.09231315553188324,-0.6978118419647217
1761315635350387500,0.324387451171875,0.3314559757709503,0.09006384760141373,-0.9145724177360535
1761315635360435200,0.334435302734375,0.23705382645130157,0.04792012274265289,-1.0240097045898438
1761315635370482400,0.344482421875,0.1221003457903862,-0.0030929953791201115,-1.025404930114746
1761315635380529400,0.354529296875,-0.006844324059784412,-0.00472524669021368,-0.9340866804122925
1761315635390577400,0.364577392578125,-0.10427234321832657,0.0481339730322361,-0.7690527439117432
1761315635400624400,0.374624267578125,-0.16281475126743317,0.022939138114452362,-0.493467777967453
1761315635410672400,0.38467236328125,-0.042395658791065216,-0.5087702870368958,-0.04366279020905495
1761315635420719400,0.39471923828125,0.10361960530281067,-0.9557914733886719,0.4405028223991394
1761315635430767400,0.404767333984375,0.1725725680589676,-1.274985909461975,0.8828586935997009
1761315635440814300,0.414814453125,0.1435803323984146,-1.430086612701416,1.1545042991638184
1761315635450861600,0.424861572265625,-0.13124030828475952,-1.2034140825271606,0.952653169631958
1761315635460909300,0.434909423828125,-0.37250566482543945,-1.0326098203659058,0.7587407231330872
1761315635470956300,0.444956298828125,-0.5147480368614197,-0.8603094220161438,0.6903414130210876
1761315635481004300,0.45500439453125,-0.5335057377815247,-0.6747422218322754,0.616421103477478
1761315635491051500,0.465051513671875,-0.43789613246917725,-0.5593077540397644,0.5231742858886719
1761315635501099300,0.475099365234375,-0.290877103805542,-0.4656164348125458,0.46797892451286316
1761315635511146200,0.485146240234375,-0.12057381868362427,-0.3936429023742676,0.41154760122299194
1761315635521194500,0.495194580078125,0.0566779263317585,-0.4051765203475952,0.3117181956768036
1761315635531241500,0.505241455078125,0.22341763973236084,-0.4993259310722351,0.20502930879592896
1761315635541288400,0.515288330078125,0.3000122904777527,-0.5898568630218506,0.09086012840270996
1761315635551336200,0.525336181640625,0.274920791387558,-0.4365735948085785,-0.08114545047283173
1761315635561383200,0.535383056640625,0.2240176498889923,-0.1173146441578865,-0.2845827341079712
1761315635571431400,0.545431396484375,0.2232131063938141,0.4477468729019165,-0.495901882648468
1761315635581478400,0.555478515625,0.20198506116867065,1.0231387615203857,-0.6308125853538513
1761315635591526100,0.565526123046875,0.10079319030046463,1.3782868385314941,-0.6701735854148865
1761315635601573400,0.575573486328125,-0.040041159838438034,1.5873159170150757,-0.637858510017395
1761315635611621400,0.585621337890625,-0.14076830446720123,1.8477709293365479,-0.5000990629196167
1761315635621668400,0.59566845703125,-0.11757323145866394,2.137878656387329,-0.306899756193161
1761315635631715300,0.60571533203125,-0.016592824831604958,2.436763048171997,-0.18952518701553345
1761315635641763300,0.615763427734375,0.03289509937167168,2.7519919872283936,-0.3184826374053955
1761315635651810300,0.625810302734375,-0.05001656338572502,2.917630672454834,-0.5739296078681946
1761315635661858300,0.6358583984375,-0.09489055722951889,2.938369035720825,-0.872626781463623
1761315635671905300,0.6459052734375,-0.1915297508239746,2.905402660369873,-1.1524661779403687
1761315635681953500,0.65595361328125,-0.20729513466358185,2.7773935794830322,-1.3537545204162598
1761315635692000500,0.66600048828125,-0.15348756313323975,2.4626665115356445,-1.4676682949066162
1761315635702047500,0.676047607421875,-0.037522606551647186,2.1821858882904053,-1.455793857574463
1761315635712095500,0.686095458984375,0.09117944538593292,2.1501946449279785,-1.3011914491653442
1761315635722142700,0.696142822265625,0.17546609044075012,2.1344070434570312,-1.1135309934616089
1761315635732190700,0.706190673828125,0.19706353545188904,2.017824649810791,-0.9485290050506592
1761315635742237400,0.716237548828125,0.13560816645622253,1.9125523567199707,-0.7687222361564636
1761315635752285700,0.72628564453125,0.04809535667300224,1.7905353307724,-0.5988098978996277
1761315635762332700,0.736332763671875,-0.10436209291219711,1.4891341924667358,-0.3849969506263733
1761315635772380700,0.746380615234375,-0.18632593750953674,1.0030643939971924,-0.13011406362056732
1761315635782427600,0.756427734375,-0.22017498314380646,0.5422803163528442,0.13589444756507874
1761315635792474600,0.766474609375,-0.25209084153175354,0.1871240884065628,0.3418058156967163
1761315635802522600,0.776522705078125,-0.29324254393577576,-0.042871832847595215,0.48291340470314026
1761315635812569600,0.786569580078125,-0.25876283645629883,-0.35539671778678894,0.504421591758728
1761315635822617600,0.79661767578125,-0.07110373675823212,-0.8053955435752869,0.309965580701828
1761315635832664600,0.80666455078125,0.05727927014231682,-0.7354745268821716,0.15656377375125885
1761315635842712600,0.816712646484375,0.1471223384141922,-0.6204164028167725,-0.053942859172821045
1761315635852759600,0.826759521484375,0.23002707958221436,-0.3628535568714142,-0.26856300234794617
1761315635862806500,0.836806640625,0.2636108696460724,-0.07913929224014282,-0.4633876383304596
1761315635872854800,0.846854736328125,0.22278860211372375,0.13398469984531403,-0.6124351620674133
1761315635882901800,0.85690185546875,0.11747656017541885,0.15062732994556427,-0.6873709559440613
1761315635892949500,0.866949462890625,0.061886005103588104,-0.11709067225456238,-0.7248554229736328
1761315635902996500,0.87699658203125,0.048409342765808105,-0.477551132440567,-0.7088844776153564
1761315635913044700,0.887044677734375,0.07237992435693741,-0.9213887453079224,-0.6478046178817749
1761315635923091700,0.897091796875,-0.014166419394314289,-1.3551207780838013,-0.5892561078071594
1761315635933138700,0.907138671875,-0.06485915929079056,-1.4400113821029663,-0.3705950975418091
1761315635943186400,0.9171865234375,-0.07856298238039017,-1.2251020669937134,0.001976065570488572
1761315635953233700,0.927233642578125,-0.10371281206607819,-0.917756199836731,0.40253520011901855
1761315635963281700,0.93728173828125,-0.14781396090984344,-0.6356696486473083,0.7784265279769897
1761315635973328600,0.94732861328125,-0.2112821489572525,-0.4312762916088104,1.143910527229309
1761315635983376400,0.95737646484375,-0.2430826872587204,-0.2830418348312378,1.5018718242645264
1761315635993423600,0.967423583984375,-0.28067880868911743,-0.4828936755657196,1.759905219078064
1761315636003471600,0.9774716796875,-0.33710771799087524,-1.5623128414154053,1.626083493232727
1761315636013518600,0.9875185546875,-0.48005661368370056,-2.8472564220428467,1.133771300315857
1761315636023565600,0.997565673828125,-0.6144466400146484,-3.2300965785980225,0.6618295907974243
1761315636033613600,1.007613525390625,-0.6632522940635681,-2.9510531425476074,0.26373258233070374
1761315636043660500,1.01766064453125,-0.5369848608970642,-2.2863688468933105,0.005554821342229843
1761315636053708500,1.02770849609375,-0.2936212420463562,-1.627271294593811,-0.15635818243026733
1761315636063755500,1.037755615234375,-0.09117171913385391,-1.1525827646255493,-0.20043349266052246
1761315636073803800,1.0478037109375,0.06598247587680817,-0.9336869716644287,-0.08966703712940216
1761315636083850500,1.0578505859375,0.20056025683879852,-0.8276636004447937,0.19893120229244232
1761315636093898500,1.0678984375,0.35929957032203674,-0.9663650393486023,0.5690283179283142
1761315636103945500,1.077945556640625,0.5467475056648254,-1.514909029006958,0.8407689929008484
1761315636113992700,1.08799267578125,0.6311257481575012,-2.0768377780914307,1.0503989458084106
1761315636124040700,1.098040771484375,0.5718342065811157,-2.453895092010498,1.1817582845687866
1761315636134087700,1.108087646484375,0.38447150588035583,-2.6134772300720215,1.2253845930099487
1761315636144135700,1.1181357421875,0.09738753736019135,-2.5774996280670166,1.1930700540542603
1761315636154182700,1.1281826171875,-0.2665051817893982,-2.2638657093048096,1.1151083707809448
1761315636164230700,1.138230712890625,-0.6762533187866211,-1.6319422721862793,1.0084999799728394
1761315636174277600,1.148277587890625,-1.0465909242630005,-0.8887306451797485,0.9406503438949585
1761315636184324600,1.15832470703125,-1.2839081287384033,-0.30285120010375977,0.9368651509284973
1761315636194372600,1.16837255859375,-1.3987529277801514,-0.12770283222198486,0.9335237145423889
1761315636204419600,1.178419677734375,-1.3707466125488281,-0.377021849155426,0.8328639268875122
1761315636214467600,1.188467529296875,-1.1516392230987549,-0.8857913613319397,0.5406773686408997
1761315636224514800,1.198514892578125,-0.9673826098442078,-1.5183727741241455,0.09175015985965729
1761315636234562600,1.2085625,-1.0018478631973267,-1.8220887184143066,-0.2705683708190918
1761315636244609500,1.218609619140625,-1.021772861480713,-1.6831082105636597,-0.29628732800483704
1761315636254657500,1.228657470703125,-0.8700650930404663,-1.5810585021972656,0.1138480082154274
1761315636264704800,1.238704833984375,-0.7856607437133789,-1.1409192085266113,0.5869103670120239
1761315636274751700,1.248751708984375,-0.7451444864273071,-0.7510542869567871,0.8354048728942871
1761315636284799500,1.258799560546875,-0.6603227853775024,-0.7849164009094238,0.725275456905365
1761315636294846500,1.268846435546875,-0.5456609129905701,-0.890332818031311,0.23310595750808716
1761315636304894700,1.278894775390625,-0.4424322843551636,-0.999189019203186,-0.1353152096271515
1761315636314941700,1.288941650390625,-0.3615909516811371,-1.1048264503479004,-0.35043099522590637
1761315636324989400,1.298989501953125,-0.2679845690727234,-1.2499264478683472,-0.52362060546875
1761315636335036400,1.309036376953125,-0.18743780255317688,-1.3061044216156006,-0.7054370045661926
1761315636345083600,1.319083740234375,-0.14465145766735077,-1.2618552446365356,-0.9230497479438782
1761315636355131600,1.329131591796875,-0.09678193926811218,-1.2187397480010986,-1.1493779420852661
1761315636365178600,1.3391787109375,-0.03169827535748482,-1.0642212629318237,-1.3771378993988037
1761315636375226600,1.3492265625,-0.07639943063259125,-0.8399639129638672,-1.5866050720214844
1761315636385273600,1.359273681640625,-0.33498677611351013,-0.49212846159935,-1.7165236473083496
1761315636395321600,1.369321533203125,-0.7968156337738037,0.0869910940527916,-1.7896586656570435
1761315636405368600,1.37936865234375,-1.4027029275894165,0.6792041063308716,-1.898566484451294
1761315636415415600,1.38941552734375,-2.1487557888031006,1.0945367813110352,-2.2806928157806396
1761315636425463600,1.399463623046875,-2.675840139389038,1.3246574401855469,-2.8769609928131104
1761315636435510500,1.409510498046875,-2.9409384727478027,1.1963462829589844,-3.5852742195129395
1761315636445558500,1.41955859375,-3.0418941974639893,0.7107270956039429,-4.182025909423828
1761315636455605500,1.42960546875,-3.1087656021118164,-0.049851447343826294,-4.499059200286865
1761315636465653800,1.43965380859375,-3.1777381896972656,-0.9308784008026123,-4.505273818969727
1761315636475700700,1.44970068359375,-3.15702486038208,-1.5905793905258179,-4.184996128082275
1761315636485748500,1.45974853515625,-2.9096591472625732,-2.004568338394165,-3.6138012409210205
1761315636495795500,1.46979541015625,-2.3776745796203613,-2.3821473121643066,-2.978577136993408
1761315636505842700,1.4798427734375,-1.5582053661346436,-2.672520637512207,-2.2894484996795654
1761315636515890700,1.489890625,-0.6378923058509827,-3.034903049468994,-1.531254529953003
1761315636525937700,1.499937744140625,0.03332386910915375,-3.449925422668457,-0.8137128949165344
1761315636535985700,1.509985595703125,0.2102845311164856,-3.6999635696411133,-0.330287367105484
1761315636546032600,1.52003271484375,0.010550911538302898,-3.74590802192688,-0.07344572246074677
1761315636556080600,1.53008056640625,-0.3356882631778717,-3.667685031890869,-0.020981714129447937
1761315636566127600,1.540127685546875,-0.5390922427177429,-3.264202117919922,-0.0843721404671669
1761315636576174600,1.550174560546875,-0.4710037410259247,-2.7019941806793213,-0.18491099774837494
1761315636586222600,1.56022265625,-0.1897432953119278,-2.094985008239746,-0.2670053243637085
1761315636596269600,1.57026953125,0.15409742295742035,-1.5141428709030151,-0.3419717252254486
1761315636606317600,1.580317626953125,0.4165295660495758,-1.0963445901870728,-0.4293460249900818
1761315636616364800,1.59036474609375,0.5130686163902283,-0.9168517589569092,-0.553351879119873
1761315636626412500,1.60041259765625,0.424653559923172,-0.9881677627563477,-0.7187663912773132
1761315636636459500,1.61045947265625,0.24788624048233032,-1.1451160907745361,-0.8193891644477844
1761315636646507500,1.620507568359375,0.0701678991317749,-1.2069611549377441,-0.7651914358139038
1761315636656554800,1.6305546875,-0.07491924613714218,-1.1136705875396729,-0.5667843222618103
1761315636666601700,1.640601806640625,-0.18578077852725983,-0.9083954691886902,-0.2628020644187927
1761315636676649500,1.6506494140625,-0.28405702114105225,-0.6072731614112854,0.11349140852689743
1761315636686696400,1.660696533203125,-0.39842355251312256,-0.32525160908699036,0.5072850584983826
1761315636696744700,1.67074462890625,-0.5255069136619568,-0.16909155249595642,0.8572928309440613
1761315636706795300,1.680795166015625,-0.6553648114204407,-0.14936764538288116,1.1254888772964478
1761315636716843300,1.69084326171875,-0.7728652954101562,-0.19953255355358124,1.3358781337738037
1761315636726890200,1.70089013671875,-0.8435357809066772,-0.2183171510696411,1.5270274877548218
1761315636736937200,1.710937255859375,-0.8824461698532104,-0.05546911805868149,1.6935733556747437
1761315636746985200,1.720985107421875,-0.9053384065628052,0.2700232267379761,1.8237321376800537
1761315636757032200,1.7310322265625,-0.7634470462799072,0.5399506092071533,1.9404699802398682
1761315636767080200,1.741080078125,-0.40916672348976135,0.5936816930770874,2.1260716915130615
1761315636777127200,1.751127197265625,-0.010430802591145039,0.5743458271026611,2.357975959777832
1761315636787175200,1.761175048828125,0.2979307472705841,0.6369956135749817,2.5374155044555664
1761315636797222400,1.771222412109375,0.44434070587158203,0.8122904896736145,2.514183282852173
1761315636807270400,1.7812705078125,0.3217119872570038,1.0947916507720947,2.2531285285949707
1761315636817317000,1.791317138671875,-0.04902533441781998,1.40903639793396,1.8204610347747803
1761315636827364000,1.801364013671875,-0.5490399599075317,1.6624655723571777,1.3502655029296875
1761315636837412400,1.811412353515625,-1.0089596509933472,1.8303724527359009,0.9288210868835449
1761315636847459300,1.821459228515625,-1.2826145887374878,1.843814492225647,0.5583471655845642
1761315636857507300,1.83150732421875,-1.3246382474899292,1.729995846748352,0.20654039084911346
1761315636867554300,1.84155419921875,-1.1605968475341797,1.5545140504837036,-0.18964742124080658
1761315636877602300,1.851602294921875,-0.9210220575332642,1.3651597499847412,-0.6524084210395813
1761315636887649300,1.861649169921875,-0.7197485566139221,1.2094184160232544,-1.1053311824798584
1761315636897696300,1.8716962890625,-0.5610848665237427,1.079968810081482,-1.4369173049926758
1761315636907744300,1.881744140625,-0.5205787420272827,0.8867631554603577,-1.663367509841919
1761315636917791500,1.89179150390625,-0.7020571827888489,0.7080197334289551,-1.6434539556503296
1761315636927839200,1.901839111328125,-1.0047965049743652,0.7933745980262756,-1.2023743391036987
1761315636937886200,1.91188623046875,-1.3298026323318481,1.0471587181091309,-0.5164692401885986
1761315636947934500,1.9219345703125,-1.566455364227295,1.2257369756698608,0.09012509882450104
1761315636957981400,1.9319814453125,-1.4476432800292969,1.1625014543533325,0.3545042872428894
1761315636968029200,1.942029296875,-0.9790094494819641,0.8114862442016602,0.30654528737068176
1761315636978076200,1.952076171875,-0.3505287170410156,0.11048469692468643,0.12957291305065155
1761315636988123100,1.962123046875,0.16522784531116486,-0.6137752532958984,-0.043235089629888535
1761315636998171400,1.97217138671875,0.3785587549209595,-1.0554440021514893,-0.12686952948570251
1761315637008218400,1.98221826171875,0.3911325931549072,-1.1593592166900635,-0.031630098819732666
1761315637018266000,1.99226611328125,0.3671116828918457,-0.9927433729171753,0.19758151471614838
1761315637028313000,2.00231298828125,0.4117034077644348,-0.7791373133659363,0.44913652539253235
1761315637038361300,2.012361328125,0.5339094400405884,-0.7430741190910339,0.6640581488609314
1761315637048408300,2.022408203125,0.6633958220481873,-0.8902502655982971,0.8280811905860901
1761315637058455300,2.032455322265625,0.7532655000686646,-1.2486752271652222,0.9601883292198181
1761315637068503300,2.04250341796875,0.79454106092453,-1.8445570468902588,1.085039496421814
1761315637078550300,2.05255029296875,0.82061767578125,-2.45926833152771,1.1534148454666138
1761315637088598300,2.062598388671875,0.8933371305465698,-2.8210346698760986,1.0872759819030762
1761315637098645200,2.072645263671875,1.0017317533493042,-2.764878988265991,0.9218391180038452
1761315637108693200,2.082693359375,1.088413953781128,-2.367584466934204,0.7198615074157715
1761315637118740200,2.092740234375,1.1261831521987915,-1.8568570613861084,0.4840625524520874
1761315637128788200,2.102788330078125,1.1274210214614868,-1.4140000343322754,0.2146877944469452
1761315637138835200,2.112835205078125,1.1049658060073853,-1.0232692956924438,-0.06060449033975601
1761315637148882400,2.12288232421875,1.0842690467834473,-0.5839377641677856,-0.3175515830516815
1761315637158930200,2.13293017578125,1.0373212099075317,-0.12331873923540115,-0.5847252607345581
1761315637168977200,2.14297705078125,0.9169103503227234,0.30136170983314514,-0.8218134045600891
1761315637179025200,2.153025146484375,0.7774739265441895,0.6463057994842529,-0.9556031823158264
1761315637189072400,2.163072265625,0.6403730511665344,0.9424226880073547,-0.9614184498786926
1761315637199120400,2.173120361328125,0.48728257417678833,1.1949700117111206,-0.854913592338562
1761315637209167400,2.18316748046875,0.3310335874557495,1.378983497619629,-0.6656898856163025
1761315637219214000,2.193214111328125,0.18036098778247833,1.4505772590637207,-0.47408023476600647
1761315637229262300,2.203262451171875,0.028133632615208626,1.383710265159607,-0.3439163565635681
1761315637239309300,2.213309326171875,-0.1369490623474121,1.2259923219680786,-0.2758760452270508
1761315637249357300,2.223357421875,-0.3270907700061798,1.0160242319107056,-0.23722320795059204
1761315637259404300,2.233404296875,-0.5267884135246277,0.8165046572685242,-0.17881742119789124
1761315637269452300,2.243452392578125,-0.7115985155105591,0.6837252974510193,-0.0781368762254715
1761315637279499300,2.253499267578125,-0.8300785422325134,0.6071037650108337,0.06318961828947067
1761315637289547300,2.26354736328125,-0.8635174632072449,0.562252938747406,0.20513024926185608
1761315637299594200,2.27359423828125,-0.8160141110420227,0.5656631588935852,0.32157111167907715
1761315637309641500,2.283641357421875,-0.712583065032959,0.6319947242736816,0.3503841161727905
1761315637319689200,2.293689208984375,-0.6113408803939819,0.7580142021179199,0.2261607050895691
1761315637329736200,2.303736083984375,-0.5687651634216309,0.8132804036140442,-0.07881864905357361
1761315637339784400,2.313784423828125,-0.587501585483551,0.7454339861869812,-0.5150867700576782
1761315637349831400,2.32383154296875,-0.5472215414047241,0.6154754161834717,-0.9414311647415161
1761315637359879200,2.333879150390625,-0.3664400577545166,0.5229896903038025,-1.275738000869751
1761315637369926100,2.343926025390625,-0.16985827684402466,0.6230835318565369,-1.4558923244476318
1761315637379973000,2.35397314453125,-0.061582669615745544,0.8439980745315552,-1.5297455787658691
1761315637390021400,2.364021484375,-0.02479829080402851,1.225803017616272,-1.5540207624435425
1761315637400068400,2.374068359375,-0.0403604730963707,1.720085620880127,-1.5553492307662964
1761315637410116000,2.3841162109375,-0.09669645130634308,1.8652966022491455,-1.459306001663208
1761315637420163000,2.3941630859375,-0.15263934433460236,1.5761260986328125,-1.2101646661758423
1761315637430211300,2.40421142578125,-0.09799021482467651,0.6351338028907776,-0.9919239282608032
1761315637440258300,2.41425830078125,0.057730674743652344,-0.7880080342292786,-0.8973734378814697
1761315637450305300,2.42430517578125,0.24441426992416382,-1.969844937324524,-0.7802814245223999
1761315637460353300,2.434353271484375,0.45624876022338867,-2.4987194538116455,-0.4892684817314148
1761315637470400300,2.444400146484375,0.6904615163803101,-2.6110212802886963,-0.10068719834089279
1761315637480448300,2.4544482421875,0.9551187753677368,-2.6911354064941406,0.122843898832798
1761315637490495200,2.4644951171875,1.253021240234375,-2.9011216163635254,0.0855063796043396
1761315637500543200,2.474543212890625,1.4960778951644897,-3.150946617126465,-0.04114903509616852
1761315637510590200,2.484590087890625,1.594627857208252,-3.459113836288452,-0.08936449885368347
1761315637520637200,2.49463720703125,1.5618784427642822,-3.911155939102173,0.0368935689330101
1761315637530685200,2.504685302734375,1.4879711866378784,-4.546662330627441,0.315422922372818
1761315637540732400,2.514732421875,1.4133858680725098,-5.314851760864258,0.6627177596092224
1761315637550780400,2.524780517578125,1.3645614385604858,-6.034522533416748,1.0162646770477295
1761315637560827100,2.5348271484375,1.305375576019287,-6.536312103271484,1.2811695337295532
1761315637570875100,2.544875244140625,1.0928430557250977,-6.563251972198486,1.4052518606185913
1761315637580922400,2.55492236328125,0.6475111246109009,-5.829185485839844,1.4247163534164429
1761315637590970400,2.564970458984375,0.02858450636267662,-4.412487030029297,1.3262758255004883
1761315637601017300,2.575017333984375,-0.6423115730285645,-2.6974964141845703,1.0699074268341064
1761315637611064300,2.585064208984375,-1.1949089765548706,-1.0963935852050781,0.6817767024040222
1761315637621112300,2.5951123046875,-1.5496089458465576,0.1588815301656723,0.26245105266571045
1761315637631159300,2.6051591796875,-1.7482882738113403,1.0428088903427124,-0.03919001296162605
1761315637641207300,2.615207275390625,-1.8329826593399048,1.6196352243423462,-0.1635926514863968
1761315637651254300,2.625254150390625,-1.8219033479690552,1.9213082790374756,-0.14548343420028687
1761315637661302300,2.63530224609375,-1.7485575675964355,1.9608564376831055,-0.05728113278746605
1761315637671349200,2.645349365234375,-1.659635066986084,1.8329941034317017,0.02779407985508442
1761315637681396200,2.655396240234375,-1.5930424928665161,1.6950114965438843,0.07344572246074677
1761315637691444200,2.6654443359375,-1.530352234840393,1.7172504663467407,0.11334680020809174
1761315637701491500,2.675491455078125,-1.4141004085540771,1.803604245185852,0.1264902949333191
1761315637711535400,2.685535400390625,-1.2183165550231934,1.8698581457138062,0.11966301500797272
1761315637721582300,2.695582275390625,-0.9800957441329956,1.9856704473495483,0.12099246680736542
1761315637731630600,2.705630615234375,-0.7738105058670044,2.275022506713867,0.1067032739520073
1761315637741677600,2.715677490234375,-0.6434867978096008,2.7251033782958984,0.06634440273046494
1761315637751724500,2.725724609375,-0.5867534875869751,3.1600193977355957,0.021977471187710762
1761315637761772300,2.735772216796875,-0.5609368085861206,3.388782024383545,0.014084394089877605
1761315637771819500,2.745819580078125,-0.5571743249893188,3.373642921447754,0.0667758360505104
1761315637781867500,2.755867431640625,-0.5142649412155151,3.223461389541626,0.07393920421600342
1761315637791914500,2.76591455078125,-0.4039117991924286,3.1533961296081543,-0.033793650567531586
1761315637801962500,2.77596240234375,-0.1985224187374115,3.41549015045166,-0.2330670803785324
1761315637812009500,2.786009521484375,0.35128718614578247,3.868978500366211,-0.4382476508617401
1761315637822057500,2.796057373046875,1.3915379047393799,4.1596503257751465,-0.8079513907432556
1761315637832104400,2.8061044921875,2.626465082168579,4.069427490234375,-1.6741623878479004
1761315637842151400,2.8161513671875,3.4026167392730713,3.591921091079712,-2.836965322494507
1761315637852199700,2.82619970703125,2.9991259574890137,2.922130584716797,-3.659156084060669
1761315637862246400,2.836246337890625,1.5299456119537354,2.0038821697235107,-3.7049620151519775
1761315637872294400,2.84629443359375,-0.12455497682094574,1.367702603340149,-2.9804506301879883
1761315637882341400,2.85634130859375,-1.0535523891448975,1.2735164165496826,-2.044219732284546
1761315637892389600,2.8663896484375,-0.8600273728370667,1.603370189666748,-1.5706889629364014
1761315637902436600,2.8764365234375,0.1438692808151245,2.2234814167022705,-1.687429666519165
1761315637912483300,2.8864833984375,1.110280156135559,3.010921001434326,-2.1330883502960205
1761315637922531300,2.89653125,1.436362862586975,3.7369401454925537,-2.430850028991699
1761315637932578600,2.90657861328125,1.3371838331222534,4.181766986846924,-2.2444701194763184
1761315637942626600,2.91662646484375,1.1567796468734741,3.9237992763519287,-1.8450273275375366
1761315637952673500,2.926673583984375,1.0157599449157715,3.066378593444824,-1.5319395065307617
1761315637962721500,2.936721435546875,0.8090739250183105,2.101219892501831,-1.419424057006836
1761315637972768500,2.9467685546875,0.5254096984863281,1.4338687658309937,-1.470808506011963
1761315637982815500,2.9568154296875,0.24485501646995544,1.0477818250656128,-1.6501784324645996
1761315637992863500,2.966863525390625,0.030957650393247604,0.8331371545791626,-1.8753511905670166
1761315638002910500,2.976910400390625,-0.0868438184261322,0.7732187509536743,-2.0101728439331055
1761315638012958500,2.98695849609375,-0.09366443753242493,0.8453163504600525,-1.9783680438995361
1761315638023005400,2.99700537109375,0.01979394443333149,0.9788805246353149,-1.789625883102417
1761315638033053400,3.007053466796875,0.15759894251823425,1.058001160621643,-1.4879908561706543
1761315638043100700,3.0171005859375,0.202240452170372,0.9246013164520264,-1.1031715869903564
1761315638053147600,3.027147705078125,0.13193939626216888,0.4995584189891815,-0.6347694993019104
1761315638063195400,3.0371953125,-0.05663291737437248,-0.191724956035614,-0.11675511300563812
1761315638073242400,3.047242431640625,-0.3761693835258484,-0.968411386013031,0.38416898250579834
1761315638083290600,3.05729052734375,-0.6632818579673767,-1.574286699295044,0.8384336829185486
1761315638093337600,3.067337646484375,-0.7785743474960327,-1.904026746749878,1.2546993494033813
1761315638103385300,3.07738525390625,-0.7121948003768921,-1.9102486371994019,1.625411868095398
1761315638113432300,3.087432373046875,-0.56546550989151,-1.6456021070480347,1.906562328338623
1761315638123479300,3.097479248046875,-0.40728306770324707,-1.3017160892486572,2.01788592338562
1761315638133527600,3.107527587890625,-0.3195497691631317,-0.9145305752754211,1.9195468425750732
1761315638143574500,3.117574462890625,-0.3111317753791809,-0.5638449788093567,1.6224230527877808
1761315638153622300,3.127622314453125,-0.33799269795417786,-0.34982138872146606,1.1970746517181396
1761315638163669500,3.13766943359375,-0.35493946075439453,-0.2780055105686188,0.7351163625717163
1761315638173717500,3.147717529296875,-0.3316967189311981,-0.38680630922317505,0.2584773600101471
1761315638183764500,3.157764404296875,-0.25394147634506226,-0.5637320876121521,-0.18819041550159454
1761315638193811500,3.1678115234375,-0.1641082465648651,-0.7197980880737305,-0.556797206401825
1761315638203859500,3.177859375,-0.04857445880770683,-0.7642606496810913,-0.8255605101585388
1761315638213906400,3.187906494140625,0.08164452761411667,-0.6792762279510498,-1.0224921703338623
1761315638223954400,3.197954345703125,0.24378816783428192,-0.49235936999320984,-1.1732593774795532
1761315638234001400,3.20800146484375,0.4548327624797821,-0.31964004039764404,-1.2299489974975586
1761315638244049700,3.218049560546875,0.6957026124000549,-0.17886322736740112,-1.1640498638153076
1761315638254096400,3.228096435546875,0.8733155131340027,-0.058751728385686874,-1.0407819747924805
1761315638264143400,3.238143310546875,0.9381924867630005,0.02046346291899681,-0.8762583136558533
1761315638274191400,3.24819140625,0.881140410900116,-0.05139554664492607,-0.6419480443000793
1761315638284238600,3.258238525390625,0.6864641308784485,-0.45339757204055786,-0.3386310636997223
1761315638294286600,3.26828662109375,0.3968685269355774,-1.3572824001312256,-0.001784850494004786
1761315638304333600,3.27833349609375,-0.01014131773263216,-2.8174686431884766,0.1030491515994072
1761315638314381600,3.288381591796875,-0.6099206209182739,-4.351058006286621,-0.22707469761371613
1761315638324428500,3.298428466796875,-0.9054521322250366,-4.598178863525391,-0.5955219864845276
1761315638334475500,3.3084755859375,-0.6245821118354797,-3.276700019836426,-0.9278663396835327
1761315638344523500,3.3185234375,0.006104497704654932,-1.553685188293457,-1.4137928485870361
1761315638354570500,3.328570556640625,0.7715175151824951,-0.068525530397892,-1.719626545906067
1761315638364618500,3.338618408203125,1.0967289209365845,0.7027837038040161,-1.9762176275253296
1761315638374665500,3.34866552734375,0.4713704586029053,0.7658308744430542,-2.1524014472961426
1761315638384713500,3.35871337890625,-0.3503979742527008,0.7597606778144836,-1.526698350906372
1761315638394760400,3.368760498046875,-0.8367074131965637,0.8752806186676025,0.11698281019926071
1761315638404807700,3.3788076171875,-0.8276976943016052,0.7254442572593689,2.0580968856811523
1761315638414855400,3.38885546875,-0.5591764450073242,0.17404583096504211,3.2573940753936768
1761315638424902400,3.39890234375,-0.27461424469947815,-0.3419967591762543,3.778775215148926
1761315638434950700,3.40895068359375,-0.08751226961612701,-0.6789039373397827,3.8834474086761475
1761315638444997600,3.41899755859375,-0.00007909588020993397,-0.8287045955657959,3.6832213401794434
1761315638455045400,3.42904541015625,0.056238505989313126,-0.6512675285339355,3.365556240081787
1761315638465092400,3.43909228515625,0.09809806942939758,-0.35745561122894287,3.011532783508301
1761315638475139300,3.449139404296875,0.26837125420570374,0.026759175583720207,2.5697288513183594
1761315638485187600,3.4591875,0.530036449432373,0.4943426251411438,2.039970874786377
1761315638495234600,3.469234619140625,0.8519004583358765,0.9001114368438721,1.44501793384552
1761315638505282300,3.4792822265625,1.1397216320037842,1.1893192529678345,0.8950703144073486
1761315638515329500,3.48932958984375,1.2703733444213867,1.3640053272247314,0.4603308439254761
1761315638525377500,3.49937744140625,1.1628493070602417,1.5221936702728271,0.16551439464092255
1761315638535424500,3.509424560546875,0.8626479506492615,1.658441424369812,0.0542864091694355
1761315638545471500,3.519471435546875,0.4996577501296997,1.6133803129196167,0.15955877304077148
1761315638555519500,3.52951953125,0.19362325966358185,1.3132749795913696,0.42995908856391907
1761315638565566500,3.53956640625,-0.06502613425254822,0.8216733336448669,0.7273798584938049
1761315638575614500,3.549614501953125,-0.28062739968299866,0.34071123600006104,0.9407898783683777
1761315638585661400,3.559661376953125,-0.41131216287612915,-0.023782294243574142,1.0777578353881836
1761315638595709400,3.56970947265625,-0.431379109621048,-0.2451048344373703,1.1196626424789429
1761315638605756400,3.57975634765625,-0.3212166428565979,-0.43055352568626404,0.9755587577819824
1761315638615803400,3.589803466796875,-0.10445690155029297,-0.6290897727012634,0.616268515586853
1761315638625851400,3.599851318359375,0.13471654057502747,-0.7977358102798462,0.09334752708673477
1761315638635898600,3.609898681640625,0.3877040445804596,-0.8094987273216248,-0.49236202239990234
1761315638645946600,3.619946533203125,0.652651846408844,-0.7072668671607971,-1.0959267616271973
1761315638655993300,3.629993408203125,0.8991042375564575,-0.4186185598373413,-1.6479272842407227
1761315638666041300,3.640041259765625,1.0844697952270508,0.0690685510635376,-2.097672700881958
1761315638676088600,3.650088623046875,1.161705493927002,0.5734984278678894,-2.4220917224884033
1761315638686135600,3.660135498046875,1.1152058839797974,0.9506819248199463,-2.5280234813690186
1761315638696183600,3.67018359375,0.9481929540634155,1.1721421480178833,-2.4046809673309326
1761315638706234000,3.680234130859375,0.6514262557029724,1.2210506200790405,-2.095510244369507
1761315638716282000,3.6902822265625,0.3064776360988617,1.0729516744613647,-1.6614599227905273
1761315638726329300,3.700329345703125,0.01139992754906416,0.6062182784080505,-1.205935001373291
1761315638736377300,3.71037744140625,-0.09624211490154266,-0.18444786965847015,-0.8150023818016052
1761315638746424300,3.72042431640625,0.07915473729372025,-1.0288501977920532,-0.6017401814460754
1761315638756471000,3.730470947265625,0.38074228167533875,-1.5557515621185303,-0.7322548031806946
1761315638766519300,3.740519287109375,0.6461910009384155,-1.576831579208374,-1.1986578702926636
1761315638776566300,3.750566162109375,0.8439099192619324,-1.083476185798645,-1.5806127786636353
1761315638786614300,3.7606142578125,0.8341872692108154,-0.571068525314331,-1.4841458797454834
1761315638796661200,3.7706611328125,0.699798583984375,-0.13630831241607666,-0.8051409721374512
1761315638806709200,3.780709228515625,0.6021835803985596,0.18644337356090546,0.23137091100215912
1761315638816756200,3.790756103515625,0.4104391932487488,-0.20625810325145721,0.6300250887870789
1761315638826803200,3.80080322265625,-0.0796934962272644,-1.1932373046875,-0.04235278442502022
1761315638836851200,3.810851318359375,-0.8979175090789795,-1.7208055257797241,-0.9848843812942505
1761315638846898400,3.8208984375,-1.5223184823989868,-1.7444194555282593,-1.5740336179733276
1761315638856946200,3.8309462890625,-1.6468538045883179,-1.6909080743789673,-1.7093714475631714
1761315638866993200,3.8409931640625,-1.3052653074264526,-1.5449635982513428,-1.4545831680297852
1761315638877040000,3.8510400390625,-0.7196127772331238,-1.042249083518982,-1.000014305114746
1761315638887088400,3.86108837890625,-0.08989260345697403,-0.11485841125249863,-0.505312979221344
1761315638897135400,3.87113525390625,0.4346771538257599,0.7355033159255981,-0.17269188165664673
1761315638907183000,3.88118310546875,0.8340820670127869,1.3793264627456665,-0.08143626898527145
1761315638917230000,3.89122998046875,1.0317940711975098,1.735225796699524,-0.035113777965307236
1761315638927278300,3.9012783203125,1.073319911956787,1.8658514022827148,0.24868863821029663
1761315638937325300,3.9113251953125,1.0267963409423828,1.6912803649902344,0.7312126755714417
1761315638947372300,3.921372314453125,0.9510427713394165,1.28781259059906,1.3434456586837769
1761315638957420300,3.931420166015625,0.9020419716835022,0.7690562009811401,2.0288190841674805
1761315638967467300,3.94146728515625,0.8378006219863892,0.2020425796508789,2.667985439300537
1761315638977515300,3.951515380859375,0.7316946983337402,-0.3774445056915283,3.1457936763763428
1761315638987562200,3.961562255859375,0.5512533187866211,-0.9328163862228394,3.4052271842956543
1761315638997609200,3.971609130859375,0.25509968400001526,-1.2608336210250854,3.42061185836792
1761315639007657200,3.9816572265625,-0.06549272686243057,-1.190374732017517,3.2608065605163574
1761315639017704200,3.9917041015625,-0.36672845482826233,-0.7776837944984436,3.089958667755127
1761315639027752200,4.001752197265625,-0.6574212908744812,-0.3743552267551422,3.0006906986236572
1761315639037799200,4.011799072265625,-0.8500756621360779,-0.18801172077655792,2.9668378829956055
1761315639047847200,4.02184716796875,-0.9536619782447815,-0.1485535204410553,2.9193854331970215
1761315639057894100,4.03189404296875,-0.9754139184951782,-0.18668492138385773,2.781022548675537
1761315639067941000,4.041941162109375,-1.0107522010803223,-0.21912142634391785,2.4729368686676025
1761315639077989400,4.0519892578125,-1.0499629974365234,-0.10328484326601028,2.0018134117126465
1761315639088036400,4.062036376953125,-1.057477593421936,0.17126256227493286,1.4250452518463135
1761315639098084000,4.072083984375,-1.0283482074737549,0.5757445096969604,0.8210626840591431
1761315639108131000,4.082131103515625,-0.9118309020996094,0.9429430365562439,0.2388642430305481
1761315639118179300,4.092179443359375,-0.7100597023963928,1.197263240814209,-0.230373814702034
1761315639128226300,4.102226318359375,-0.4637381136417389,1.3898718357086182,-0.5311387181282043
1761315639138273300,4.112273193359375,-0.16475433111190796,1.4124596118927002,-0.6558825373649597
1761315639148321000,4.122321044921875,0.15003716945648193,1.3185752630233765,-0.6044520735740662
1761315639158368300,4.1323681640625,0.39447009563446045,1.217977523803711,-0.4896482527256012
1761315639168416300,4.142416259765625,0.4983413517475128,1.131363868713379,-0.39549779891967773
1761315639178463200,4.152463134765625,0.2730744183063507,1.0583138465881348,-0.5247125029563904
1761315639188511200,4.16251123046875,-0.2501145005226135,0.7694585919380188,-1.0618617534637451
1761315639198558200,4.17255810546875,-0.8695007562637329,0.11326823383569717,-1.8146207332611084
1761315639208605200,4.182605224609375,-1.3734360933303833,-0.5484668612480164,-2.311891794204712
1761315639218653200,4.192653076171875,-1.6413626670837402,-1.2010648250579834,-2.5580506324768066
1761315639228700200,4.2027001953125,-1.6389551162719727,-2.1455435752868652,-2.863375663757324
1761315639238748400,4.21274853515625,-1.4407552480697632,-3.2284412384033203,-3.3810312747955322
1761315639248795400,4.22279541015625,-1.111567735671997,-3.9369585514068604,-4.066432952880859
1761315639258842000,4.232842041015625,-0.46362918615341187,-4.126889228820801,-4.921816825866699
1761315639268890000,4.24289013671875,0.579280436038971,-3.9188151359558105,-5.666466236114502
1761315639278937300,4.252937255859375,1.7408188581466675,-3.1625101566314697,-5.682041645050049
1761315639288985300,4.2629853515625,2.5322186946868896,-1.8572123050689697,-4.7208991050720215
1761315639299032300,4.2730322265625,2.720729351043701,-0.7459796667098999,-3.164449453353882
1761315639309080000,4.283080078125,2.440747022628784,-0.3527894914150238,-1.526409387588501
1761315639319127300,4.293127197265625,1.854998230934143,-0.6546169519424438,0.10833872109651566
1761315639329174300,4.30317431640625,1.1183223724365234,-1.165087103843689,1.606938362121582
1761315639339222300,4.31322216796875,0.4104330539703369,-1.6533141136169434,2.6486425399780273
1761315639349269200,4.323269287109375,-0.05796609818935394,-1.71254301071167,3.2211289405822754
1761315639359317200,4.333317138671875,-0.24367576837539673,-1.1056361198425293,3.4756572246551514
1761315639369364200,4.3433642578125,-0.22611701488494873,0.08280486613512039,3.5152788162231445
1761315639379411200,4.3534111328125,-0.15256424248218536,1.502560019493103,3.5817320346832275
1761315639389459200,4.363459228515625,-0.1397605687379837,2.653813362121582,3.8284809589385986
1761315639399506400,4.37350634765625,-0.2854005992412567,3.141981601715088,4.220046520233154
1761315639409554200,4.38355419921875,-0.5261340737342834,2.870403528213501,4.765346527099609
1761315639419601200,4.39360107421875,-0.8326460719108582,2.1055543422698975,5.368312358856201
1761315639429649200,4.403649169921875,-1.1074182987213135,1.3800716400146484,5.974722862243652
1761315639439696400,4.4136962890625,-1.288360357284546,0.9941399097442627,6.327018737792969
1761315639449743400,4.423743408203125,-1.175088882446289,1.0360002517700195,6.108013153076172
1761315639459791000,4.433791015625,-0.8040253520011902,1.5847939252853394,5.330125331878662
1761315639469838000,4.443838134765625,-0.28720247745513916,2.3067171573638916,4.211609363555908
1761315639479886300,4.45388623046875,0.1908716857433319,3.225623607635498,3.3495779037475586
1761315639489933300,4.463933349609375,0.4900325536727905,4.1362786293029785,3.0205283164978027
1761315639499980300,4.473980224609375,0.6349719166755676,4.477464199066162,2.936835765838623
1761315639510028000,4.484028076171875,0.6462690234184265,4.2119011878967285,2.9101569652557373
1761315639520075300,4.4940751953125,0.5777615904808044,3.4882400035858154,2.9566986560821533
1761315639530123300,4.504123291015625,0.37618640065193176,2.442521333694458,2.949420213699341
1761315639540170200,4.514170166015625,-0.036821398884058,1.3553663492202759,2.854952096939087
1761315639550218200,4.52421826171875,-0.5514485239982605,0.39044976234436035,2.7412097454071045
1761315639560265200,4.53426513671875,-1.0429763793945312,-0.5021387338638306,2.6637134552001953
1761315639570312200,4.544312255859375,-1.4626322984695435,-1.493508219718933,2.56638503074646
1761315639580360200,4.554360107421875,-1.6891252994537354,-2.4510910511016846,2.275033950805664
1761315639590407200,4.5644072265625,-1.6214344501495361,-3.107727289199829,1.8136271238327026
1761315639600455200,4.574455078125,-1.296890139579773,-3.319917917251587,1.273348331451416
1761315639610502100,4.584502197265625,-0.8005789518356323,-3.1202523708343506,0.6689181327819824
1761315639620549000,4.594549072265625,-0.13088025152683258,-2.8298747539520264,0.030058566480875015
1761315639630597000,4.60459716796875,0.6326485872268677,-2.6622824668884277,-0.7779626250267029
1761315639640644400,4.614644287109375,1.3478364944458008,-2.3219900131225586,-1.7329546213150024
1761315639650692400,4.6246923828125,1.9385756254196167,-1.8137894868850708,-2.7239506244659424
1761315639660739000,4.634739013671875,2.3423802852630615,-1.2121367454528809,-3.6789135932922363
1761315639670787300,4.644787353515625,2.493851900100708,-0.7836521863937378,-4.491734504699707
1761315639680834300,4.654834228515625,2.4298529624938965,-0.6927257180213928,-4.992534160614014
1761315639690881300,4.66488134765625,2.270040988922119,-0.8652530312538147,-5.084214210510254
1761315639700929300,4.67492919921875,2.064554214477539,-1.1385821104049683,-4.911659240722656
1761315639710972700,4.68497265625,1.9180653095245361,-1.386832356452942,-4.626173973083496
1761315639721021000,4.69502099609375,1.8657068014144897,-1.5647096633911133,-4.340892791748047
1761315639731068000,4.70506787109375,1.8988444805145264,-1.7236913442611694,-4.13038444519043
1761315639741115000,4.715114990234375,1.9575961828231812,-1.8124374151229858,-4.013720512390137
1761315639751163000,4.725162841796875,2.0117576122283936,-1.6470072269439697,-4.002208709716797
1761315639761209900,4.7352099609375,2.1489768028259277,-1.3556374311447144,-4.1364216804504395
1761315639771257900,4.7452578125,2.2378451824188232,-1.0495320558547974,-4.28245210647583
1761315639781304800,4.755304931640625,2.2310173511505127,-0.922309935092926,-4.371306419372559
1761315639791352800,4.765352783203125,2.157691240310669,-1.0353946685791016,-4.394017219543457
1761315639801400000,4.775400146484375,1.973279356956482,-1.1750506162643433,-4.210455417633057
1761315639811446800,4.78544677734375,1.6655668020248413,-1.1267025470733643,-3.723306894302368
1761315639821494800,4.795494873046875,1.4159891605377197,-1.0151032209396362,-2.954563617706299
1761315639831541800,4.805541748046875,1.4219259023666382,-0.8923267126083374,-1.9728624820709229
1761315639841590000,4.815590087890625,1.5180444717407227,-0.6486757397651672,-0.9317694902420044
1761315639851637000,4.825636962890625,1.5535355806350708,-0.27205947041511536,0.0636972188949585
1761315639861684000,4.83568408203125,1.5224173069000244,0.10934460163116455,1.0970615148544312
1761315639871731700,4.845731689453125,1.4472554922103882,0.25096696615219116,2.217919111251831
1761315639881779000,4.855779052734375,1.370859980583191,-0.019768377766013145,3.20182728767395
1761315639891827000,4.865826904296875,1.252117395401001,-0.5090824365615845,3.8313217163085938
1761315639901870800,4.875870849609375,1.0341280698776245,-0.853639543056488,4.122037410736084
1761315639911918800,4.8859189453125,0.6736218333244324,-0.8174937963485718,4.11250638961792
1761315639921965800,4.8959658203125,0.24141262471675873,-0.3834874629974365,3.9118590354919434
1761315639932012800,4.9060126953125,-0.12996385991573334,0.14375025033950806,3.644676446914673
1761315639942061000,4.91606103515625,-0.3476319909095764,0.5516437292098999,3.324735641479492
1761315639952108000,4.92610791015625,-0.48779869079589844,0.8281541466712952,2.9947149753570557
1761315639962155800,4.93615576171875,-0.6116215586662292,0.904015064239502,2.730525016784668
1761315639972202800,4.94620263671875,-0.7360793352127075,0.8656818270683289,2.498419761657715
1761315639982251000,4.9562509765625,-0.8734750151634216,0.8646168112754822,2.364166259765625
1761315639992298000,4.966298095703125,-0.9923446774482727,0.9026818871498108,2.3124258518218994
1761315640002345000,4.976344970703125,-1.0873737335205078,1.0147660970687866,2.306309223175049
1761315640012392700,4.986392822265625,-1.1568422317504883,1.1787582635879517,2.3135838508605957
1761315640022440000,4.99643994140625,-1.1871426105499268,1.2990678548812866,2.322971820831299
1761315640032488000,5.006488037109375,-1.146991491317749,1.2475827932357788,2.3695266246795654
1761315640042535000,5.016534912109375,-1.0530661344528198,1.0534226894378662,2.4068007469177246
1761315640052582000,5.026581787109375,-0.9264032244682312,0.8642581105232239,2.4142301082611084
1761315640062630000,5.0366298828125,-0.8303669691085815,0.8263093829154968,2.356843948364258
1761315640072676900,5.0466767578125,-0.8099607825279236,0.9390180706977844,2.1733992099761963
1761315640082724900,5.056724853515625,-0.800304651260376,1.0279277563095093,1.8635456562042236
1761315640092771800,5.066771728515625,-0.764961302280426,1.1082241535186768,1.4786731004714966
1761315640102819000,5.076819091796875,-0.7235462665557861,1.1524890661239624,1.002410650253296
1761315640112866800,5.08686669921875,-0.6371762156486511,1.1315782070159912,0.4554663300514221
1761315640122913800,5.096913818359375,-0.4822012782096863,1.0659821033477783,-0.07761330157518387
1761315640132961800,5.1069619140625,-0.4563156068325043,1.1139187812805176,-0.5296968817710876
1761315640143009000,5.117009033203125,-0.5809491276741028,1.2660651206970215,-0.8583943247795105
1761315640153056800,5.127056884765625,-0.740452766418457,1.4169529676437378,-1.0617754459381104
1761315640163103700,5.137103759765625,-0.7881848812103271,1.435168981552124,-1.0649456977844238
1761315640173150700,5.147150634765625,-0.549099326133728,1.3574308156967163,-0.8253740668296814
1761315640183199000,5.157198974609375,-0.08170338720083237,1.3025193214416504,-0.5417439341545105
1761315640193246000,5.167245849609375,0.4123944938182831,1.339308500289917,-0.4512156546115875
1761315640203293700,5.177293701171875,0.7185757160186768,1.5770941972732544,-0.5765538811683655
1761315640213340700,5.187340576171875,0.795444667339325,2.052663803100586,-0.7938174605369568
1761315640223388000,5.197387939453125,0.6824259757995605,2.6828486919403076,-1.0228397846221924
1761315640233436000,5.207435791015625,0.5615403056144714,3.271338939666748,-1.1371647119522095
1761315640243483000,5.21748291015625,0.583172082901001,3.6590137481689453,-0.9467321634292603
1761315640253530600,5.227530517578125,0.6855311989784241,3.6683058738708496,-0.445505291223526
1761315640263577900,5.237577880859375,0.6527543663978577,3.28944730758667,0.0633707195520401
1761315640273624800,5.247624755859375,0.29682740569114685,2.710308074951172,0.46121716499328613
1761315640283672800,5.2576728515625,-0.25018560886383057,2.037487030029297,0.7292984127998352
1761315640293719800,5.2677197265625,-0.4196920692920685,0.9163604378700256,0.8079907894134521
1761315640303767800,5.277767822265625,-0.18297328054904938,-0.3802858293056488,0.7918248772621155
1761315640313814800,5.287814697265625,0.2337706834077835,-1.4189327955245972,0.6146325469017029
1761315640323861800,5.29786181640625,0.7587481737136841,-1.92411208152771,0.45012056827545166
1761315640333909800,5.30790966796875,1.2796337604522705,-1.980525255203247,0.3727213740348816
1761315640343957000,5.31795703125,1.731339931488037,-1.593058466911316,0.2894371449947357
1761315640354004700,5.328004638671875,2.0047683715820312,-0.9760370850563049,0.13901861011981964
1761315640364051700,5.3380517578125,1.9562020301818848,-0.2704826295375824,0.03970160707831383
1761315640374100000,5.348099853515625,1.5039546489715576,0.3685346245765686,0.05096358060836792
1761315640384147000,5.35814697265625,0.8351507782936096,0.618651807308197,0.27974241971969604
1761315640394194000,5.36819384765625,0.1943042278289795,0.4338870048522949,0.6756226420402527
1761315640404242000,5.378241943359375,-0.2771804630756378,0.05728565901517868,1.1570457220077515
1761315640414288600,5.38828857421875,-0.5547215342521667,-0.25483736395835876,1.6174488067626953
1761315640424337000,5.3983369140625,-0.6534337401390076,-0.38265788555145264,2.064948558807373
1761315640434384000,5.4083837890625,-0.6110625863075256,-0.3867999017238617,2.409946918487549
1761315640444430800,5.418430908203125,-0.4582330882549286,-0.2664172947406769,2.5556352138519287
1761315640454478800,5.428478759765625,-0.26173466444015503,0.008223042823374271,2.48728084564209
1761315640464525800,5.43852587890625,-0.03230627253651619,0.35270264744758606,2.235402822494507
1761315640474573800,5.44857373046875,0.1978856474161148,0.6390843391418457,1.8604134321212769
1761315640484620800,5.458620849609375,0.3772423565387726,0.7949333190917969,1.4369604587554932
1761315640494667800,5.468667724609375,0.5078456401824951,0.8596633076667786,1.0634984970092773
1761315640504716000,5.478716064453125,0.6116220951080322,0.8669119477272034,0.8049659729003906
1761315640514762800,5.4887626953125,0.6789228320121765,0.8222177028656006,0.6729259490966797
1761315640524810800,5.498810791015625,0.6851285696029663,0.7263710498809814,0.651384711265564
1761315640534857700,5.508857666015625,0.6087930202484131,0.6536555886268616,0.7746301889419556
1761315640544907800,5.51890771484375,0.418976753950119,0.5770079493522644,0.9545853137969971
1761315640554956000,5.5289560546875,0.12195892632007599,0.35482093691825867,0.9718071818351746
1761315640565003000,5.5390029296875,-0.22988326847553253,0.013143498450517654,0.84661465883255
1761315640575050000,5.549050048828125,-0.5011909604072571,-0.3305235803127289,0.6722468137741089
1761315640585097700,5.55909765625,-0.638380229473114,-0.5187067985534668,0.44202959537506104
1761315640595144700,5.569144775390625,-0.6632341742515564,-0.26892468333244324,0.2946193814277649
1761315640605193000,5.57919287109375,-0.6613435745239258,0.4870801866054535,0.25350868701934814
1761315640615240000,5.589239990234375,-0.6343167424201965,1.3156790733337402,0.07449447363615036
1761315640625287700,5.59928759765625,-0.5807890892028809,1.8977842330932617,-0.5300723910331726
1761315640635335000,5.6093349609375,-0.49734053015708923,2.0068891048431396,-1.462298035621643
1761315640645382000,5.6193818359375,-0.3429059684276581,1.381530523300171,-2.5279014110565186
1761315640655430000,5.629429931640625,-0.037762027233839035,0.45941978693008423,-3.3819832801818848
1761315640665476900,5.639476806640625,0.37096261978149414,-0.32479432225227356,-3.7302534580230713
1761315640675524900,5.64952490234375,0.7016843557357788,-0.5300947427749634,-3.6069424152374268
1761315640685571800,5.65957177734375,1.1143743991851807,-0.4308328926563263,-3.3665449619293213
1761315640695618800,5.669618896484375,1.6900417804718018,-0.5185712575912476,-3.3480706214904785
1761315640705666800,5.679666748046875,2.3804845809936523,-0.8215715885162354,-3.6603188514709473
1761315640715713000,5.689713134765625,2.9336180686950684,-1.3552632331848145,-4.2599873542785645
1761315640725761300,5.69976123046875,3.022913932800293,-1.5718713998794556,-4.912752628326416
1761315640735808300,5.709808349609375,2.594679832458496,-1.5091798305511475,-5.388855457305908
1761315640745855000,5.71985498046875,1.7854065895080566,-1.1068845987319946,-5.155290603637695
1761315640755903000,5.729903076171875,0.8450127243995667,-0.5985028147697449,-4.202824115753174
1761315640765950200,5.7399501953125,0.07671288400888443,-0.2403806447982788,-2.7949798107147217
1761315640775998200,5.749998291015625,-0.3863881826400757,-0.20012670755386353,-1.320036768913269
1761315640786045200,5.760045166015625,-0.778775155544281,-0.1811644583940506,-0.16565847396850586
1761315640796092200,5.770092041015625,-1.2159162759780884,-0.2983368933200836,0.5226045846939087
1761315640806140200,5.78014013671875,-1.5620214939117432,-0.5490732192993164,0.9293966293334961
1761315640816187100,5.790187255859375,-1.7022690773010254,-0.7799242734909058,1.3249319791793823
1761315640826235100,5.800235107421875,-1.6822794675827026,-0.7119956016540527,1.7365977764129639
1761315640836282000,5.8102822265625,-1.5610917806625366,-0.13241688907146454,2.153350591659546
1761315640846329000,5.8203291015625,-1.3824628591537476,0.8429375886917114,2.526135206222534
1761315640856377000,5.830377197265625,-1.1704890727996826,1.8312954902648926,2.78501033782959
1761315640866424000,5.840424072265625,-0.9260032176971436,2.424753189086914,3.044085741043091
1761315640876472000,5.85047216796875,-0.6486067771911621,2.508577823638916,3.389997959136963
1761315640886519300,5.860519287109375,-0.4647764563560486,2.0263829231262207,3.7740519046783447
1761315640896566300,5.870566162109375,-0.49162405729293823,1.4342129230499268,4.061718463897705
1761315640906614000,5.880614013671875,-0.695099949836731,1.0714004039764404,4.247042655944824
1761315640916661000,5.890660888671875,-0.9881009459495544,0.8752428293228149,4.293304920196533
1761315640926709200,5.900709228515625,-1.2163447141647339,0.5966037511825562,4.253543376922607
1761315640936756200,5.910756103515625,-1.3064837455749512,0.27717435359954834,4.17729377746582
1761315640946803200,5.92080322265625,-1.2686247825622559,-0.02455860562622547,4.029914855957031
1761315640956851000,5.930850830078125,-1.1533751487731934,-0.2541577219963074,3.782325506210327
1761315640966898200,5.940898193359375,-1.001428484916687,-0.40507078170776367,3.4328501224517822
1761315640976946200,5.9509462890625,-0.8266635537147522,-0.3840038478374481,3.0614237785339355
1761315640986993200,5.9609931640625,-0.6501143574714661,-0.2927149534225464,2.584635019302368
1761315640997041200,5.971041259765625,-0.5498934984207153,-0.18612726032733917,1.9516805410385132
1761315641007088000,5.981088134765625,-0.5557684302330017,-0.12249875068664551,1.2011045217514038
1761315641017135000,5.991135009765625,-0.5360050797462463,-0.0816035196185112,0.3615017533302307
1761315641027183000,6.00118310546875,-0.3902684152126312,-0.11506693065166473,-0.4243358373641968
1761315641037230000,6.01122998046875,-0.09557845443487167,-0.20783814787864685,-1.1370341777801514
1761315641047278000,6.021278076171875,0.29069387912750244,-0.24423611164093018,-1.7650978565216064
1761315641057325000,6.031324951171875,0.6540436148643494,-0.13015879690647125,-2.291064977645874
1761315641067372000,6.0413720703125,0.8931552171707153,0.11027271300554276,-2.686513900756836
1761315641077420000,6.051419921875,0.9970589876174927,0.3552403748035431,-2.827286958694458
1761315641087467300,6.06146728515625,1.0952255725860596,0.41146478056907654,-2.5950987339019775
1761315641097515000,6.071514892578125,1.233188509941101,0.22655510902404785,-2.1439876556396484
1761315641107562000,6.08156201171875,1.3160572052001953,-0.024120250716805458,-1.6253591775894165
1761315641117609000,6.09160888671875,1.3165030479431152,-0.15360286831855774,-1.2198721170425415
1761315641127657200,6.1016572265625,1.2659687995910645,-0.2912246584892273,-1.173220157623291
1761315641137704200,6.1117041015625,1.0896427631378174,-0.40701064467430115,-1.539860725402832
1761315641147752000,6.121751953125,0.7399097681045532,-0.2717774510383606,-1.8836945295333862
1761315641157799000,6.131798828125,0.5341190695762634,-0.08948540687561035,-1.9956825971603394
1761315641167846100,6.14184619140625,0.4661852717399597,0.09689165651798248,-1.997994303703308
1761315641177894100,6.15189404296875,0.42800140380859375,0.4401869773864746,-1.968663215637207
1761315641187941000,6.161941162109375,0.3594532310962677,0.7442110180854797,-1.914185643196106
1761315641197989000,6.171989013671875,0.25541844964027405,0.8824126124382019,-1.7043136358261108
1761315641208036000,6.1820361328125,0.29382017254829407,0.7826849222183228,-1.152060627937317
1761315641218083000,6.1920830078125,0.6171153783798218,0.4888141453266144,-0.27787449955940247
1761315641228131000,6.202131103515625,1.1410987377166748,0.08520384132862091,0.5326564311981201
1761315641238178000,6.212177978515625,1.5404183864593506,-0.29773634672164917,0.9292072653770447
1761315641248226000,6.22222607421875,1.610537052154541,-0.3364725708961487,0.940017580986023
1761315641258273000,6.23227294921875,1.3813406229019165,-0.1537967473268509,0.7460027933120728
1761315641268320000,6.242320068359375,0.9620307087898254,0.031556859612464905,0.525627851486206
1761315641278368000,6.252367919921875,0.5519182682037354,-0.10704123228788376,0.39305195212364197
1761315641288415200,6.262415283203125,0.2496252804994583,-0.5066483020782471,0.3747115433216095
1761315641298463200,6.272463134765625,0.014026070013642311,-0.8829814195632935,0.4615383446216583
1761315641308510000,6.282510009765625,-0.16142937541007996,-1.0130805969238281,0.5632029175758362
1761315641318557000,6.292556884765625,-0.24415114521980286,-0.8618055582046509,0.6468405723571777
1761315641328605200,6.302605224609375,-0.2631472051143646,-0.5136374831199646,0.677314281463623
1761315641338652200,6.312652099609375,-0.2284422218799591,-0.06648048758506775,0.6236944794654846
1761315641348700200,6.3227001953125,-0.18097297847270966,0.3552475869655609,0.469001829624176
1761315641358747000,6.332746826171875,-0.09729832410812378,0.6525921821594238,0.3016919493675232
1761315641368794000,6.342794189453125,0.0014953649369999766,0.8057053089141846,0.16583824157714844
1761315641378842000,6.352842041015625,0.021859226748347282,0.8715794086456299,0.09225935488939285
1761315641388889000,6.36288916015625,-0.04313468560576439,0.8729701042175293,0.13663853704929352
1761315641398937300,6.372937255859375,-0.14467516541481018,0.8409269452095032,0.26297011971473694
1761315641408984000,6.382984130859375,-0.29307982325553894,0.7963714599609375,0.4315785765647888
1761315641419031000,6.393031005859375,-0.47403281927108765,0.7337413430213928,0.6109454035758972
1761315641429079000,6.4030791015625,-0.6616746187210083,0.622241735458374,0.8055569529533386
1761315641439126000,6.4131259765625,-0.8188930153846741,0.5123719573020935,1.0159988403320312
1761315641449174300,6.42317431640625,-0.8823100328445435,0.3352770507335663,1.2029764652252197
1761315641459221200,6.43322119140625,-0.8368027806282043,0.07732488214969635,1.3129277229309082
1761315641469269000,6.44326904296875,-0.7101718187332153,-0.18841411173343658,1.3073314428329468
1761315641479316000,6.45331591796875,-0.5531952977180481,-0.3973100781440735,1.1938616037368774
1761315641489363200,6.46336328125,-0.4257752597332001,-0.3916412591934204,1.0102888345718384
1761315641499411200,6.4734111328125,-0.33934131264686584,-0.21215060353279114,0.8222544193267822
1761315641509458200,6.483458251953125,-0.2586810886859894,0.03971918299794197,0.6638815999031067
1761315641519505000,6.4935048828125,-0.20838676393032074,0.2742632329463959,0.5360881686210632
1761315641529553200,6.50355322265625,-0.1694132685661316,0.46169865131378174,0.47530075907707214
1761315641539600100,6.51360009765625,-0.08747445791959763,0.5801701545715332,0.48411235213279724
1761315641549648100,6.523648193359375,0.048222124576568604,0.6278258562088013,0.5350397229194641
1761315641559695000,6.533695068359375,0.21464678645133972,0.6414990425109863,0.6371729969978333
1761315641569743000,6.5437431640625,0.4153149127960205,0.49619191884994507,0.77692049741745
1761315641579790000,6.5537900390625,0.5745551586151123,0.18912038207054138,0.8663361668586731
1761315641589837000,6.563837158203125,0.678880512714386,-0.1904871165752411,0.888383150100708
1761315641599885300,6.57388525390625,0.7086905837059021,-0.43449658155441284,0.8350754380226135
1761315641609932300,6.583932373046875,0.6340248584747314,-0.5146468281745911,0.6922336220741272
1761315641619979300,6.593979248046875,0.4475490152835846,-0.5615648031234741,0.43137404322624207
1761315641630027000,6.604027099609375,0.16754958033561707,-0.6365266442298889,-0.021703697741031647
1761315641640074000,6.614073974609375,-0.13561348617076874,-0.933213472366333,-0.6338011622428894
1761315641650122200,6.624122314453125,-0.3975990414619446,-1.3634353876113892,-1.1406521797180176
1761315641660169200,6.634169189453125,-0.5032508969306946,-1.6656471490859985,-1.187694787979126
1761315641670217000,6.644217041015625,-0.2604254484176636,-1.7426927089691162,-0.9243472814559937
1761315641680264000,6.654263916015625,0.13149358332157135,-1.1906689405441284,-0.47630104422569275
1761315641690311200,6.664311279296875,0.43048641085624695,-0.14997059106826782,0.0673617273569107
1761315641700359200,6.674359130859375,0.6304202675819397,0.8016471862792969,0.6631287336349487
1761315641710407200,6.6844072265625,0.8319938778877258,1.3603101968765259,1.3507459163665771
1761315641720455200,6.694455078125,0.9933721423149109,1.411494493484497,1.9705852270126343
1761315641730502100,6.704502197265625,1.0120296478271484,1.162231683731079,2.4416112899780273
1761315641740549400,6.71454931640625,0.9165979623794556,0.6389586329460144,2.8280904293060303
1761315641750597000,6.72459716796875,0.7219078540802002,-0.06606743484735489,3.0816493034362793
1761315641760644000,6.73464404296875,0.4440877139568329,-0.6321279406547546,3.176994562149048
1761315641770691000,6.744691162109375,0.07688891887664795,-0.9690579771995544,3.111304998397827
1761315641780739300,6.7547392578125,-0.2887822687625885,-1.2259172201156616,2.884946823120117
1761315641790786300,6.764786376953125,-0.5418877601623535,-1.3643946647644043,2.5478270053863525
1761315641800834300,6.774834228515625,-0.6742197275161743,-1.3325014114379883,2.1303908824920654
1761315641810881000,6.784881103515625,-0.6875115633010864,-1.1595834493637085,1.6251921653747559
1761315641820929300,6.79492919921875,-0.6421033143997192,-0.9232239127159119,1.0956958532333374
1761315641830976300,6.804976318359375,-0.5628244876861572,-0.6544318795204163,0.5868666768074036
1761315641841023200,6.815023193359375,-0.4834841191768646,-0.3501785099506378,0.1559603065252304
1761315641851071200,6.8250712890625,-0.4253148138523102,0.03967098146677017,-0.15412405133247375
1761315641861118200,6.8351181640625,-0.3965074121952057,0.4669181704521179,-0.348932683467865
1761315641871166200,6.845166259765625,-0.4153101146221161,0.8694078326225281,-0.4310171604156494
1761315641881213200,6.855213134765625,-0.4515613317489624,1.0500335693359375,-0.38529548048973083
1761315641891260200,6.86526025390625,-0.5214743614196777,0.7939652800559998,-0.3221096098423004
1761315641901308400,6.875308349609375,-0.6464788913726807,0.3049183487892151,-0.42335206270217896
1761315641911355100,6.885355224609375,-0.8222243189811707,-0.12011308968067169,-0.6748639345169067
1761315641921403100,6.895403076171875,-1.0260155200958252,-0.32655149698257446,-0.959224283695221
1761315641931450000,6.9054501953125,-1.1864571571350098,-0.40363773703575134,-1.215941071510315
1761315641941497300,6.915497314453125,-1.2807775735855103,-0.4217107594013214,-1.4422649145126343
1761315641951545300,6.92554541015625,-1.252192497253418,-0.3238055109977722,-1.6353644132614136
1761315641961592300,6.93559228515625,-1.1089932918548584,-0.11047884076833725,-1.823623776435852
1761315641971639000,6.94563916015625,-0.8811622262001038,0.04910362884402275,-2.055121898651123
1761315641981687300,6.955687255859375,-0.6049668788909912,0.1445513218641281,-2.3140175342559814
1761315641991734300,6.965734375,-0.3870185613632202,0.15562820434570312,-2.673537254333496
1761315642001782300,6.9757822265625,-0.2833198606967926,0.025895779952406883,-3.169393301010132
1761315642011829200,6.985829345703125,-0.24523505568504333,-0.2704157829284668,-3.716769218444824
1761315642021877200,6.995877197265625,-0.20463250577449799,-0.6628320217132568,-4.164806842803955
1761315642031924200,7.00592431640625,-0.19642090797424316,-1.1752580404281616,-4.474000453948975
1761315642041971200,7.01597119140625,-0.2969810664653778,-1.700872778892517,-4.568603515625
1761315642052019200,7.026019287109375,-0.5321568250656128,-2.128286361694336,-4.404219627380371
1761315642062066400,7.03606640625,-0.7546191811561584,-2.5177369117736816,-4.0445876121521
1761315642072113200,7.046113037109375,-0.8148154616355896,-2.9516453742980957,-3.7283833026885986
1761315642082161200,7.0561611328125,-0.6454708576202393,-3.458599328994751,-3.5431363582611084
1761315642092208000,7.0662080078125,-0.1300373673439026,-4.099849224090576,-3.5662381649017334
1761315642102256400,7.07625634765625,0.6433041095733643,-4.855395317077637,-4.004073143005371
1761315642112303400,7.086303466796875,1.4532073736190796,-5.43385648727417,-4.805176258087158
1761315642122350300,7.096350341796875,2.060757875442505,-5.462451934814453,-5.832502365112305
1761315642132398000,7.106398193359375,2.406146764755249,-4.928543567657471,-7.13041353225708
1761315642142445300,7.1164453125,2.632415294647217,-3.651275396347046,-8.49993896484375
1761315642152493300,7.126493408203125,2.7638580799102783,-1.9835820198059082,-9.48322582244873
1761315642162540300,7.136540283203125,2.670295476913452,-0.34852683544158936,-9.536027908325195
1761315642172587300,7.146587158203125,2.4334542751312256,0.881742537021637,-8.288853645324707
1761315642182635300,7.15663525390625,2.009408712387085,1.1639126539230347,-5.989120006561279
1761315642192682200,7.16668212890625,1.260407567024231,0.4883688688278198,-3.246422052383423
1761315642202730200,7.176730224609375,0.30291059613227844,-0.8909506797790527,-0.6378923058509827
1761315642212777200,7.186777099609375,-0.6557043194770813,-2.6089768409729004,1.4305130243301392
1761315642222824400,7.196824462890625,-1.3091598749160767,-3.845454454421997,2.7763826847076416
1761315642232872200,7.2068720703125,-1.5527592897415161,-4.053922653198242,3.601364850997925
1761315642242919200,7.216919189453125,-1.514374017715454,-3.194669246673584,4.08744478225708
1761315642252967200,7.22696728515625,-1.322889804840088,-1.72492516040802,4.2208685874938965
1761315642263014400,7.237014404296875,-1.1120936870574951,-0.1856638789176941,4.050535678863525
1761315642273061400,7.247061279296875,-1.07317054271698,0.9523637294769287,3.7047934532165527
1761315642283109000,7.257109130859375,-1.2402338981628418,1.523711919784546,3.4065306186676025
1761315642293156000,7.267156005859375,-1.524825096130371,1.5956835746765137,3.2944540977478027
1761315642303204400,7.277204345703125,-1.7572200298309326,1.2413071393966675,3.46645450592041
1761315642313251300,7.287251220703125,-1.919205665588379,0.569269061088562,3.818514347076416
1761315642323298300,7.29729833984375,-2.0604426860809326,-0.07033621519804001,4.196470260620117
1761315642333346000,7.307345947265625,-2.2260642051696777,-0.5156670808792114,4.438122272491455
1761315642343393300,7.317393310546875,-2.367936372756958,-0.7067369222640991,4.477480888366699
1761315642353441300,7.327441162109375,-2.4079713821411133,-0.6625404357910156,4.341724395751953
1761315642363488300,7.33748828125,-2.3831052780151367,-0.4265153706073761,4.093095302581787
1761315642373535200,7.34753515625,-2.3622076511383057,-0.07028108835220337,3.8005027770996094
1761315642383583200,7.357583251953125,-2.382894277572632,0.22431646287441254,3.4763636589050293
1761315642393630200,7.367630126953125,-2.4364304542541504,0.4268927276134491,3.0824992656707764
1761315642403678200,7.37767822265625,-2.4400007724761963,0.5659257173538208,2.6723132133483887
1761315642413725200,7.38772509765625,-2.3360657691955566,0.5908907055854797,2.344536304473877
1761315642423772400,7.3977724609375,-2.1791064739227295,0.508012592792511,2.0924055576324463
1761315642433820200,7.407820068359375,-2.0344178676605225,0.44819536805152893,1.8622204065322876
1761315642443867100,7.4178671875,-1.952501893043518,0.4183109700679779,1.5956764221191406
1761315642453915100,7.4279150390625,-1.9015092849731445,0.30001309514045715,1.3206610679626465
1761315642463962400,7.43796240234375,-1.7249584197998047,0.18209736049175262,1.0922142267227173
1761315642474009300,7.44800927734375,-1.4066052436828613,0.10047121345996857,0.8826466798782349
1761315642484057000,7.45805712890625,-0.9475963711738586,-0.10418445616960526,0.7327256202697754
1761315642494104000,7.46810400390625,-0.3530760407447815,-0.3208901286125183,0.7621822953224182
1761315642504152300,7.47815234375,0.2457626312971115,-0.2757090628147125,0.9352659583091736
1761315642514199300,7.48819921875,0.654373288154602,-0.07569555938243866,0.9969828128814697
1761315642524246300,7.498246337890625,0.8597461581230164,0.11597666889429092,0.7975152730941772
1761315642534294000,7.5082939453125,0.9238521456718445,0.0837649405002594,0.2141282707452774
1761315642544341200,7.51834130859375,0.9061919450759888,-0.5070900917053223,-0.904452919960022
1761315642554389200,7.52838916015625,0.7858796715736389,-1.2712939977645874,-2.2336089611053467
1761315642564436200,7.538436279296875,0.6890468597412109,-1.5018279552459717,-3.3544321060180664
1761315642574483200,7.548483154296875,0.7967370748519897,-1.2205826044082642,-4.1172943115234375
1761315642584531200,7.55853125,1.2172517776489258,-0.4555744528770447,-4.510031223297119
1761315642594578200,7.568578125,2.078939437866211,0.6384395956993103,-4.484071731567383
1761315642604626200,7.578626220703125,2.874486207962036,1.2981432676315308,-4.516536712646484
1761315642614673200,7.588673095703125,3.1254446506500244,1.5868351459503174,-4.45442008972168
1761315642624720400,7.598720458984375,3.096245288848877,1.5503389835357666,-3.9037954807281494
1761315642634768100,7.60876806640625,2.880510091781616,1.1708464622497559,-3.0718600749969482
1761315642644815000,7.618815185546875,2.3436439037323,0.726926326751709,-2.0726728439331055
1761315642654862000,7.628862060546875,1.5071665048599243,0.07245688885450363,-1.1814900636672974
1761315642664910300,7.638910400390625,0.6338171362876892,-0.7739707827568054,-0.44272229075431824
1761315642674957300,7.648957275390625,0.10929986089468002,-1.487619161605835,0.1943311244249344
1761315642685005300,7.65900537109375,-0.06327564269304276,-1.8488857746124268,0.7744714617729187
1761315642695052000,7.669052001953125,-0.07956859469413757,-1.9076027870178223,1.3402336835861206
1761315642705099300,7.679099365234375,-0.146183580160141,-1.8005424737930298,1.8434520959854126
1761315642715146000,7.68914599609375,-0.35573679208755493,-1.6529889106750488,2.2761189937591553
1761315642725193200,7.699193115234375,-0.7256307005882263,-1.4774240255355835,2.609414577484131
1761315642735241200,7.7092412109375,-1.1318855285644531,-1.294790506362915,2.8667824268341064
1761315642745288200,7.7192880859375,-1.4515745639801025,-1.1750718355178833,3.056739568710327
1761315642755335200,7.729335205078125,-1.7139630317687988,-1.1093621253967285,3.1494057178497314
1761315642765383200,7.739383056640625,-1.919786810874939,-1.0427048206329346,3.1137373447418213
1761315642775430100,7.74943017578125,-1.980162262916565,-0.9022656679153442,2.9668922424316406
1761315642785478100,7.75947802734375,-1.927406668663025,-0.676800012588501,2.7797365188598633
1761315642795525000,7.769525146484375,-1.8262869119644165,-0.40301910042762756,2.5580263137817383
1761315642805572000,7.779572021484375,-1.7187261581420898,-0.1687602549791336,2.2624166011810303
1761315642815620000,7.7896201171875,-1.6338807344436646,0.006789196282625198,1.9549282789230347
1761315642825667000,7.7996669921875,-1.610829472541809,0.10744283348321915,1.726794958114624
1761315642835715000,7.809715087890625,-1.6705939769744873,0.17203088104724884,1.6102174520492554
1761315642845762300,7.81976220703125,-1.7602927684783936,0.20523597300052643,1.586031198501587
1761315642855809300,7.829809326171875,-1.8430858850479126,0.1858854442834854,1.5747066736221313
1761315642865857000,7.83985693359375,-1.8882943391799927,0.09076638519763947,1.4885081052780151
1761315642875904000,7.849904052734375,-1.8925764560699463,-0.10485104471445084,1.3021422624588013
1761315642885952300,7.8599521484375,-1.871903419494629,-0.33445948362350464,0.9817413091659546
1761315642895999200,7.869999267578125,-1.7995634078979492,-0.5680245757102966,0.5658599138259888
1761315642906046200,7.880046142578125,-1.6599799394607544,-0.762860894203186,0.15610012412071228
1761315642916094000,7.890093994140625,-1.481279969215393,-0.8109988570213318,-0.18387742340564728
1761315642926141200,7.90014111328125,-1.274613380432129,-0.700691819190979,-0.4651879370212555
1761315642936189200,7.910189208984375,-1.0477248430252075,-0.4444115459918976,-0.7104317545890808
1761315642946236200,7.920236083984375,-0.8239008188247681,0.0013006879016757011,-0.9044643640518188
1761315642956283100,7.930283203125,-0.5804378390312195,0.5563548803329468,-1.059340000152588
1761315642966331100,7.9403310546875,-0.32490432262420654,1.0819875001907349,-1.1560771465301514
1761315642976378000,7.950378173828125,-0.03706907108426094,1.528726577758789,-1.2517451047897339
1761315642986425000,7.960425048828125,0.2986748516559601,1.8658498525619507,-1.3746193647384644
1761315642996473000,7.97047314453125,0.7075023055076599,1.9937752485275269,-1.5450762510299683
1761315643006520000,7.98052001953125,1.2394835948944092,1.7472124099731445,-1.9400933980941772
1761315643016568000,7.990568115234375,1.810408592224121,1.1679165363311768,-2.719543695449829
1761315643026615000,8.000614990234375,2.2652862071990967,0.3630234897136688,-3.888298273086548
1761315643036662000,8.010662109375,2.3885953426361084,-0.5256246328353882,-5.301484107971191
1761315643046710300,8.020710205078124,2.1864352226257324,-1.101412296295166,-6.439367771148682
1761315643056757200,8.03075732421875,2.0677683353424072,-0.9913672804832458,-6.818813323974609
1761315643066805200,8.04080517578125,2.249547004699707,0.07065366208553314,-6.3703107833862305
1761315643076852000,8.05085205078125,2.466174840927124,1.6974363327026367,-4.951624870300293
1761315643086899000,8.06089892578125,2.6470420360565186,3.305246114730835,-2.725736141204834
1761315643096947200,8.070947265625,2.4467880725860596,3.600573778152466,-0.6902652382850647
1761315643106994200,8.080994140625,1.7552939653396606,2.658902406692505,0.9639556407928467
1761315643117042200,8.091042236328125,0.9102048277854919,1.1392343044281006,2.5693001747131348
1761315643127089200,8.101089111328125,0.3585168719291687,-0.2433447390794754,4.1553635597229
1761315643137136000,8.11113623046875,0.15857313573360443,-1.0236083269119263,5.480950832366943
1761315643147184000,8.12118408203125,0.14570847153663635,-1.127644658088684,6.182185173034668
1761315643157231000,8.131231201171875,0.1159905195236206,-0.7243028283119202,6.086111545562744
1761315643167279400,8.141279296875,-0.03925259783864021,-0.12691347301006317,5.41829776763916
1761315643177326000,8.151326171875,-0.2841765880584717,0.4040995240211487,4.59871244430542
1761315643187373000,8.161373046875,-0.5996285676956177,0.8046571016311646,3.9272048473358154
1761315643197421000,8.171421142578126,-0.9071033000946045,0.9844681024551392,3.454711437225342
1761315643207468000,8.181468017578124,-1.1602857112884521,0.9518212080001831,3.1420884132385254
1761315643217516300,8.191516357421875,-1.3361992835998535,0.8560914993286133,2.9445011615753174
1761315643227563300,8.201563232421876,-1.4206219911575317,0.8254624605178833,2.8533172607421875
1761315643237610000,8.21160986328125,-1.4388478994369507,0.8484029769897461,2.813540458679199
1761315643247658200,8.221658203125,-1.3962862491607666,0.8588284254074097,2.780611753463745
1761315643257705200,8.231705322265626,-1.3510253429412842,0.8365167379379272,2.727875232696533
1761315643267752200,8.241752197265624,-1.340048909187317,0.7285599112510681,2.6274867057800293
1761315643277800200,8.25180029296875,-1.3504657745361328,0.3482399880886078,2.44930100440979
1761315643287847200,8.26184716796875,-1.397731900215149,-0.40250164270401,2.096112012863159
1761315643297895200,8.271895263671874,-1.4730726480484009,-1.278425693511963,1.6049686670303345
1761315643307942100,8.281942138671875,-1.5814130306243896,-1.8074549436569214,1.0653622150421143
1761315643317989000,8.291989013671875,-1.7479369640350342,-1.8545111417770386,0.5415245294570923
1761315643328037400,8.302037353515624,-1.8765807151794434,-1.6481573581695557,0.07359538972377777
1761315643338084000,8.312083984375,-1.8179222345352173,-1.2373543977737427,-0.5043199062347412
1761315643348132000,8.322132080078125,-1.4776296615600586,-0.7447015643119812,-1.2241840362548828
1761315643358179000,8.332178955078126,-0.8789102435112,-0.24695917963981628,-2.0986809730529785
1761315643368226000,8.34222607421875,-0.10465743392705917,0.02002670429646969,-3.066807985305786
1761315643378274300,8.3522744140625,0.645706832408905,-0.1563347429037094,-4.149370193481445
1761315643388321300,8.3623212890625,1.2439846992492676,-0.5841342806816101,-5.127171039581299
1761315643398369000,8.372369140625,1.7703847885131836,-1.2331418991088867,-5.731814861297607
1761315643408416000,8.382416015625,2.3152647018432617,-1.9591845273971558,-5.864526748657227
1761315643418463200,8.392463134765626,2.8588459491729736,-2.714291572570801,-5.735824108123779
1761315643428511200,8.40251123046875,3.503223180770874,-3.606235980987549,-5.47039270401001
1761315643438558200,8.41255810546875,4.51125955581665,-4.727632522583008,-5.596541881561279
1761315643448606200,8.422606201171876,5.674349308013916,-5.735165119171143,-6.407369613647461
1761315643458653200,8.432653076171874,6.791568756103516,-5.693274974822998,-7.488496780395508
1761315643468700200,8.4427001953125,7.544558048248291,-4.057319641113281,-8.366637229919434
1761315643478748200,8.452748046875,7.583462238311768,-1.1070609092712402,-8.79819393157959
1761315643488795100,8.462795166015624,6.704426288604736,1.9485944509506226,-8.745100975036621
1761315643498842000,8.472842041015625,4.822874069213867,4.063558578491211,-8.093087196350098
1761315643508890000,8.48289013671875,3.0452892780303955,4.9939165115356445,-6.475604057312012
1761315643518937000,8.49293701171875,2.0002801418304443,4.522613048553467,-4.002407073974609
1761315643528985300,8.5029853515625,1.2846177816390991,3.2076637744903564,-1.1263376474380493
1761315643539032300,8.5130322265625,0.6121991872787476,1.4087592363357544,1.5372873544692993
1761315643549079300,8.523079345703126,-0.08064291626214981,-0.7212045192718506,3.621246099472046
1761315643559127000,8.533126953125,-0.7499208450317383,-2.5991158485412598,4.936071395874023
1761315643569174000,8.543174072265625,-1.2328840494155884,-3.7442681789398193,5.558933258056641
1761315643579222300,8.55322216796875,-1.6403261423110962,-3.8320882320404053,5.463576316833496
1761315643589269200,8.563269287109375,-2.0043532848358154,-2.8912198543548584,4.851620197296143
1761315643599316200,8.573316162109375,-2.131507396697998,-1.3640756607055664,3.7103869915008545
1761315643609364000,8.583364013671876,-1.9547053575515747,0.18023449182510376,2.399570941925049
1761315643619411200,8.5934111328125,-1.6163175106048584,1.5159317255020142,1.240447998046875
1761315643629458200,8.603458251953125,-1.2527052164077759,2.661691188812256,0.3743501603603363
1761315643639506200,8.613506103515626,-0.987246036529541,3.116328239440918,-0.24793577194213867
1761315643649553200,8.62355322265625,-0.854918360710144,3.232116222381592,-0.5569236874580383
1761315643659601200,8.63360107421875,-0.8941672444343567,3.0440142154693604,-0.5528916716575623
1761315643669648100,8.643648193359375,-0.9907031059265137,2.44221568107605,-0.24574904143810272
1761315643679695000,8.653695068359376,-1.0364476442337036,1.574896216392517,0.22549676895141602
1761315643689743000,8.6637431640625,-1.0222322940826416,0.5720909237861633,0.6612213253974915
1761315643699790300,8.673790283203125,-0.9744775295257568,-0.26314589381217957,0.94024658203125
1761315643709838800,8.6838388671875,-0.9408956170082092,-0.7133902907371521,1.0156790018081665
1761315643719885800,8.6938857421875,-0.858802855014801,-1.1556731462478638,0.92231684923172
1761315643729932800,8.703932861328125,-0.7002073526382446,-1.3831827640533447,0.5980948209762573
1761315643739981000,8.71398095703125,-0.4880378544330597,-1.3152127265930176,0.261513888835907
1761315643750027800,8.72402783203125,-0.23909486830234528,-1.3067255020141602,0.025891251862049103
1761315643760075800,8.73407568359375,0.03496677055954933,-1.2830926179885864,-0.06352251768112183
1761315643770122800,8.744122802734376,0.31293368339538574,-1.2029293775558472,-0.01944746822118759
1761315643780170000,8.754169921875,0.5030311942100525,-0.6215847134590149,-0.04345240071415901
1761315643790218000,8.764218017578125,0.616647481918335,0.3412571847438812,-0.041851840913295746
1761315643800265000,8.774264892578126,0.7300968170166016,1.4359396696090698,0.1795218288898468
1761315643810312700,8.784312744140625,0.9045376181602478,2.225227117538452,0.40261295437812805
1761315643820360000,8.79435986328125,1.1363894939422607,2.9415946006774902,0.5824114680290222
1761315643830407000,8.804406982421876,1.2255382537841797,3.3338160514831543,0.6544569134712219
1761315643840455000,8.814454833984374,1.0481666326522827,3.1394221782684326,0.7286912202835083
1761315643850502000,8.824501953125,0.5566602945327759,2.136894702911377,0.8305763006210327
1761315643860548900,8.834548828125,-0.11123570799827576,0.7400192022323608,0.9705453515052795
1761315643870596900,8.844596923828124,-0.799774706363678,-0.9794334173202515,0.9663658142089844
1761315643880643800,8.854643798828125,-1.318459153175354,-2.0890190601348877,0.9874972105026245
1761315643890691800,8.86469189453125,-1.3698639869689941,-1.8701353073120117,1.1264396905899048
1761315643900739000,8.874739013671874,-1.3425769805908203,-1.413070559501648,1.4717882871627808
1761315643910783700,8.88478369140625,-1.2749683856964111,-1.0425785779953003,1.857094407081604
1761315643920831000,8.8948310546875,-1.129813551902771,-0.8365615010261536,2.1475589275360107
1761315643930878000,8.9048779296875,-0.9885326027870178,-0.6409573554992676,2.2673494815826416
1761315643940926000,8.914926025390624,-0.8710818886756897,-0.30469146370887756,2.123549699783325
1761315643950972700,8.92497265625,-0.48779043555259705,-0.0896151065826416,1.3709689378738403
1761315643961021000,8.93502099609375,0.09114722162485123,0.48329290747642517,0.4499378800392151
1761315643971068000,8.94506787109375,0.6171582937240601,1.508606195449829,-0.09207639843225479
1761315643981115000,8.955114990234375,0.9497868418693542,2.700059652328491,-0.27849286794662476
1761315643991163000,8.965162841796875,1.1153494119644165,3.703993558883667,-0.24447578191757202
1761315644001209900,8.9752099609375,1.1227694749832153,3.9752025604248047,-0.17499151825904846
1761315644011256800,8.9852568359375,1.0581470727920532,3.231788396835327,-0.1655583381652832
1761315644021304800,8.995304931640625,0.9491817355155945,2.3057591915130615,-0.07016364485025406
1761315644031351800,9.005351806640626,0.7933365106582642,1.648628830909729,0.17102660238742828
1761315644041400000,9.015400146484374,0.6071293354034424,1.2038897275924683,0.49556154012680054
1761315644051447000,9.025447021484375,0.3844456672668457,0.9444607496261597,0.8015505075454712
1761315644061493800,9.03549365234375,0.12747806310653687,0.8143286108970642,1.0299469232559204
1761315644071541800,9.045541748046874,-0.1306980848312378,0.6827865839004517,1.163208246231079
1761315644081588700,9.055588623046875,-0.27605849504470825,0.49779221415519714,1.1849114894866943
1761315644091637000,9.065636962890625,-0.2787538766860962,0.33825233578681946,1.1253077983856201
1761315644101684000,9.07568408203125,-0.18898484110832214,0.15388649702072144,0.9785183668136597
1761315644111730700,9.085730712890625,-0.06443970650434494,-0.006509564816951752,0.8055790662765503
1761315644121779000,9.095779052734375,0.03302692621946335,-0.11218299716711044,0.6216803193092346
1761315644131826000,9.105825927734376,0.05679909884929657,-0.13118945062160492,0.37760987877845764
1761315644141874000,9.1158740234375,0.025416675955057144,-0.04917393624782562,0.10745108872652054
1761315644151921000,9.1259208984375,-0.03519260883331299,0.08215159177780151,-0.14253930747509003
1761315644161967900,9.1359677734375,-0.07928736507892609,0.21055804193019867,-0.35535597801208496
1761315644172015900,9.146015869140625,-0.04724740609526634,0.249259352684021,-0.46239373087882996
1761315644182062800,9.156062744140625,0.04008270427584648,0.1960267573595047,-0.4378923773765564
1761315644192109800,9.16610986328125,0.15219245851039886,0.12910738587379456,-0.35790249705314636
1761315644202158000,9.176157958984374,0.2403137981891632,0.12324923276901245,-0.2571322023868561
1761315644212205000,9.186205078125,0.255569726228714,0.2407476305961609,-0.1450493335723877
1761315644222252800,9.196252685546876,0.18333227932453156,0.4024161398410797,-0.08460250496864319
1761315644232299800,9.2062998046875,0.056350622326135635,0.5307464003562927,-0.08330181241035461
1761315644242346800,9.2163466796875,-0.08601264655590057,0.5691553354263306,-0.08450876176357269
1761315644252395000,9.22639501953125,-0.2023930549621582,0.5648234486579895,-0.039855003356933594
1761315644262442000,9.23644189453125,-0.255163311958313,0.5712968111038208,0.07493842393159866
1761315644272489700,9.24648974609375,-0.24579991400241852,0.5420872569084167,0.21220652759075165
1761315644282536700,9.25653662109375,-0.20265190303325653,0.47304344177246094,0.31963950395584106
1761315644292584000,9.266583984375,-0.13001765310764313,0.3995276987552643,0.3773896396160126
1761315644302632000,9.2766318359375,-0.0404941625893116,0.3402901887893677,0.3962794244289398
1761315644312679000,9.286678955078125,0.05102430284023285,0.27779778838157654,0.3704696595668793
1761315644322726000,9.296725830078126,0.12901949882507324,0.22116221487522125,0.30638495087623596
1761315644332774000,9.30677392578125,0.2003762423992157,0.18962877988815308,0.21962477266788483
1761315644342820900,9.31682080078125,0.2575511038303375,0.22634392976760864,0.12850737571716309
1761315644352868900,9.326868896484376,0.2890235483646393,0.3281874656677246,0.03583922237157822
1761315644362915800,9.336915771484374,0.2938574552536011,0.4273039400577545,-0.052317798137664795
1761315644372963000,9.346963134765625,0.28290972113609314,0.4862399399280548,-0.11620143800973892
1761315644383010800,9.3570107421875,0.24346432089805603,0.4880357086658478,-0.15161669254302979
1761315644393057800,9.367057861328124,0.19735115766525269,0.4532897174358368,-0.14589515328407288
1761315644403106000,9.37710595703125,0.16085253655910492,0.40743300318717957,-0.10244568437337875
1761315644413153000,9.387153076171876,0.14357393980026245,0.3309667408466339,-0.0639888346195221
1761315644423200000,9.397199951171874,0.14130066335201263,0.2234400063753128,-0.04094024375081062
1761315644433247700,9.407247802734375,0.16982924938201904,0.1148485541343689,-0.01146730501204729
1761315644443294700,9.417294677734375,0.19685474038124084,-0.02779487892985344,0.029086513444781303
1761315644453342000,9.427342041015624,0.19619667530059814,-0.19338677823543549,0.08974586427211761
1761315644463390000,9.437389892578125,0.18802236020565033,-0.2828788459300995,0.15590384602546692
1761315644473437000,9.44743701171875,0.15177194774150848,-0.30769631266593933,0.2014700025320053
1761315644483484700,9.457484619140626,0.10055243968963623,-0.2645469605922699,0.22711890935897827
1761315644493532000,9.467531982421875,0.0510176457464695,-0.15782850980758667,0.20758141577243805
1761315644503579000,9.477578857421875,0.010207896120846272,-0.05776209756731987,0.14023460447788239
1761315644513627000,9.487626953125,0.005421929527074099,0.05971526354551315,0.0866808295249939
1761315644523673900,9.497673828125,0.012118182145059109,0.1733400970697403,0.06258028745651245
1761315644533721900,9.507721923828125,0.013925136998295784,0.22282002866268158,0.04958060383796692
1761315644543769900,9.517769775390626,0.017227189615368843,0.2458401322364807,0.054794274270534515
1761315644553816800,9.52781689453125,0.030771227553486824,0.2700245678424835,0.10474958270788193
1761315644563864800,9.53786474609375,0.023861391469836235,0.2874818444252014,0.18679757416248322
1761315644573911800,9.547911865234376,-0.008550877682864666,0.2820327579975128,0.2573130130767822
1761315644583958800,9.557958740234374,-0.048357147723436356,0.24795973300933838,0.29899361729621887
1761315644594006800,9.5680068359375,-0.0983678475022316,0.15562820434570312,0.292366087436676
1761315644604054000,9.578053955078126,-0.1495375633239746,0.0681401714682579,0.26906847953796387
1761315644614101800,9.588101806640625,-0.18703113496303558,0.04842452332377434,0.2633298933506012
1761315644624148700,9.598148681640625,-0.20567061007022858,0.08453618735074997,0.29229605197906494
1761315644634195700,9.60819580078125,-0.20583118498325348,0.15650731325149536,0.3161909878253937
1761315644644244000,9.618243896484374,-0.18496745824813843,0.20040392875671387,0.3129296898841858
1761315644654291000,9.628291015625,-0.1469220668077469,0.22025594115257263,0.28470176458358765
1761315644664338000,9.638337890625,-0.09836012870073318,0.22515375912189484,0.25344932079315186
1761315644674385700,9.6483857421875,-0.0673137903213501,0.1484949290752411,0.21591338515281677
1761315644684432600,9.6584326171875,-0.04711691290140152,0.040408674627542496,0.20070913434028625
1761315644694481000,9.66848095703125,-0.027522437274456024,-0.03423067554831505,0.20852018892765045
1761315644704528000,9.67852783203125,-0.0005137237603776157,-0.036075446754693985,0.23414485156536102
1761315644714574600,9.68857470703125,0.02291703410446644,0.022517027333378792,0.24546435475349426
1761315644724622600,9.69862255859375,0.05608776956796646,0.08879511803388596,0.25198403000831604
1761315644734669600,9.708669677734376,0.07902291417121887,0.12195146828889847,0.2714453637599945
1761315644744717600,9.718717529296875,0.09419307857751846,0.11121280491352081,0.29800212383270264
1761315644754764500,9.7287646484375,0.09792257100343704,0.08903293311595917,0.314334511756897
1761315644764811500,9.7388115234375,0.08369649201631546,0.03629276156425476,0.29644471406936646
1761315644774859800,9.74885986328125,0.05553436651825905,-0.047998152673244476,0.24220943450927734
1761315644784906800,9.75890673828125,0.027908064424991608,-0.16274790465831757,0.16218943893909454
1761315644794953500,9.768953369140625,0.0030951257795095444,-0.21228615939617157,0.09714199602603912
1761315644805001500,9.77900146484375,-0.012471583671867847,-0.1636192947626114,0.05356762185692787
1761315644815048700,9.789048583984375,-0.02696317434310913,-0.08812905848026276,0.025644376873970032
1761315644825096700,9.7990966796875,-0.03846563398838043,0.015440475195646286,0.021732458844780922
1761315644835143700,9.809143798828124,-0.05975893884897232,0.10282917320728302,0.03215154632925987
1761315644845190400,9.8191904296875,-0.08797379583120346,0.16208185255527496,0.05059153959155083
1761315644855238700,9.82923876953125,-0.11816312372684479,0.2109319418668747,0.08037713170051575
1761315644865285600,9.83928564453125,-0.1400604397058487,0.2440294474363327,0.12117063254117966
1761315644875333600,9.849333740234375,-0.15780293941497803,0.2517898976802826,0.15091121196746826
1761315644885380600,9.859380615234375,-0.18030612170696259,0.22669386863708496,0.16645263135433197
1761315644895427600,9.869427490234376,-0.1934879720211029,0.17843098938465118,0.1748088300228119
1761315644905475600,9.8794755859375,-0.1892855018377304,0.1170339435338974,0.1865757405757904
1761315644915522600,9.8895224609375,-0.14712420105934143,0.05450345575809479,0.1966685801744461
1761315644925569500,9.899569580078126,-0.0746942088007927,0.044256675988435745,0.2320723831653595
1761315644935617800,9.90961767578125,-0.009504555724561214,0.09875907003879547,0.2913474142551422
1761315644945664800,9.919664794921875,0.036806218326091766,0.20263725519180298,0.34637099504470825
1761315644955712500,9.92971240234375,0.08514179289340973,0.31240132451057434,0.39313557744026184
1761315644965759500,9.939759521484374,0.12307372689247131,0.4103659689426422,0.450769305229187
1761315644975806700,9.949806640625,0.14297500252723694,0.4590168595314026,0.49494367837905884
1761315644985854700,9.959854736328126,0.15634965896606445,0.42286497354507446,0.501947820186615
1761315644995901700,9.969901611328124,0.17637662589550018,0.3352664113044739,0.48998087644577026
1761315645005949400,9.979949462890625,0.19494818150997162,0.2024947851896286,0.4775862693786621
1761315645015996700,9.98999658203125,0.20529083907604218,0.06588287651538849,0.47482937574386597
1761315645026043600,10.000043701171874,0.20807357132434845,-0.026131736114621162,0.4648236036300659
1761315645036091600,10.010091552734375,0.22070494294166565,-0.053036853671073914,0.44624245166778564
1761315645046138600,10.020138671875,0.24679034948349,-0.007300523575395346,0.45199915766716003
1761315645056185600,10.030185546875,0.26804742217063904,0.07836378365755081,0.44593754410743713
1761315645066233600,10.040233642578125,0.29435253143310547,0.17002925276756287,0.4245310425758362
1761315645076280600,10.050280517578125,0.30345389246940613,0.24784894287586212,0.3737637400627136
1761315645086328600,10.06032861328125,0.3203955888748169,0.2990298569202423,0.2764585018157959
1761315645096375800,10.070375732421875,0.3345590829849243,0.3143094778060913,0.14273132383823395
1761315645106422800,10.0804228515625,0.36056962609291077,0.31238800287246704,0.007170294877141714
1761315645116470500,10.090470458984376,0.40066513419151306,0.2780321538448334,-0.10314369201660156
1761315645126517500,10.100517578125,0.43603402376174927,0.18487344682216644,-0.20312967896461487
1761315645136564500,10.110564453125,0.4795956313610077,0.0779520571231842,-0.2949877083301544
1761315645146612700,10.12061279296875,0.5380709171295166,0.02298094891011715,-0.35493919253349304
1761315645156659700,10.13065966796875,0.5760332345962524,0.0193736981600523,-0.3896407186985016
1761315645166707500,10.14070751953125,0.584138810634613,0.04547081142663956,-0.3931733965873718
1761315645176754700,10.150754638671875,0.5713551044464111,0.11620943248271942,-0.35384809970855713
1761315645186801700,10.1608017578125,0.5554999709129333,0.20073576271533966,-0.2778659760951996
1761315645196849700,10.170849609375,0.5379571914672852,0.2657991945743561,-0.1784091591835022
1761315645206896600,10.180896728515625,0.5157530903816223,0.2834937572479248,-0.07677707076072693
1761315645216944600,10.190944580078124,0.4845786690711975,0.2531273365020752,-0.003638410707935691
1761315645226991600,10.20099169921875,0.4559909701347351,0.20147666335105896,0.039390016347169876
1761315645237038600,10.21103857421875,0.43681779503822327,0.15641410648822784,0.06139092147350311
1761315645247086600,10.221086669921876,0.4364212453365326,0.12151417881250381,0.0448276586830616
1761315645257133800,10.2311337890625,0.4428969919681549,0.10933554172515869,0.017656758427619934
1761315645267180800,10.241180908203125,0.4540497958660126,0.1355019062757492,-0.0005371595616452396
1761315645277228500,10.251228515625,0.466234028339386,0.17055922746658325,-0.027034547179937363
1761315645287275500,10.261275634765624,0.482524573802948,0.20418722927570343,-0.06288761645555496
1761315645297323800,10.27132373046875,0.509205162525177,0.2573828101158142,-0.12215040624141693
1761315645307370800,10.281370849609376,0.5391750931739807,0.3223748505115509,-0.18986687064170837
1761315645317417700,10.291417724609374,0.5703803896903992,0.3718337416648865,-0.2589910924434662
1761315645327465500,10.301465576171875,0.6075272560119629,0.4097406566143036,-0.3239852488040924
1761315645337512400,10.311512451171875,0.6405496001243591,0.4341173470020294,-0.3719538450241089
1761315645347559700,10.3215595703125,0.6598634123802185,0.4141894578933716,-0.4109925925731659
1761315645357607700,10.331607666015625,0.6749350428581238,0.35836106538772583,-0.443113774061203
1761315645367654700,10.341654541015625,0.6779348254203796,0.2922912538051605,-0.45083481073379517
1761315645377702700,10.35170263671875,0.6765446662902832,0.23717553913593292,-0.44758710265159607
1761315645387749600,10.36174951171875,0.6695088148117065,0.20890234410762787,-0.42863842844963074
1761315645397796600,10.371796630859375,0.6599217057228088,0.21115751564502716,-0.393610417842865
1761315645407844600,10.3818447265625,0.6427592635154724,0.23264336585998535,-0.3478003144264221
1761315645417891600,10.3918916015625,0.6252609491348267,0.2649903893470764,-0.2869172692298889
1761315645427939600,10.401939697265625,0.5995398759841919,0.33654871582984924,-0.20294032990932465
1761315645437986600,10.411986572265626,0.5616255402565002,0.3825244605541229,-0.10065523535013199
1761315645448033500,10.422033447265624,0.5035632848739624,0.3512174189090729,-0.014082795940339565
1761315645458081800,10.432081787109375,0.42726343870162964,0.2617549002170563,0.05916611850261688
1761315645468128800,10.442128662109376,0.3609621822834015,0.17343969643115997,0.11550582200288773
1761315645478175700,10.45217578125,0.3133166432380676,0.1341647356748581,0.16828860342502594
1761315645488223500,10.462223388671875,0.28127747774124146,0.14016322791576385,0.190079927444458
1761315645498270500,10.4722705078125,0.26648229360580444,0.17154273390769958,0.18590275943279266
1761315645508318700,10.482318603515624,0.2760656774044037,0.2157626450061798,0.15669453144073486
1761315645518365700,10.49236572265625,0.30487149953842163,0.21992330253124237,0.10588861256837845
1761315645528412700,10.50241259765625,0.36111584305763245,0.23092083632946014,0.048056475818157196
1761315645538460400,10.51246044921875,0.4243329167366028,0.3073687255382538,0.011547733098268509
1761315645548507600,10.522507568359375,0.47633111476898193,0.4324299693107605,-0.028263062238693237
1761315645558554600,10.5325546875,0.526454746723175,0.5646186470985413,-0.08369915932416916
1761315645568602600,10.5426025390625,0.5649778842926025,0.6604660749435425,-0.1495138555765152
1761315645578649600,10.552649658203125,0.6061080098152161,0.6847612857818604,-0.21566465497016907
1761315645588697600,10.562697509765625,0.6069711446762085,0.6504057049751282,-0.284967303276062
1761315645598744600,10.57274462890625,0.5711711049079895,0.5812759399414062,-0.3402350842952728
1761315645608791600,10.58279150390625,0.5330162644386292,0.4990268349647522,-0.3600332736968994
1761315645618839600,10.592839599609375,0.49839648604393005,0.41420942544937134,-0.3480756878852844
1761315645628886800,10.60288671875,0.4882650077342987,0.3081999123096466,-0.31064602732658386
1761315645638933800,10.612933837890624,0.5038519501686096,0.2286377102136612,-0.26403963565826416
1761315645648981500,10.6229814453125,0.5417168140411377,0.19529598951339722,-0.20765624940395355
1761315645659028500,10.633028564453125,0.6039191484451294,0.18801331520080566,-0.16543184220790863
1761315645669076700,10.64307666015625,0.6669551134109497,0.1706276684999466,-0.1587664783000946
1761315645679123700,10.653123779296875,0.7232279777526855,0.18671821057796478,-0.16654157638549805
1761315645689170700,10.663170654296875,0.7622608542442322,0.27722814679145813,-0.17162075638771057
1761315645699218400,10.673218505859374,0.7598933577537537,0.36918869614601135,-0.17551137506961823
1761315645709265700,10.683265625,0.732970118522644,0.4355376362800598,-0.18388594686985016
1761315645719316700,10.693316650390624,0.7049134373664856,0.523983359336853,-0.19228342175483704
1761315645729364700,10.70336474609375,0.6887741684913635,0.6709930300712585,-0.2124004065990448
1761315645739411700,10.71341162109375,0.6989340782165527,0.8304654955863953,-0.26677045226097107
1761315645749459700,10.723459716796874,0.717889666557312,0.9329844117164612,-0.3685964047908783
1761315645759506700,10.733506591796875,0.7336745262145996,0.8987241983413696,-0.5078610777854919
1761315645769553700,10.7435537109375,0.7580269575119019,0.8127884864807129,-0.6410282254219055
1761315645779602000,10.753601806640624,0.8253673911094666,0.7875063419342041,-0.6857399940490723
1761315645789649000,10.76364892578125,0.9406409859657288,0.8375266194343567,-0.6458823680877686
1761315645799696600,10.773696533203125,1.0813398361206055,0.8938034772872925,-0.5451467037200928
1761315645809743600,10.78374365234375,1.197574496269226,0.905280351638794,-0.3919227719306946
1761315645819790800,10.793790771484375,1.2225664854049683,0.9217344522476196,-0.18809294700622559
1761315645829838800,10.8038388671875,1.1251986026763916,0.6608434319496155,-0.013576262630522251
1761315645839885800,10.8138857421875,1.0231337547302246,0.31495022773742676,0.058038536459207535
1761315645849932500,10.8239326171875,1.0215723514556885,0.16608084738254547,0.05355244129896164
1761315645859980800,10.833980712890625,1.0386048555374146,0.11486293375492096,-0.034620027989149094
1761315645870027800,10.84402783203125,0.989926815032959,0.1322549730539322,-0.14799931645393372
1761315645880075800,10.85407568359375,0.9363860487937927,0.24899651110172272,-0.23814812302589417
1761315645890122800,10.864122802734375,0.8901738524436951,0.42645010352134705,-0.2901860177516937
1761315645900169700,10.874169677734375,0.8646349310874939,0.593040943145752,-0.3256071209907532
1761315645910217700,10.8842177734375,0.845804750919342,0.7005195021629333,-0.33041760325431824
1761315645920264700,10.8942646484375,0.8386890888214111,0.6565621495246887,-0.31056877970695496
