time,seconds_elapsed,z,y,x
1761334213219244800,0.061244873046875,0,0,0
1761334213237946400,0.0799462890625,0.031418800354003906,0.2333540916442871,-0.2496618628501892
1761334213256648000,0.09864794921875,-0.38677120208740234,0.02530384063720703,-0.27193862199783325
1761334213275349200,0.117349365234375,-0.5666866302490234,0.11067914962768555,0.016357719898223877
1761334213294050800,0.13605078125,-0.8535122871398926,0.18384742736816406,-0.04163485765457153
1761334213312752400,0.15475244140625,-0.5288257598876953,0.2792787551879883,-0.05667952448129654
1761334213331453700,0.17345361328125,0.14333057403564453,-0.021234989166259766,0.15087339282035828
1761334213350155300,0.1921552734375,0.7104787826538086,-0.24453258514404297,0.2354861944913864
1761334213368856800,0.21085693359375,1.460336685180664,0.6479215621948242,-0.9617924690246582
1761334213387558100,0.22955810546875,1.6503515243530273,0.43573570251464844,-0.10557705163955688
1761334213406259700,0.248259765625,0.4877920150756836,-0.1890425682067871,0.18632152676582336
1761334213424961300,0.266961181640625,0.5696544647216797,-0.31484270095825195,0.4000575542449951
1761334213443662600,0.28566259765625,0.04306602478027344,-0.5984916687011719,0.5145111680030823
1761334213462364200,0.3043642578125,-0.8607001304626465,-0.7989075183868408,0.45153477787971497
1761334213481065700,0.323065673828125,-0.5880022048950195,-0.7128829956054688,0.5874084234237671
1761334213499767300,0.341767333984375,-0.42003822326660156,-0.9161479473114014,0.6489097476005554
1761334213518468600,0.360468505859375,-0.43402099609375,-0.6365036964416504,0.8441826105117798
1761334213537170200,0.379170166015625,-1.0786609649658203,-1.054006576538086,0.47153544425964355
1761334213555871700,0.397871826171875,-0.20702266693115234,-0.7535226345062256,-0.2118712067604065
1761334213574573000,0.416572998046875,0.007814407348632812,0.46326279640197754,-1.875969648361206
1761334213593274600,0.435274658203125,-0.24936580657958984,1.7211272716522217,-2.7909603118896484
1761334213611976000,0.453975830078125,-1.161198616027832,2.2094671726226807,-3.495318651199341
1761334213630677500,0.472677490234375,-1.8033113479614258,2.778176784515381,-4.477981090545654
1761334213649379000,0.491379150390625,-2.4865026473999023,-0.8594100475311279,-0.40168532729148865
1761334213668080600,0.51008056640625,-1.3967037200927734,-0.5775766372680664,2.1119885444641113
1761334213686782200,0.5287822265625,1.076517105102539,0.8028192520141602,1.4211076498031616
1761334213705483500,0.5474833984375,1.8795795440673828,-0.13266539573669434,2.350614070892334
1761334213724185000,0.56618505859375,0.8522911071777344,0.010402679443359375,1.6371915340423584
1761334213742886700,0.58488671875,-0.9030485153198242,-0.3494904041290283,1.4331241846084595
1761334213761588000,0.603587890625,-1.3393516540527344,-0.6617367267608643,1.6884688138961792
1761334213780289500,0.62228955078125,-0.871192455291748,-0.9695632457733154,1.8426803350448608
1761334213798991000,0.6409912109375,0.04566478729248047,-1.4539892673492432,1.5159175395965576
1761334213817692400,0.6596923828125,0.9593620300292969,-1.3074285984039307,1.0681135654449463
1761334213836394000,0.67839404296875,3.258528709411621,-0.3192329406738281,0.8682987689971924
1761334213855095600,0.697095458984375,5.451539993286133,0.4978499412536621,1.0800858736038208
1761334213873796900,0.715796875,5.340700149536133,3.8874921798706055,0.22733354568481445
1761334213892498400,0.73449853515625,5.030562400817871,6.9382243156433105,-1.6155592203140259
1761334213911200000,0.753199951171875,8.558314323425293,7.580747604370117,-3.232564926147461
1761334213929901600,0.771901611328125,10.625123023986816,5.485504627227783,-2.275257110595703
1761334213948603000,0.790602783203125,9.933274269104004,5.310540199279785,-0.43783658742904663
1761334213967304400,0.809304443359375,5.929688453674316,4.703707695007324,0.7588052153587341
1761334213986006000,0.828006103515625,1.192061424255371,3.584059238433838,0.9348182678222656
1761334214004707300,0.846707275390625,-2.573720932006836,1.5194063186645508,0.510887622833252
1761334214023409000,0.865408935546875,-0.9533443450927734,-1.9244050979614258,-0.5187691450119019
1761334214042110500,0.8841103515625,-0.929713249206543,-4.127622604370117,-0.8402861952781677
1761334214060811800,0.902811767578125,-4.170239448547363,-4.736713409423828,-1.059413194656372
1761334214079513300,0.921513427734375,-7.658578872680664,-5.118276119232178,-1.2300188541412354
1761334214098215000,0.94021484375,-9.652645111083984,-5.597283363342285,-2.2663984298706055
1761334214116916500,0.95891650390625,-10.111329078674316,-6.025550842285156,-3.172089099884033
1761334214135617800,0.97761767578125,-10.66036605834961,-5.985980033874512,-2.527592658996582
1761334214154319400,0.9963193359375,-10.678411483764648,-5.5658769607543945,-1.3231244087219238
1761334214173021000,1.01502099609375,-9.659494400024414,-5.107854843139648,0.3438090682029724
1761334214191722200,1.03372216796875,-7.257160663604736,-4.7143683433532715,0.9333359003067017
1761334214210423800,1.052423828125,-5.000998497009277,-4.321354866027832,1.2986388206481934
1761334214229125400,1.07112548828125,-3.640474319458008,-3.708460569381714,0.6187384724617004
1761334214247826700,1.08982666015625,-0.8376269340515137,-2.711092472076416,1.1140432357788086
1761334214266528300,1.1085283203125,3.5757598876953125,-1.431201696395874,1.7413833141326904
1761334214285229800,1.127229736328125,6.12238073348999,0.7399306297302246,1.1422094106674194
1761334214303931100,1.14593115234375,5.402914524078369,4.708613395690918,-1.678929090499878
1761334214322632700,1.1646328125,6.510277271270752,9.032571792602539,-4.36610221862793
1761334214341334300,1.183334228515625,8.235363960266113,9.972057342529297,-2.4590988159179688
1761334214360035800,1.202035888671875,7.468482971191406,9.435249328613281,-0.12737971544265747
1761334214378737200,1.220737060546875,12.165438652038574,7.032631874084473,1.6524393558502197
1761334214397438700,1.239438720703125,18.129844665527344,4.081308841705322,1.7969930171966553
1761334214416140300,1.258140380859375,14.17064380645752,3.608046531677246,2.4982035160064697
1761334214434841600,1.276841552734375,6.02918815612793,2.053070545196533,3.2530457973480225
1761334214453543200,1.295543212890625,-0.5233564376831055,0.6259932518005371,2.429363965988159
1761334214472244500,1.314244384765625,-4.776726245880127,-1.5702390670776367,1.5398269891738892
1761334214490946000,1.332946044921875,-6.1441731452941895,-3.709031820297241,0.2660512924194336
1761334214509647600,1.351647705078125,-9.038362503051758,-5.059987545013428,-0.3727850615978241
1761334214528349200,1.37034912109375,-11.780264854431152,-5.571657657623291,-1.57485032081604
1761334214547050500,1.389050537109375,-12.946721076965332,-5.618396282196045,-1.4652422666549683
1761334214565752000,1.407751953125,-12.155298233032227,-5.909286022186279,-1.5517172813415527
1761334214584453600,1.42645361328125,-10.579508781433105,-6.230220317840576,-1.5390384197235107
1761334214603155000,1.445155029296875,-8.565999031066895,-6.022281169891357,-1.1776968240737915
1761334214621856500,1.4638564453125,-7.1294145584106445,-5.547161102294922,-0.48429834842681885
1761334214640558000,1.48255810546875,-6.286929607391357,-4.767273426055908,-0.036511123180389404
1761334214659259400,1.50125927734375,-5.273448467254639,-4.045576095581055,0.8063409328460693
1761334214677961000,1.5199609375,-2.3565635681152344,-2.9242844581604004,1.249760627746582
1761334214696662500,1.53866259765625,2.6621952056884766,-0.9823236465454102,0.7233411073684692
1761334214715363800,1.55736376953125,6.9458770751953125,2.559420108795166,0.9212346076965332
1761334214734065400,1.5760654296875,9.3073091506958,6.992526531219482,-0.6420965194702148
1761334214752767000,1.59476708984375,10.929630279541016,10.511497497558594,-2.742600679397583
1761334214771468500,1.613468505859375,13.355123519897461,11.055120468139648,-1.1652284860610962
1761334214790169900,1.632169921875,14.351913452148438,10.260289192199707,0.9312061071395874
1761334214808871400,1.650871337890625,21.33060073852539,7.974424362182617,3.8154335021972656
1761334214827573000,1.669572998046875,19.940563201904297,5.25103759765625,5.454207420349121
1761334214846274300,1.6882744140625,9.175806045532227,3.539928436279297,3.75862193107605
1761334214864976000,1.706975830078125,0.9605636596679688,1.0278282165527344,0.2367265224456787
1761334214883677200,1.72567724609375,-5.989057540893555,-1.6798453330993652,-1.4972501993179321
1761334214902378800,1.744378662109375,-11.583169937133789,-4.038071632385254,-2.8226771354675293
1761334214921080300,1.763080322265625,-14.037262916564941,-5.59902811050415,-3.2954883575439453
1761334214939782000,1.781781982421875,-14.072683334350586,-6.250050067901611,-3.2486584186553955
1761334214958483200,1.800483154296875,-12.673933029174805,-6.435341835021973,-2.9782168865203857
1761334214977184800,1.819184814453125,-11.206336975097656,-6.388635635375977,-1.765751600265503
1761334214995886300,1.83788623046875,-9.576571464538574,-5.884914875030518,-0.8041078448295593
1761334215014587600,1.856587646484375,-8.070369720458984,-5.351003170013428,0.12027037143707275
1761334215033289200,1.875289306640625,-6.384751319885254,-4.6399617195129395,0.7221989631652832
1761334215051990800,1.89399072265625,-5.065610885620117,-3.9676830768585205,1.2203294038772583
1761334215070692000,1.912692138671875,-3.695457935333252,-3.628872871398926,1.316615104675293
1761334215089393700,1.9313935546875,-1.7302837371826172,-2.851058006286621,1.0420671701431274
1761334215108095200,1.95009521484375,1.0670766830444336,-1.1276283264160156,0.6020733118057251
1761334215126796800,1.968796875,6.601938247680664,2.111443519592285,0.7849018573760986
1761334215145498000,1.987498046875,10.494972229003906,6.361909866333008,-0.3283727765083313
1761334215164199700,2.00619970703125,8.65078067779541,10.337191581726074,-3.383519172668457
1761334215182901200,2.0249013671875,7.234566688537598,11.43132209777832,-2.765676975250244
1761334215201602600,2.0436025390625,6.9588623046875,9.334272384643555,-1.1492146253585815
1761334215220304100,2.06230419921875,12.27475643157959,5.6842193603515625,2.604769706726074
1761334215239005400,2.08100537109375,20.10717010498047,2.7487926483154297,5.606215953826904
1761334215257707000,2.09970703125,15.364237785339355,2.3911614418029785,3.5783300399780273
1761334215276408600,2.11840869140625,6.253448486328125,1.3345680236816406,1.2739202976226807
1761334215295110000,2.13710986328125,-2.4556331634521484,-0.14519977569580078,0.10701827704906464
1761334215313811500,2.1558115234375,-9.461251258850098,-1.9264369010925293,-0.46478521823883057
1761334215332513000,2.174512939453125,-14.033435821533203,-3.522977590560913,-1.2728042602539062
1761334215351214600,2.193214599609375,-14.8651123046875,-4.590629577636719,-2.2281928062438965
1761334215369916000,2.211916015625,-13.45028305053711,-4.892561912536621,-2.025871515274048
1761334215388617500,2.230617431640625,-11.293453216552734,-4.94648551940918,-1.8972591161727905
1761334215407319000,2.249319091796875,-10.196269035339355,-4.697356224060059,-1.1247398853302002
1761334215426020400,2.268020263671875,-9.424698829650879,-4.189223766326904,0.06080494821071625
1761334215444722000,2.286721923828125,-7.919037818908691,-3.911996841430664,0.9304705858230591
1761334215463423200,2.30542333984375,-6.234243392944336,-3.7410833835601807,1.1713212728500366
1761334215482124800,2.324124755859375,-3.6435418128967285,-3.5423171520233154,1.262036919593811
1761334215500826400,2.342826416015625,-0.9406371116638184,-3.349470615386963,0.901474118232727
1761334215519528000,2.36152783203125,0.012514114379882812,-2.563577175140381,0.06774117052555084
1761334215538229200,2.380229248046875,2.155409812927246,0.004956722259521484,-0.822894275188446
1761334215556930800,2.398930908203125,4.8237810134887695,4.6018829345703125,-1.4931811094284058
1761334215575632400,2.41763232421875,7.243396759033203,8.545309066772461,-1.9661604166030884
1761334215594333700,2.436333740234375,11.493034362792969,8.996225357055664,0.11895783245563507
1761334215613035300,2.45503515625,14.863333702087402,7.351169586181641,0.7706828713417053
1761334215631736800,2.47373681640625,21.289794921875,4.204617023468018,2.0601437091827393
1761334215650438100,2.492438232421875,28.175426483154297,2.1238739490509033,2.9452431201934814
1761334215669139700,2.5111396484375,19.630807876586914,2.7114782333374023,2.2841379642486572
1761334215687841300,2.52984130859375,6.70310115814209,1.7384998798370361,1.6118097305297852
1761334215706542600,2.54854248046875,-5.003216743469238,0.4102504253387451,1.4807583093643188
1761334215725244200,2.567244140625,-11.567420959472656,-1.6880974769592285,-0.3656606674194336
1761334215743945700,2.58594580078125,-12.741401672363281,-3.352266550064087,-2.302966833114624
1761334215762647000,2.60464697265625,-12.437080383300781,-3.8724732398986816,-3.0055909156799316
1761334215781348600,2.6233486328125,-12.66402816772461,-4.113429546356201,-2.947998046875
1761334215800050200,2.64205029296875,-12.636178970336914,-4.049593448638916,-2.4638352394104004
1761334215818751500,2.66075146484375,-11.237464904785156,-4.318997859954834,-1.6174654960632324
1761334215837453000,2.679453125,-9.118247985839844,-4.4789276123046875,-0.9587286710739136
1761334215856154600,2.698154541015625,-6.810274124145508,-4.5579142570495605,-0.0659898966550827
1761334215874856000,2.71685595703125,-5.013035297393799,-4.28785514831543,0.5440993905067444
1761334215893557500,2.7355576171875,-3.9449691772460938,-4.0641021728515625,1.119942307472229
1761334215912259000,2.754259033203125,-2.9114484786987305,-3.7692224979400635,1.4926648139953613
1761334215930960600,2.772960693359375,-1.1919593811035156,-3.1220223903656006,0.6837612986564636
1761334215949662000,2.791661865234375,1.435347557067871,-1.2412760257720947,0.9664818048477173
1761334215968363500,2.810363525390625,4.218764305114746,3.32765531539917,0.9238049983978271
1761334215987064800,2.82906494140625,8.165630340576172,8.274833679199219,-1.9450416564941406
1761334216005766400,2.847766357421875,12.977974891662598,9.982719421386719,-0.7033270597457886
1761334216024468000,2.866468017578125,14.138374328613281,10.106512069702148,0.31951379776000977
1761334216043169300,2.885169189453125,16.735965728759766,8.773216247558594,2.356588125228882
1761334216061870800,2.903870849609375,24.058767318725586,7.197904586791992,4.6665167808532715
1761334216080572400,2.922572509765625,18.84449005126953,5.412168025970459,4.194114685058594
1761334216099274000,2.94127392578125,6.280918121337891,3.3239073753356934,2.4385266304016113
1761334216117975300,2.959975341796875,-5.080734729766846,0.8677148818969727,1.0276734828948975
1761334216136676900,2.9786767578125,-10.79228687286377,-2.4246737957000732,-0.8423182368278503
1761334216155378200,2.997378173828125,-12.810046195983887,-5.101381778717041,-2.3628859519958496
1761334216174079700,3.016079833984375,-13.199392318725586,-6.292779445648193,-2.9736595153808594
1761334216192781300,3.03478125,-12.846373558044434,-6.926108360290527,-2.546517848968506
1761334216211482600,3.053482666015625,-12.785561561584473,-7.202782154083252,-1.6403391361236572
1761334216230184200,3.07218408203125,-12.774972915649414,-7.253301620483398,-0.9124279618263245
1761334216248885800,3.0908857421875,-12.302764892578125,-7.129562854766846,-0.6272068619728088
1761334216267587000,3.109587158203125,-10.439160346984863,-6.706327438354492,-0.04401826858520508
1761334216286288600,3.12828857421875,-7.662837982177734,-6.100725173950195,0.7232410907745361
1761334216304990200,3.146990234375,-4.377035140991211,-5.443987846374512,1.6230601072311401
1761334216323691800,3.16569189453125,-1.1697759628295898,-4.458461284637451,2.5839040279388428
1761334216342393000,3.18439306640625,1.6086387634277344,-2.7804036140441895,2.8237862586975098
1761334216361094700,3.2030947265625,5.342620849609375,0.5194821357727051,2.9547836780548096
1761334216379796000,3.2217958984375,10.369559288024902,4.378068447113037,1.4510178565979004
1761334216398497500,3.24049755859375,8.896553039550781,8.265746116638184,-2.8650126457214355
1761334216417199000,3.25919921875,6.37766170501709,11.389662742614746,-3.7910268306732178
1761334216435900400,3.277900390625,11.068893432617188,12.158370971679688,-4.394343852996826
1761334216454602000,3.29660205078125,19.691020965576172,10.58362865447998,-0.9005578756332397
1761334216473303600,3.315303466796875,29.11145782470703,8.470808029174805,7.358428001403809
1761334216492005000,3.334005126953125,19.917407989501953,5.828145980834961,6.460184097290039
1761334216510706400,3.35270654296875,5.96431827545166,3.5442705154418945,1.656767725944519
1761334216529408000,3.371407958984375,-2.72086763381958,-0.07916259765625,0.11838395893573761
1761334216548109300,3.390109375,-8.096067428588867,-3.771831750869751,-1.0378265380859375
1761334216566811000,3.408810791015625,-11.8291015625,-5.998445510864258,-2.7067832946777344
1761334216585512400,3.427512451171875,-12.624788284301758,-7.151242256164551,-3.3768458366394043
1761334216604213800,3.4462138671875,-13.326074600219727,-7.409811973571777,-2.6270108222961426
1761334216622915300,3.464915283203125,-14.275568962097168,-7.464448928833008,-1.5707731246948242
1761334216641617000,3.483616943359375,-14.566794395446777,-7.151684284210205,-1.1302833557128906
1761334216660318500,3.502318359375,-13.489240646362305,-6.879247188568115,-0.6111632585525513
1761334216679019800,3.521019775390625,-10.565948486328125,-6.464911460876465,0.08968973159790039
1761334216697721300,3.539721435546875,-7.068641662597656,-5.96124267578125,0.9441877007484436
1761334216716422700,3.558422607421875,-4.171875,-5.250675201416016,1.2797712087631226
1761334216735124200,3.577124267578125,-2.3467674255371094,-4.301228046417236,2.010674476623535
1761334216753825500,3.595825439453125,-0.15860557556152344,-2.653977632522583,1.6161952018737793
1761334216772527000,3.614527099609375,3.9651613235473633,-0.6970326900482178,1.6006101369857788
1761334216791228700,3.633228759765625,9.715673446655273,2.8775033950805664,2.4288535118103027
1761334216809930200,3.65193017578125,11.193840980529785,7.355957984924316,0.20338723063468933
1761334216828631600,3.670631591796875,8.733314514160156,11.911595344543457,-4.508387565612793
1761334216847333000,3.6893330078125,8.364123344421387,13.998218536376953,-5.03915548324585
1761334216866034700,3.70803466796875,11.248610496520996,12.110034942626953,-1.2434513568878174
1761334216884736000,3.726736083984375,25.037933349609375,7.173870086669922,5.0645599365234375
1761334216903437600,3.7454375,24.2435245513916,5.205086708068848,6.359774589538574
1761334216922139100,3.76413916015625,11.110150337219238,3.965150833129883,4.1142144203186035
1761334216940840400,3.78284033203125,-1.3514370918273926,1.1175451278686523,1.4030382633209229
1761334216959542000,3.8015419921875,-8.55490779876709,-2.1896257400512695,0.27215853333473206
1761334216978243600,3.82024365234375,-10.430583000183105,-5.271364688873291,-1.3654022216796875
1761334216996945000,3.83894482421875,-11.171340942382812,-6.629133224487305,-1.970096468925476
1761334217015646500,3.857646484375,-11.981782913208008,-7.102061748504639,-1.3932896852493286
1761334217034348000,3.87634814453125,-12.597118377685547,-7.264322757720947,-1.1015162467956543
1761334217053049600,3.895049560546875,-12.913997650146484,-7.341616630554199,-1.4899052381515503
1761334217071751000,3.9137509765625,-11.966854095458984,-7.032342433929443,-1.7020915746688843
1761334217090452500,3.932452392578125,-9.925856590270996,-6.44586706161499,-0.8453169465065002
1761334217109153800,3.95115380859375,-7.4960455894470215,-5.6385064125061035,0.402416855096817
1761334217127855400,3.96985546875,-5.742283821105957,-4.605862140655518,1.0316405296325684
1761334217146557000,3.988556884765625,-4.503659725189209,-3.705408811569214,1.5023947954177856
1761334217165258200,4.00725830078125,-3.635390281677246,-3.0103371143341064,1.245825171470642
1761334217183959800,4.025959716796875,-0.9848966598510742,-2.177410125732422,0.667855978012085
1761334217202661400,4.044661376953125,4.967026710510254,0.0662541389465332,1.0263696908950806
1761334217221362700,4.06336279296875,12.24672794342041,4.246094703674316,0.5793312191963196
1761334217240064300,4.082064208984375,14.88367748260498,8.194097518920898,-2.5921502113342285
1761334217258765800,4.100765869140625,11.87211799621582,11.509084701538086,-4.672382831573486
1761334217277467100,4.119467041015625,6.469505310058594,13.042335510253906,-3.9129600524902344
1761334217296168700,4.138168701171875,8.858318328857422,10.522865295410156,-2.6012697219848633
1761334217314870300,4.156870361328125,23.194740295410156,7.289834499359131,3.199384927749634
1761334217333571600,4.175571533203125,21.94782066345215,5.349270820617676,6.231847286224365
1761334217352273200,4.194273193359375,7.927009582519531,3.1578612327575684,4.650376796722412
1761334217370974500,4.212974365234375,-4.61668586730957,0.2306962013244629,2.170027256011963
1761334217389676000,4.231676025390625,-10.70646858215332,-3.2299845218658447,0.5582263469696045
1761334217408377600,4.250377685546875,-12.052125930786133,-5.948827743530273,-1.2064404487609863
1761334217427079200,4.2690791015625,-10.190048217773438,-7.645575523376465,-2.8852243423461914
1761334217445780500,4.287780517578125,-10.242208480834961,-7.936270713806152,-2.575000762939453
1761334217464482000,4.30648193359375,-11.81269359588623,-7.578117847442627,-1.775250792503357
1761334217483183600,4.32518359375,-12.76402759552002,-7.117058277130127,-1.4018940925598145
1761334217501885000,4.343885009765625,-11.445943832397461,-6.581026077270508,-1.049721360206604
1761334217520586500,4.36258642578125,-8.467811584472656,-6.038766860961914,-0.37953150272369385
1761334217539287800,4.381287841796875,-5.8412041664123535,-5.420997142791748,0.372507780790329
1761334217557989400,4.3999892578125,-4.074856758117676,-4.872918128967285,0.8710362911224365
1761334217576691000,4.41869091796875,-3.315188407897949,-4.343920707702637,1.2209091186523438
1761334217595392500,4.437392578125,-2.6989822387695312,-3.4969918727874756,0.9266816973686218
1761334217614093800,4.45609375,-0.05862236022949219,-1.4556632041931152,0.30014950037002563
1761334217632795400,4.47479541015625,6.327975273132324,2.6680593490600586,-0.5693708062171936
1761334217651497000,4.4934970703125,12.391292572021484,7.589597702026367,-2.0012612342834473
1761334217670198300,4.5121982421875,11.514667510986328,11.686307907104492,-4.1727094650268555
1761334217688900400,4.530900390625,11.001368522644043,13.48154067993164,-4.702315330505371
1761334217707602000,4.549601806640625,11.433672904968262,11.487180709838867,-4.110897064208984
1761334217726303500,4.568303466796875,22.143898010253906,7.379094123840332,0.94080650806427
1761334217745004800,4.5870048828125,26.259841918945312,5.819270610809326,8.519234657287598
1761334217763706400,4.605706298828125,12.892969131469727,4.704321384429932,5.221199035644531
1761334217782407700,4.62440771484375,-0.20317935943603516,1.7495975494384766,1.9858165979385376
1761334217801109200,4.643109130859375,-7.427289009094238,-2.9815895557403564,1.8687713146209717
1761334217819810800,4.661810791015625,-10.507938385009766,-6.613104820251465,0.1516784429550171
1761334217838512400,4.680512451171875,-12.19845962524414,-8.384332656860352,-0.8345944881439209
1761334217857213700,4.699213623046875,-13.882984161376953,-8.784683227539062,-1.1058590412139893
1761334217875915300,4.717915283203125,-15.549520492553711,-8.559918403625488,-1.1746044158935547
1761334217894616800,4.736616943359375,-15.2261323928833,-8.245843887329102,-1.7653543949127197
1761334217913318100,4.755318115234375,-12.671104431152344,-7.586663246154785,-1.9952229261398315
1761334217932019700,4.774019775390625,-8.87834358215332,-6.704902172088623,-1.0614125728607178
1761334217950721000,4.792720947265625,-5.36975622177124,-5.789027214050293,0.4483623504638672
1761334217969422600,4.811422607421875,-3.4593982696533203,-4.89414119720459,1.8656344413757324
1761334217988124200,4.830124267578125,-2.9985008239746094,-3.94773530960083,1.9981465339660645
1761334218006825700,4.84882568359375,-2.24967098236084,-3.0352513790130615,1.632768154144287
1761334218025527000,4.867527099609375,-0.02486133575439453,-1.965040683746338,1.4346919059753418
1761334218044228600,4.886228515625,4.926205635070801,0.6990776062011719,0.8751857876777649
1761334218062930200,4.90493017578125,10.540852546691895,5.453596115112305,-0.3450511395931244
1761334218081631500,4.923631591796875,8.227945327758789,10.361516952514648,-4.734862804412842
1761334218100333000,4.9423330078125,4.777400970458984,13.694302558898926,-7.129374027252197
1761334218119034400,4.961034423828125,3.253387451171875,12.697453498840332,-4.815631866455078
1761334218137736000,4.97973583984375,17.33864974975586,6.845670223236084,1.3554065227508545
1761334218156437500,4.9984375,32.89756774902344,4.273061752319336,7.373028755187988
1761334218175138800,5.017138916015625,24.266530990600586,4.854091167449951,6.899964809417725
1761334218193840400,5.03584033203125,7.816065788269043,3.262941837310791,3.909532308578491
1761334218212542000,5.0545419921875,-4.595906734466553,0.6096229553222656,2.565762758255005
1761334218231243500,5.073243408203125,-10.302816390991211,-3.2310519218444824,2.1419286727905273
1761334218249944800,5.09194482421875,-11.948655128479004,-5.716462135314941,0.2313716560602188
1761334218268646400,5.110646484375,-12.448453903198242,-7.3637566566467285,-1.8264343738555908
1761334218287347700,5.12934765625,-13.158065795898438,-7.9693427085876465,-3.08020281791687
1761334218306049300,5.14804931640625,-12.92335319519043,-7.966630458831787,-2.780320644378662
1761334218324750800,5.166750732421875,-11.869281768798828,-7.64759635925293,-0.9111320376396179
1761334218343452200,5.1854521484375,-10.713338851928711,-6.934417724609375,0.9235897064208984
1761334218362153700,5.20415380859375,-9.244545936584473,-6.244386672973633,2.3027195930480957
1761334218380855300,5.222855224609375,-7.84976863861084,-5.531318187713623,2.283632755279541
1761334218399556900,5.241556884765625,-6.36086368560791,-5.1288743019104,1.4341158866882324
1761334218418258200,5.260258056640625,-4.657413005828857,-4.516968727111816,0.9218546152114868
1761334218436959700,5.278959716796875,-1.9112472534179688,-3.261369228363037,-0.3626977205276489
1761334218455661000,5.2976611328125,2.9810104370117188,-1.4448494911193848,-1.3836252689361572
1761334218474362600,5.316362548828125,8.327333450317383,2.6347126960754395,-0.994523286819458
1761334218493064200,5.335064208984375,9.80456829071045,8.664999008178711,-2.8917174339294434
1761334218511765500,5.353765625,8.908183097839355,12.870061874389648,-5.38196325302124
1761334218530467000,5.372467041015625,7.784806251525879,13.03970718383789,-4.190707683563232
1761334218549168600,5.391168701171875,11.976799011230469,10.265527725219727,0.23306643962860107
1761334218567870000,5.409869873046875,24.471080780029297,7.227640151977539,4.168316841125488
1761334218586571500,5.428571533203125,22.430341720581055,5.336905002593994,3.845074415206909
1761334218605273000,5.447273193359375,10.269233703613281,3.289578437805176,1.2811899185180664
1761334218623974400,5.465974365234375,-0.9593706130981445,0.8224802017211914,0.5317715406417847
1761334218642676000,5.484676025390625,-8.11326789855957,-2.400930404663086,1.158881425857544
1761334218661377500,5.50337744140625,-11.175738334655762,-5.297308444976807,-0.08780776709318161
1761334218680078800,5.522078857421875,-11.635568618774414,-6.492030143737793,-2.213399648666382
1761334218698780400,5.540780517578125,-11.992504119873047,-6.899919509887695,-2.553645133972168
1761334218717482000,5.55948193359375,-12.525081634521484,-6.785358428955078,-1.739989161491394
1761334218736183300,5.578183349609375,-12.10279655456543,-7.023105621337891,-0.9592890739440918
1761334218754884900,5.596884765625,-10.528629302978516,-6.8206915855407715,-0.2723919749259949
1761334218773586400,5.61558642578125,-8.41429615020752,-6.150149822235107,0.3634128272533417
1761334218792287700,5.634287841796875,-6.148321628570557,-5.23726224899292,0.8124271631240845
1761334218810989300,5.6529892578125,-4.125639915466309,-4.123330116271973,1.2226859331130981
1761334218829690600,5.671690673828125,-2.707613945007324,-3.0286455154418945,1.1046125888824463
1761334218848392200,5.69039208984375,-0.25111865997314453,-1.9808249473571777,0.7350549101829529
1761334218867093800,5.70909375,3.7927637100219727,0.3658885955810547,0.5719383358955383
1761334218885795000,5.727795166015625,9.57575798034668,4.496830463409424,0.535612165927887
1761334218904496600,5.74649658203125,11.236066818237305,8.798041343688965,-3.0279104709625244
1761334218923198200,5.7651982421875,9.213858604431152,12.018016815185547,-4.654147624969482
1761334218941899800,5.783899658203125,8.308406829833984,12.060483932495117,-1.4066728353500366
1761334218960601000,5.80260107421875,9.442296028137207,8.325666427612305,0.017017096281051636
1761334218979302700,5.821302734375,20.366058349609375,5.068142414093018,3.5493717193603516
1761334218998004000,5.84000390625,24.205537796020508,4.352762222290039,5.870221138000488
1761334219016705500,5.85870556640625,12.9833345413208,3.5301036834716797,2.548482656478882
1761334219035407000,5.877406982421875,1.424117088317871,1.520280361175537,0.9977851510047913
1761334219054108400,5.8961083984375,-6.956017017364502,-1.5897340774536133,1.4959862232208252
1761334219072810000,5.91481005859375,-11.484621047973633,-4.706748008728027,0.5381923913955688
1761334219091511600,5.933511474609375,-12.806076049804688,-6.7648749351501465,-0.9317938089370728
1761334219110213000,5.952213134765625,-13.317955017089844,-7.55196475982666,-1.4475111961364746
1761334219128914400,5.97091455078125,-14.023201942443848,-7.848095417022705,-1.3683395385742188
1761334219147616000,5.989615966796875,-14.166929244995117,-8.00153923034668,-1.5370070934295654
1761334219166317300,6.0083173828125,-12.757711410522461,-7.745327472686768,-1.163067102432251
1761334219185019000,6.027018798828125,-9.892757415771484,-7.004650115966797,-0.011791147291660309
1761334219203720400,6.045720458984375,-7.281167984008789,-6.1618499755859375,1.1210968494415283
1761334219222421800,6.064421875,-5.532557487487793,-5.254927635192871,1.4751790761947632
1761334219241123300,6.083123291015625,-4.622518539428711,-4.117192268371582,1.5162373781204224
1761334219259825000,6.101824951171875,-3.114935874938965,-2.681692123413086,1.002855896949768
1761334219278526200,6.120526123046875,0.754176139831543,-0.8121271133422852,-0.3491803705692291
1761334219297227800,6.139227783203125,5.603497505187988,2.5898990631103516,-1.0466777086257935
1761334219315929300,6.157929443359375,8.308603286743164,8.206077575683594,-2.6619603633880615
1761334219334630700,6.176630615234375,10.248849868774414,11.927993774414062,-3.465475559234619
1761334219353332200,6.195332275390625,11.546796798706055,12.443681716918945,-2.4633336067199707
1761334219372033500,6.214033447265625,12.639969825744629,11.180340766906738,-0.26130324602127075
1761334219390735000,6.232735107421875,25.22092056274414,7.636428356170654,4.667727947235107
1761334219409436700,6.251436767578125,24.23126220703125,6.435957431793213,6.443904876708984
1761334219428138000,6.270137939453125,13.398872375488281,4.356977462768555,3.7663331031799316
1761334219446839600,6.288839599609375,3.8128576278686523,0.9478402137756348,1.3511488437652588
1761334219465541000,6.307541015625,-4.040750503540039,-2.646488666534424,0.8275557160377502
1761334219484242700,6.32624267578125,-9.679689407348633,-5.698858261108398,-0.6320024728775024
1761334219502944000,6.344944091796875,-13.302447319030762,-7.301892280578613,-2.092151641845703
1761334219521645600,6.3636455078125,-15.039527893066406,-8.005334854125977,-3.4753975868225098
1761334219540347000,6.382346923828125,-14.857900619506836,-8.251425743103027,-3.4124553203582764
1761334219559048400,6.40104833984375,-13.105592727661133,-8.372360229492188,-2.188861131668091
1761334219577750000,6.41975,-11.155896186828613,-7.913915634155273,-0.8751399517059326
1761334219596451300,6.438451416015625,-9.359907150268555,-6.891905784606934,0.5386138558387756
1761334219615153000,6.45715283203125,-8.144195556640625,-5.772104263305664,1.5847994089126587
1761334219633854500,6.4758544921875,-6.611769676208496,-4.546981334686279,2.4321823120117188
1761334219652555800,6.4945556640625,-4.688610076904297,-3.4081552028656006,2.271486759185791
1761334219671257300,6.51325732421875,-2.04262638092041,-2.111921548843384,1.749451756477356
1761334219689959000,6.531958984375,1.416543960571289,0.026411056518554688,0.6803447008132935
1761334219708660200,6.55066015625,5.9079437255859375,4.04880952835083,-0.8224958181381226
1761334219727361800,6.56936181640625,9.390143394470215,9.785232543945312,-3.2321531772613525
1761334219746063400,6.5880634765625,11.245504379272461,13.130380630493164,-3.9065206050872803
1761334219764764700,6.6067646484375,10.09566593170166,12.824987411499023,-1.402116298675537
1761334219783466200,6.62546630859375,12.031874656677246,9.702179908752441,2.680211067199707
1761334219802167800,6.644167724609375,25.8568115234375,5.795286655426025,6.189559459686279
1761334219820869000,6.662869140625,23.643482208251953,5.3682475090026855,4.849926471710205
1761334219839570700,6.68157080078125,9.544562339782715,3.7467846870422363,1.7281619310379028
1761334219858272300,6.700272216796875,-1.3575248718261719,0.9284563064575195,0.7791835069656372
1761334219876973600,6.7189736328125,-7.298227787017822,-2.3735785484313965,1.5983742475509644
1761334219895675100,6.737675048828125,-11.034360885620117,-5.372126579284668,0.9858883619308472
1761334219914376400,6.75637646484375,-12.572816848754883,-6.916323661804199,-0.9385367035865784
1761334219933078000,6.775078125,-12.866012573242188,-7.439243793487549,-1.8765861988067627
1761334219951779600,6.793779541015625,-13.19964599609375,-7.4354658126831055,-1.7115147113800049
1761334219970481200,6.812481201171875,-12.266962051391602,-7.246189117431641,-0.8586266040802002
1761334219989182500,6.831182373046875,-10.249395370483398,-6.991365432739258,-0.1951463669538498
1761334220007884000,6.849884033203125,-7.966370105743408,-6.088939666748047,0.762925386428833
1761334220026585300,6.86858544921875,-6.205991268157959,-4.908934116363525,1.9229365587234497
1761334220045287000,6.887286865234375,-4.78559684753418,-3.868361234664917,1.4919887781143188
1761334220063988500,6.905988525390625,-4.343086242675781,-3.024857759475708,0.7915207743644714
1761334220082689800,6.924689697265625,-3.7202367782592773,-2.3890023231506348,0.2020188421010971
1761334220101391400,6.943391357421875,-1.0145149230957031,-1.1662445068359375,-0.17975381016731262
1761334220120092700,6.9620927734375,5.9866180419921875,1.1620163917541504,0.3529629111289978
1761334220138794200,6.980794189453125,8.72146224975586,6.719152450561523,-2.7512784004211426
1761334220157495800,6.999495849609375,3.530008316040039,12.243803024291992,-4.184019565582275
1761334220176197400,7.018197265625,2.0568008422851562,13.880672454833984,1.217874526977539
1761334220194898700,7.036898681640625,7.919994354248047,9.059232711791992,5.390996932983398
1761334220213600300,7.055600341796875,26.029315948486328,2.8154044151306152,6.222939491271973
1761334220232301600,7.074301513671875,27.98863983154297,2.109989881515503,2.1658823490142822
1761334220251003100,7.093003173828125,18.539094924926758,1.9112353324890137,-1.271636724472046
1761334220269704700,7.11170458984375,8.846616744995117,0.6209633350372314,-3.2943034172058105
1761334220288406000,7.130406005859375,-2.3507184982299805,-1.6727731227874756,-3.2115485668182373
1761334220307107600,7.149107666015625,-12.731359481811523,-4.0204033851623535,-2.793536424636841
1761334220325809200,7.16780908203125,-16.775604248046875,-5.017186641693115,-4.024336814880371
1761334220344510700,7.1865107421875,-15.904988288879395,-5.212028503417969,-4.186222076416016
1761334220363212000,7.2052119140625,-12.291540145874023,-5.492984771728516,-3.2456319332122803
1761334220381913600,7.22391357421875,-10.188366889953613,-6.084477424621582,-1.225297212600708
1761334220400615000,7.242614990234375,-9.837084770202637,-5.690981864929199,0.38020995259284973
1761334220419316500,7.26131640625,-9.491804122924805,-5.348184585571289,1.333451509475708
1761334220438017800,7.280017822265625,-8.143129348754883,-4.872946262359619,1.6044023036956787
1761334220456719400,7.29871923828125,-6.056156158447266,-4.423000335693359,1.5979301929473877
1761334220475421000,7.3174208984375,-3.9324989318847656,-3.828843355178833,0.5196748971939087
1761334220494122500,7.33612255859375,-1.7489385604858398,-2.7482516765594482,0.5483948588371277
1761334220512823800,7.35482373046875,-0.02871417999267578,-0.16614723205566406,0.8236978054046631
1761334220531525400,7.373525390625,4.586976051330566,4.574370861053467,-1.970615029335022
1761334220550227000,7.39222705078125,9.03516674041748,8.704355239868164,-4.310017108917236
1761334220568928300,7.41092822265625,11.418707847595215,10.848426818847656,-2.6149308681488037
1761334220587629800,7.4296298828125,11.380477905273438,10.42181396484375,1.6356174945831299
1761334220606331100,7.4483310546875,21.77552032470703,7.363449573516846,7.486542701721191
1761334220625032700,7.46703271484375,29.28363800048828,5.238853454589844,8.487722396850586
1761334220643734300,7.485734375,20.441316604614258,5.133183479309082,4.092747211456299
1761334220662435800,7.504435791015625,7.502018928527832,2.9829440116882324,0.73710697889328
1761334220681137200,7.52313720703125,-4.782319068908691,0.03238058090209961,0.5904560089111328
1761334220699838700,7.541838623046875,-13.784127235412598,-3.2930712699890137,-0.48203739523887634
1761334220718540000,7.5605400390625,-16.168317794799805,-5.844596862792969,-2.8070921897888184
1761334220737241600,7.57924169921875,-15.608705520629883,-6.826767921447754,-4.612074375152588
1761334220755943200,7.597943115234375,-13.902958869934082,-7.0922651290893555,-4.1443634033203125
1761334220774644500,7.61664453125,-11.920027732849121,-6.936611175537109,-2.199718475341797
1761334220793346000,7.635345947265625,-10.416765213012695,-6.359805583953857,-0.5717277526855469
1761334220812047400,7.65404736328125,-7.557943344116211,-5.32124662399292,0.8402735590934753
1761334220830749000,7.6727490234375,-5.212161064147949,-4.428546905517578,1.5427324771881104
1761334220849450500,7.691450439453125,-4.389599800109863,-3.6893889904022217,1.4541431665420532
1761334220868151800,7.71015185546875,-4.806968688964844,-3.2848010063171387,1.4392048120498657
1761334220886853400,7.728853271484375,-5.374013900756836,-2.9709601402282715,1.35056734085083
1761334220905555000,7.747554931640625,-5.270397663116455,-2.4470067024230957,0.5653106570243835
1761334220924256300,7.76625634765625,-3.2823524475097656,-1.509479284286499,0.15326669812202454
1761334220942957800,7.784957763671875,3.321086883544922,1.326521396636963,-0.7997763156890869
1761334220961659100,7.8036591796875,9.359176635742188,5.754569053649902,-2.840744733810425
1761334220980360700,7.822360595703125,14.252205848693848,8.084339141845703,-4.455473899841309
1761334220999062300,7.841062255859375,18.65106773376465,8.219253540039062,-3.7616162300109863
1761334221017763800,7.859763916015625,17.703990936279297,6.421421527862549,1.8879156112670898
1761334221036465200,7.878465087890625,23.117385864257812,6.282742500305176,5.65151309967041
1761334221055166500,7.89716650390625,19.00757598876953,6.748679161071777,3.692117214202881
1761334221073868000,7.915867919921875,8.97567081451416,5.40294885635376,1.193814754486084
1761334221092569600,7.934569580078125,-1.2850046157836914,3.070312976837158,-0.003938257694244385
1761334221111271200,7.953271240234375,-7.7120819091796875,-0.22969770431518555,1.964264154434204
1761334221129972500,7.971972412109375,-11.827352523803711,-3.168423652648926,1.8386499881744385
1761334221148674000,7.990674072265625,-14.443377494812012,-5.064675807952881,-0.3758874833583832
1761334221167375600,8.009375732421875,-15.494179725646973,-5.940203666687012,-2.343958616256714
1761334221186077000,8.028076904296874,-15.324790000915527,-6.396686553955078,-2.918300151824951
1761334221204778500,8.046778564453126,-14.05073356628418,-6.448826789855957,-1.6895389556884766
1761334221223480000,8.06547998046875,-11.585528373718262,-6.418425559997559,-0.5102287530899048
1761334221242181400,8.084181396484375,-8.29504680633545,-5.804390907287598,0.7957055568695068
1761334221260883000,8.102883056640625,-5.780655860900879,-5.065293312072754,1.7239184379577637
1761334221279584300,8.121584228515625,-4.870457649230957,-4.087597846984863,2.0599632263183594
1761334221298285800,8.140285888671874,-4.5802693367004395,-3.06178617477417,2.1368420124053955
1761334221316987400,8.1589873046875,-2.939678192138672,-2.1906399726867676,1.3250889778137207
1761334221335689000,8.17768896484375,2.707418441772461,-0.16248703002929688,1.1472338438034058
1761334221354390300,8.196390380859375,12.017294883728027,3.8338234424591064,1.835243821144104
1761334221373091800,8.215091796875,16.364582061767578,7.04232931137085,-1.1663728952407837
1761334221391793200,8.233793212890625,17.01890754699707,9.294503211975098,-3.2180228233337402
1761334221410494700,8.25249462890625,15.554378509521484,9.882298469543457,-3.2901928424835205
1761334221429196000,8.271196044921876,14.64481258392334,9.168129920959473,-1.2636224031448364
1761334221447897600,8.289897705078126,18.619014739990234,7.8956804275512695,4.712334632873535
1761334221466599200,8.30859912109375,17.037700653076172,5.3407487869262695,4.825957775115967
1761334221485300700,8.32730078125,6.351618766784668,3.438246011734009,1.7651712894439697
1761334221504002000,8.346001953125,-3.922895908355713,1.2081189155578613,0.36104482412338257
1761334221522703600,8.36470361328125,-9.542207717895508,-1.6172945499420166,0.24173268675804138
1761334221541405000,8.383405029296876,-12.279386520385742,-3.72556471824646,-0.4671025276184082
1761334221560106500,8.4021064453125,-13.22032642364502,-4.962441444396973,-1.2858831882476807
1761334221578808000,8.42080810546875,-14.066282272338867,-5.284398078918457,-1.2837803363800049
1761334221597509400,8.43950927734375,-13.903220176696777,-5.45217227935791,-1.4148905277252197
1761334221616211000,8.4582109375,-12.955842971801758,-5.240672588348389,-2.0558981895446777
1761334221634912300,8.476912353515624,-11.755257606506348,-4.841866493225098,-0.9090088605880737
1761334221653613800,8.49561376953125,-9.231541633605957,-4.121850967407227,0.7718494534492493
1761334221672315400,8.5143154296875,-7.0439133644104,-3.1538329124450684,1.7406487464904785
1761334221691016700,8.5330166015625,-5.505432605743408,-2.0864226818084717,2.151758909225464
1761334221709718300,8.55171826171875,-4.5628581047058105,-1.7494728565216064,2.0796573162078857
1761334221728419800,8.570419921875,-2.1403026580810547,-1.3227059841156006,0.8061085343360901
1761334221747121200,8.58912109375,2.2545413970947266,0.0009624958038330078,-0.3054099678993225
1761334221765822700,8.60782275390625,7.883044242858887,1.98545503616333,-1.4520061016082764
1761334221784524000,8.62652392578125,13.864869117736816,4.7705607414245605,-3.7628800868988037
1761334221803225600,8.6452255859375,14.516589164733887,5.6959710121154785,-3.5613269805908203
1761334221821927200,8.66392724609375,12.341683387756348,5.211904525756836,0.3308306336402893
1761334221840628700,8.682628662109375,19.180950164794922,2.962116241455078,3.845893383026123
1761334221859330000,8.701330078125,24.069217681884766,0.5199325084686279,2.9572465419769287
1761334221878031600,8.720031494140626,18.468734741210938,2.259892463684082,1.8061779737472534
1761334221896733000,8.73873291015625,7.918630599975586,2.145887851715088,2.990265130996704
1761334221915434500,8.7574345703125,-1.327859878540039,1.5753905773162842,1.1752055883407593
1761334221934135800,8.7761357421875,-8.234419822692871,-0.8382947444915771,-2.1034867763519287
1761334221952837400,8.79483740234375,-11.332021713256836,-2.816641330718994,-2.389570951461792
1761334221971539000,8.8135390625,-12.942683219909668,-3.659501075744629,-1.3123483657836914
1761334221990240500,8.832240478515626,-13.862931251525879,-4.167922019958496,-0.9682983756065369
1761334222008941800,8.85094189453125,-14.048974990844727,-4.1727800369262695,-1.896846890449524
1761334222027643400,8.869643310546875,-13.572295188903809,-4.351020336151123,-2.8174052238464355
1761334222046344700,8.8883447265625,-11.874696731567383,-4.397709369659424,-2.511476755142212
1761334222065046300,8.90704638671875,-9.27264404296875,-4.123632907867432,-0.8231443166732788
1761334222083747600,8.92574755859375,-6.609716415405273,-3.450770854949951,1.101067304611206
1761334222102449200,8.94444921875,-4.589247226715088,-2.4855427742004395,1.5762206315994263
1761334222121150700,8.963150634765626,-2.345025062561035,-1.758672833442688,1.6606050729751587
1761334222139852300,8.981852294921875,-0.05397510528564453,-1.2583556175231934,1.3452588319778442
1761334222158553600,9.0005537109375,1.34271240234375,0.16193127632141113,0.7883268594741821
1761334222177255200,9.019255126953125,5.202537536621094,2.6350879669189453,1.2215795516967773
1761334222195956500,9.03795654296875,12.758313179016113,5.724484920501709,-2.2516047954559326
1761334222214658000,9.056657958984376,12.213662147521973,6.9291229248046875,-4.066502571105957
1761334222233359400,9.075359375,6.8532257080078125,7.189406394958496,-1.8397234678268433
1761334222252061000,9.09406103515625,3.904417037963867,6.814459800720215,0.3589438199996948
1761334222270762500,9.112762451171875,10.289230346679688,3.547930955886841,2.6870341300964355
1761334222289464000,9.131464111328125,11.724313735961914,1.319016933441162,3.9691576957702637
1761334222308165400,9.150165283203124,5.753850936889648,0.9011640548706055,2.9726626873016357
1761334222326867000,9.168866943359374,2.2361698150634766,-0.5396579504013062,-0.822956919670105
1761334222345568300,9.187568359375,-0.8250741958618164,-1.8414289951324463,-2.9473512172698975
1761334222364269800,9.206269775390625,-5.252425193786621,-2.5750479698181152,-0.7190799713134766
1761334222382971100,9.22497119140625,-7.169867515563965,-2.8177170753479004,1.667449712753296
1761334222401672700,9.243672607421875,-7.348085403442383,-2.5677731037139893,0.7291509509086609
1761334222420374300,9.262374267578124,-7.070343971252441,-2.5145041942596436,-0.7575257420539856
1761334222439075800,9.281075927734374,-6.692055702209473,-2.341620922088623,-1.1512770652770996
1761334222457777200,9.299777099609376,-6.4275689125061035,-2.0778207778930664,-0.7585371136665344
1761334222476478700,9.318478759765625,-7.081546783447266,-1.5991164445877075,-0.3328007161617279
1761334222495180000,9.337179931640625,-8.195001602172852,-1.1440043449401855,0.30039918422698975
1761334222513881600,9.355881591796875,-8.315483093261719,-1.1059353351593018,1.1440377235412598
1761334222532583000,9.3745830078125,-7.329545974731445,-1.0876023769378662,1.0167571306228638
1761334222551284500,9.393284423828124,-4.335118293762207,-0.9977630376815796,0.6774832010269165
1761334222569986000,9.411986083984376,0.36231136322021484,-0.388444185256958,0.0240774005651474
1761334222588687400,9.430687255859375,5.507030487060547,0.4592862129211426,0.44752079248428345
1761334222607389000,9.449388916015625,8.567761421203613,2.3443288803100586,-1.6765824556350708
1761334222626090500,9.468090576171875,7.739755630493164,4.060445308685303,-4.165920257568359
1761334222644791800,9.486791748046874,7.326474189758301,3.3249523639678955,-1.2695658206939697
1761334222663493400,9.505493408203124,10.211658477783203,1.3701980113983154,3.7649524211883545
1761334222682194700,9.524194580078126,16.91120147705078,-0.38836491107940674,4.716740131378174
1761334222700896300,9.542896240234375,18.231029510498047,-0.43762850761413574,1.335991382598877
1761334222719597600,9.56159765625,12.039002418518066,0.5257395505905151,-1.3381253480911255
1761334222738299100,9.580299072265625,3.756178855895996,0.6745363473892212,-0.26266419887542725
1761334222757000700,9.599000732421874,-1.7669687271118164,0.34238314628601074,-0.01440894603729248
1761334222775702300,9.617702392578124,-4.483085632324219,-1.0969538688659668,-0.7231893539428711
1761334222794403600,9.636403564453126,-5.455583095550537,-1.4959204196929932,-1.2673008441925049
1761334222813105200,9.655105224609375,-6.504971504211426,-1.5553079843521118,-1.0760064125061035
1761334222831806500,9.673806396484375,-7.610787391662598,-1.290682315826416,-1.5359835624694824
1761334222850508000,9.692508056640625,-8.517938613891602,-1.733109474182129,-1.9746596813201904
1761334222869209300,9.711209228515624,-9.231733322143555,-2.056039333343506,-2.1982548236846924
1761334222887911000,9.729910888671874,-9.967367172241211,-1.90688157081604,-1.2866368293762207
1761334222906612500,9.748612548828126,-9.433393478393555,-1.7217003107070923,-0.08933606743812561
1761334222925313800,9.767313720703125,-8.129973411560059,-1.8996458053588867,0.020786091685295105
1761334222944015400,9.786015380859375,-5.435758113861084,-1.779909372329712,0.540623664855957
1761334222962716700,9.804716552734375,-1.0883865356445312,-1.6710869073867798,1.0242379903793335
1761334222981418200,9.823418212890624,4.184520721435547,-0.2537822723388672,0.10843238234519958
1761334223000119800,9.842119873046874,8.312288284301758,0.7834444046020508,0.11284992098808289
1761334223018821000,9.860821044921876,6.097928047180176,2.032644748687744,-1.0822160243988037
1761334223037522700,9.879522705078125,2.3375205993652344,3.28585147857666,-1.4308911561965942
1761334223056224300,9.898224365234375,1.023900032043457,3.041531562805176,0.6770463585853577
1761334223074925600,9.916925537109375,3.9481945037841797,2.1910085678100586,2.9757933616638184
1761334223093627100,9.935627197265624,11.500965118408203,0.448228120803833,3.384732246398926
1761334223112328400,9.954328369140624,13.494543075561523,0.07030105590820312,2.365199327468872
1761334223131030000,9.973030029296876,8.247564315795898,0.6054465770721436,0.0474504679441452
1761334223149731300,9.9917314453125,1.3672189712524414,0.41858339309692383,-1.1363657712936401
1761334223168433000,10.010432861328125,-3.4222140312194824,0.003313302993774414,-1.3461966514587402
1761334223187134500,10.029134521484375,-4.1509175300598145,-0.3926970958709717,-0.5038601160049438
1761334223205835800,10.047835693359374,-2.8764820098876953,-0.8409011363983154,0.10375591367483139
1761334223224537300,10.066537353515624,-2.8829898834228516,-1.6650078296661377,-0.5153712034225464
1761334223243239000,10.085239013671876,-3.057863712310791,-1.8516302108764648,-1.2601982355117798
1761334223261940200,10.103940185546875,-4.230256080627441,-2.0995209217071533,-0.2927784025669098
1761334223280641800,10.122641845703125,-5.322658061981201,-1.871396780014038,0.9354801177978516
1761334223299343000,10.141343017578125,-5.401875019073486,-1.381584882736206,1.122530460357666
