time,seconds_elapsed,z,y,x
1761334213228595500,0.070595458984375,0.0054977829568088055,-0.0435241162776947,0.28435754776000977
1761334213256648000,0.09864794921875,-0.050090912729501724,0.10308343172073364,0.30024003982543945
1761334213275349200,0.117349365234375,-0.08857539296150208,0.24480405449867249,0.14569124579429626
1761334213294050800,0.13605078125,-0.0409279391169548,0.4427242577075958,-0.11087195575237274
1761334213312752400,0.15475244140625,0.0824667438864708,0.8342885971069336,-0.3436114490032196
1761334213331453700,0.17345361328125,0.20769402384757996,1.011439323425293,-0.2776380479335785
1761334213350155300,0.1921552734375,0.12156209349632263,1.2111921310424805,-0.08643736690282822
1761334213368856800,0.21085693359375,0.1545487940311432,0.8287907838821411,-0.07055488228797913
1761334213387558100,0.22955810546875,0.18631376326084137,0.2704603672027588,0.0204639695584774
1761334213406259700,0.248259765625,0.1899789422750473,-0.1614210158586502,0.061391908675432205
1761334213424961300,0.266961181640625,0.15088360011577606,-0.41126471757888794,0.2049451321363449
1761334213443662600,0.28566259765625,-0.08491020649671555,-0.523052990436554,0.2202167510986328
1761334213462364200,0.3043642578125,-0.3384190797805786,-0.35506516695022583,-0.11636973917484283
1761334213481065700,0.323065673828125,-0.4776962697505951,-0.5022835731506348,-0.4871646761894226
1761334213499767300,0.341767333984375,-0.5283980369567871,-0.48334676027297974,-0.5977311730384827
1761334213518468600,0.360468505859375,-0.6682860851287842,-0.22250749170780182,-0.5781835317611694
1761334213537170200,0.379170166015625,-0.8118392825126648,-0.24144430458545685,-0.7828232049942017
1761334213555871700,0.397871826171875,-0.8765909671783447,-0.5102248191833496,-0.8683443069458008
1761334213574573000,0.416572998046875,-0.8045089244842529,-0.4864010810852051,-0.639270007610321
1761334213593274600,0.435274658203125,-0.6713404059410095,-0.5780308246612549,-0.3430005609989166
1761334213611976000,0.453975830078125,-0.42088583111763,-0.5774199366569519,-0.24770566821098328
1761334213630677500,0.472677490234375,0.2522871494293213,-0.3263545036315918,-0.291687935590744
1761334213649379000,0.491379150390625,0.6029235124588013,-0.1156061589717865,-0.5696313977241516
1761334213668080600,0.51008056640625,0.4379900395870209,-0.2237292230129242,-0.8726203441619873
1761334213686782200,0.5287822265625,0.28527384996414185,0.14828743040561676,-0.5940660238265991
1761334213705483500,0.5474833984375,-0.009773836471140385,0.23625195026397705,-0.0668896958231926
1761334213724185000,0.56618505859375,-0.19669845700263977,-0.0025961752980947495,0.3601047992706299
1761334213742886700,0.58488671875,-0.328645259141922,-0.25793763995170593,0.3906480371952057
1761334213761588000,0.603587890625,-0.49052441120147705,-0.28298309445381165,0.32650721073150635
1761334213780289500,0.62228955078125,-0.648127555847168,-0.3269653618335724,0.3582721948623657
1761334213798991000,0.6409912109375,-0.749531090259552,-0.13820815086364746,0.5482511520385742
1761334213817692400,0.6596923828125,-0.6365211009979248,-0.07834340631961823,0.7638863921165466
1761334213836394000,0.67839404296875,-0.5839866995811462,-0.490677148103714,1.0198386907577515
1761334213855095600,0.697095458984375,-0.5919279456138611,-0.8785762786865234,1.4291181564331055
1761334213873796900,0.715796875,-0.9743293523788452,-0.8144354820251465,1.3057234287261963
1761334213892498400,0.73449853515625,-1.0122029781341553,-0.5737547278404236,0.5763509273529053
1761334213911200000,0.753199951171875,-0.4453204274177551,-0.4234820008277893,0.1029307171702385
1761334213929901600,0.771901611328125,0.36285367608070374,-0.2444986253976822,0.06200277432799339
1761334213948603000,0.790602783203125,0.729983389377594,-0.014202605932950974,0.24892739951610565
1761334213967304400,0.809304443359375,0.5467239618301392,-0.2793179154396057,0.16340632736682892
1761334213986006000,0.828006103515625,0.16737695038318634,-0.7057015299797058,-0.2831358313560486
1761334214004707300,0.846707275390625,-0.1533270627260208,-0.9677625298500061,-0.9770781993865967
1761334214023409000,0.865408935546875,-0.1386663019657135,-0.41676250100135803,-1.1230748891830444
1761334214042110500,0.8841103515625,-0.043982263654470444,0.7554870247840881,-0.6215549111366272
1761334214060811800,0.902811767578125,-0.12278381735086441,1.2600613832473755,-0.07238747924566269
1761334214079513300,0.921513427734375,-0.3390299379825592,0.948520302772522,0.27458372712135315
1761334214098215000,0.94021484375,-0.39217519760131836,0.39080074429512024,0.40714138746261597
1761334214116916500,0.95891650390625,-0.18203771114349365,0.24785839021205902,0.4780016839504242
1761334214135617800,0.97761767578125,0.025045456364750862,0.3828594982624054,0.4004218578338623
1761334214154319400,0.9963193359375,0.11484257876873016,0.4903717041015625,0.1902843713760376
1761334214173021000,1.01502099609375,0.03298669680953026,0.4958694875240326,-0.06872228533029556
1761334214191722200,1.03372216796875,-0.040317077189683914,0.7237220406532288,-0.14691297709941864
1761334214210423800,1.052423828125,-0.04459312930703163,1.0627520084381104,-0.03329212963581085
1761334214229125400,1.07112548828125,0.10629047453403473,1.0719150304794312,0.09071341902017593
1761334214247826700,1.08982666015625,0.17837251722812653,0.3627009689807892,0.3448331654071808
1761334214266528300,1.1085283203125,0.023823726922273636,-0.4815141558647156,0.9954041838645935
1761334214285229800,1.127229736328125,-0.11728604137897491,-0.20112723112106323,1.600771188735962
1761334214303931100,1.14593115234375,-0.12583814561367035,0.15867212414741516,1.3234385251998901
1761334214322632700,1.1646328125,0.10018182545900345,-0.0850629210472107,0.5513054728507996
1761334214341334300,1.183334228515625,0.15088360011577606,-0.5151117444038391,-0.29535311460494995
1761334214360035800,1.202035888671875,0.0720820426940918,-1.188895583152771,-1.7033964395523071
1761334214378737200,1.220737060546875,0.1899789422750473,-1.2145519256591797,-2.780351161956787
1761334214397438700,1.239438720703125,0.6108647584915161,0.07254019379615784,-2.185368776321411
1761334214416140300,1.258140380859375,0.6908880472183228,0.6815723776817322,-1.06443190574646
1761334214434841600,1.276841552734375,0.3652971386909485,0.20387612283229828,-0.26542073488235474
1761334214453543200,1.295543212890625,-0.07574722915887833,-0.6507236957550049,0.2367101013660431
1761334214472244500,1.314244384765625,-0.4361574649810791,-0.7399099469184875,0.46456265449523926
1761334214490946000,1.332946044921875,-0.5626064538955688,0.06704241037368774,0.7089085578918457
1761334214509647600,1.351647705078125,-0.6133082509040833,0.7970257997512817,0.7852666974067688
1761334214528349200,1.37034912109375,-0.5589412450790405,0.8336777091026306,0.6172788739204407
1761334214547050500,1.389050537109375,-0.5632173418998718,0.19898919761180878,0.2971857190132141
1761334214565752000,1.407751953125,-0.49541133642196655,-0.1718057245016098,0.03756818547844887
1761334214584453600,1.42645361328125,-0.3133736252784729,-0.19990549981594086,-0.1078176349401474
1761334214603155000,1.445155029296875,-0.10751219838857651,-0.14248420298099518,-0.07971785217523575
1761334214621856500,1.4638564453125,0.04886918142437935,-0.06307178735733032,0.06872228533029556
1761334214640558000,1.48255810546875,0.15515965223312378,0.0206166859716177,0.17745621502399445
1761334214659259400,1.50125927734375,0.16004657745361328,0.03588830679655075,0.2049451321363449
1761334214677961000,1.5199609375,0.08674279600381851,-0.25549420714378357,0.2977965772151947
1761334214696662500,1.53866259765625,0.0824667438864708,-0.6617192625999451,0.6472112536430359
1761334214715363800,1.55736376953125,-0.10445787757635117,-0.9225585460662842,0.9599739909172058
1761334214734065400,1.5760654296875,-0.24862197041511536,-0.6287325620651245,0.7370083332061768
1761334214752767000,1.59476708984375,-0.05925388261675835,-0.5059487819671631,-0.1951712965965271
1761334214771468500,1.613468505859375,0.13622283935546875,-0.5713112950325012,-1.2776236534118652
1761334214790169900,1.632169921875,0.36712974309921265,-0.920115053653717,-2.4101669788360596
1761334214808871400,1.650871337890625,0.3860665261745453,-0.64278244972229,-2.162155866622925
1761334214827573000,1.669572998046875,0.03543015569448471,0.050549060106277466,-0.7632755637168884
1761334214846274300,1.6882744140625,-0.4196641147136688,0.32421648502349854,0.15546508133411407
1761334214864976000,1.706975830078125,-0.5467239618301392,0.46654796600341797,0.8103121519088745
1761334214883677200,1.72567724609375,-0.5797106623649597,0.2032652497291565,1.1444551944732666
1761334214902378800,1.744378662109375,-0.5473348498344421,-0.15409064292907715,0.9874629378318787
1761334214921080300,1.763080322265625,-0.45387253165245056,-0.2903134822845459,0.5910117030143738
1761334214939782000,1.781781982421875,-0.3176496922969818,-0.3862192630767822,0.22999058663845062
1761334214958483200,1.800483154296875,-0.1130099818110466,-0.31291547417640686,0.005803215317428112
1761334214977184800,1.819184814453125,0.018325943499803543,-0.08200860023498535,-0.12492185086011887
1761334214995886300,1.83788623046875,0.08491020649671555,0.06643154472112656,-0.16646064817905426
1761334215014587600,1.856587646484375,0.10079269111156464,0.053603384643793106,-0.1798996776342392
1761334215033289200,1.875289306640625,0.08857539296150208,0.10919208079576492,-0.1597411334514618
1761334215051990800,1.89399072265625,0.07147117704153061,0.33765551447868347,-0.10659590363502502
1761334215070692000,1.912692138671875,0.03909534588456154,0.5080868005752563,0.05283980444073677
1761334215089393700,1.9313935546875,0.015271619893610477,0.37064221501350403,0.35643959045410156
1761334215108095200,1.95009521484375,0.05436696484684944,-0.11621702462434769,0.6600393652915955
1761334215126796800,1.968796875,0.03237583488225937,-0.0539088174700737,1.0039563179016113
1761334215145498000,1.987498046875,-0.10506874322891235,0.817184329032898,1.4120138883590698
1761334215164199700,2.00619970703125,-0.04764745384454727,0.567951500415802,0.9941824078559875
1761334215182901200,2.0249013671875,-0.050090912729501724,-0.40515607595443726,-0.06811141967773438
1761334215201602600,2.0436025390625,0.09590577334165573,-1.4698933362960815,-1.69301176071167
1761334215220304100,2.06230419921875,0.2987128794193268,-1.2817469835281372,-2.9520039558410645
1761334215239005400,2.08100537109375,0.2003636509180069,0.46166107058525085,-2.3209807872772217
1761334215257707000,2.09970703125,-0.002443459117785096,1.2032508850097656,-1.010064959526062
1761334215276408600,2.11840869140625,-0.11911863088607788,0.7567087411880493,0.11331541836261749
1761334215295110000,2.13710986328125,-0.19364413619041443,0.125074565410614,0.7754928469657898
1761334215313811500,2.1558115234375,-0.3029889166355133,0.11224640160799026,0.7913753390312195
1761334215332513000,2.174512939453125,-0.3384190797805786,0.46715885400772095,0.27397283911705017
1761334215351214600,2.193214599609375,-0.2412915825843811,0.6253728270530701,-0.2666424810886383
1761334215369916000,2.211916015625,-0.14477495849132538,0.4091266989707947,-0.4889972507953644
1761334215388617500,2.230617431640625,-0.007941242307424545,0.11652245372533798,-0.37659814953804016
1761334215407319000,2.249319091796875,0.09468404203653336,-0.2133445292711258,-0.22876885533332825
1761334215426020400,2.268020263671875,0.06352993845939636,-0.5053378939628601,-0.2110537886619568
1761334215444722000,2.286721923828125,-0.014049889519810677,-0.5902481079101562,-0.2770271897315979
1761334215463423200,2.30542333984375,-0.023823726922273636,-0.3459021747112274,-0.3753764033317566
1761334215482124800,2.324124755859375,-0.004886918235570192,0.16783510148525238,-0.26480987668037415
1761334215500826400,2.342826416015625,0.049480047076940536,0.4341721534729004,0.19150610268115997
1761334215519528000,2.36152783203125,0.164322629570961,0.10125083476305008,0.6160571575164795
1761334215538229200,2.380229248046875,0.26022839546203613,-0.2909243404865265,0.7913753390312195
1761334215556930800,2.398930908203125,0.11423171311616898,-0.24022257328033447,0.5739074349403381
1761334215575632400,2.41763232421875,-0.06597339361906052,-0.2536616027355194,-0.21777328848838806
1761334215594333700,2.436333740234375,-0.3023780584335327,-0.31780239939689636,-1.1829396486282349
1761334215613035300,2.45503515625,-0.3072649836540222,-0.5871937870979309,-2.232405424118042
1761334215631736800,2.47373681640625,0.05497783049941063,-0.6391173005104065,-2.7846271991729736
1761334215650438100,2.492438232421875,0.4007273018360138,0.360868364572525,-1.229365348815918
1761334215669139700,2.5111396484375,0.4147771894931793,0.3883572816848755,0.5409207344055176
1761334215687841300,2.52984130859375,0.18692462146282196,-0.2707658112049103,1.489593744277954
1761334215706542600,2.54854248046875,-0.1802051067352295,-0.5682569742202759,1.377805471420288
1761334215725244200,2.567244140625,-0.3591884970664978,0.0591011680662632,0.6490437984466553
1761334215743945700,2.58594580078125,-0.24862197041511536,0.6339249014854431,0.189673513174057
1761334215762647000,2.60464697265625,-0.0922405794262886,0.46838057041168213,0.19333870708942413
1761334215781348600,2.6233486328125,0.014049889519810677,-0.1107192412018776,0.272751122713089
1761334215800050200,2.64205029296875,0.09346231073141098,-0.490066260099411,0.1646280586719513
1761334215818751500,2.66075146484375,0.14477495849132538,-0.5071704983711243,-0.005803215317428112
1761334215837453000,2.679453125,0.20891575515270233,-0.2597702443599701,-0.1127045527100563
1761334215856154600,2.698154541015625,0.24312418699264526,-0.011759147047996521,-0.060781046748161316
1761334215874856000,2.71685595703125,0.26878049969673157,0.09880737960338593,0.1328630894422531
1761334215893557500,2.7355576171875,0.2822195291519165,0.11835505068302155,0.3943132162094116
1761334215912259000,2.754259033203125,0.2516762912273407,0.11591159552335739,0.6881392002105713
1761334215930960600,2.772960693359375,0.3481929302215576,0.2582430839538574,0.9789108037948608
1761334215949662000,2.791661865234375,0.39767298102378845,0.33337944746017456,1.1438442468643188
1761334215968363500,2.810363525390625,0.13133592903614044,0.36514443159103394,0.8475748896598816
1761334215987064800,2.82906494140625,0.07330377399921417,0.24297146499156952,0.21960589289665222
1761334216005766400,2.847766357421875,0.01649334840476513,0.006566796451807022,-0.3185659945011139
1761334216024468000,2.866468017578125,-0.026878049597144127,-0.35934120416641235,-1.1780527830123901
1761334216043169300,2.885169189453125,0.17715078592300415,-0.4857902228832245,-2.0265438556671143
1761334216061870800,2.903870849609375,0.18142683804035187,0.28328853845596313,-0.9819651246070862
1761334216080572400,2.922572509765625,0.037262752652168274,0.8385646343231201,0.6771436333656311
1761334216099274000,2.94127392578125,-0.1545487940311432,0.6217076182365417,1.5470150709152222
1761334216117975300,2.959975341796875,-0.46486809849739075,0.2600756883621216,1.4297289848327637
1761334216136676900,2.9786767578125,-0.6267472505569458,0.5093085169792175,0.8921679854393005
1761334216155378200,2.997378173828125,-0.5516108870506287,0.8782708644866943,0.416304349899292
1761334216174079700,3.016079833984375,-0.379347026348114,0.8019127249717712,0.19394956529140472
1761334216192781300,3.03478125,-0.2260199636220932,0.383470356464386,0.20861032605171204
1761334216211482600,3.053482666015625,-0.14233149588108063,0.00045814859913662076,0.23304490745067596
1761334216230184200,3.07218408203125,-0.08124501258134842,-0.20662501454353333,0.09010255336761475
1761334216248885800,3.0908857421875,0.03543015569448471,-0.31291547417640686,-0.19944734871387482
1761334216267587000,3.109587158203125,0.20341797173023224,-0.521831214427948,-0.4566214084625244
1761334216286288600,3.12828857421875,0.3860665261745453,-0.6281217336654663,-0.5549706816673279
1761334216304990200,3.146990234375,0.5571087002754211,-0.3630063831806183,-0.4621191918849945
1761334216323691800,3.16569189453125,0.6035344004631042,0.05177079141139984,-0.17256930470466614
1761334216342393000,3.18439306640625,0.5815432667732239,0.3773617148399353,0.12675444781780243
1761334216361094700,3.2030947265625,0.347582072019577,0.49281516671180725,0.38270679116249084
1761334216379796000,3.2217958984375,-0.08918625861406326,1.0089958906173706,0.7742711305618286
1761334216398497500,3.24049755859375,-0.16554436087608337,1.4781399965286255,0.4101957082748413
1761334216417199000,3.25919921875,-0.2706131041049957,0.9980003237724304,-0.8964440822601318
1761334216435900400,3.277900390625,-0.017104214057326317,-0.9818124175071716,-1.971566081047058
1761334216454602000,3.29660205078125,0.7153226733207703,-2.855334758758545,-2.2397356033325195
1761334216473303600,3.315303466796875,0.5210676789283752,-1.8614577054977417,-0.619722306728363
1761334216492005000,3.334005126953125,-0.004276053514331579,-0.16386447846889496,0.6887500286102295
1761334216510706400,3.35270654296875,-0.2419024556875229,0.4995346665382385,0.9239329695701599
1761334216529408000,3.371407958984375,-0.4514290690422058,0.6125446557998657,0.8231402635574341
1761334216548109300,3.390109375,-0.5845975875854492,0.7432697415351868,0.7651081085205078
1761334216566811000,3.408810791015625,-0.462424635887146,0.6375901103019714,0.6692023873329163
1761334216585512400,3.427512451171875,-0.17898337543010712,0.47265663743019104,0.7748819589614868
1761334216604213800,3.4462138671875,-0.006108647678047419,0.12751802802085876,0.9049961566925049
1761334216622915300,3.464915283203125,0.031154103577136993,-0.12476912885904312,0.7596103549003601
1761334216641617000,3.483616943359375,0.07086031138896942,-0.18341214954853058,0.2831358313560486
1761334216660318500,3.502318359375,0.14538581669330597,-0.07162389904260635,-0.34116798639297485
1761334216679019800,3.521019775390625,0.24801109731197357,0.11957678198814392,-0.7870992422103882
1761334216697721300,3.539721435546875,0.3488037884235382,0.29245150089263916,-0.8494074940681458
1761334216716422700,3.558422607421875,0.48013970255851746,0.4604393243789673,-0.5873464941978455
1761334216735124200,3.577124267578125,0.5528326034545898,0.4555523991584778,-0.2110537886619568
1761334216753825500,3.595825439453125,0.618806004524231,0.04321868345141411,0.1542433500289917
1761334216772527000,3.614527099609375,0.6884446144104004,-0.4198168218135834,0.5775726437568665
1761334216791228700,3.633228759765625,0.5045742988586426,0.12385283410549164,1.0564906597137451
1761334216809930200,3.65193017578125,0.18203771114349365,1.1922553777694702,1.107803225517273
1761334216828631600,3.670631591796875,0.24984370172023773,0.9308052062988281,0.30573782324790955
1761334216847333000,3.6893330078125,0.2987128794193268,-0.7643445730209351,-0.9007201194763184
1761334216866034700,3.70803466796875,0.5571087002754211,-2.568228244781494,-2.3845107555389404
1761334216884736000,3.726736083984375,0.7953459620475769,-1.5712969303131104,-1.7815871238708496
1761334216903437600,3.7454375,0.6206386089324951,0.07742711156606674,0.09315688163042068
1761334216922139100,3.76413916015625,0.17898337543010712,0.2692386507987976,1.2470804452896118
1761334216940840400,3.78284033203125,-0.20708316564559937,-0.17424917221069336,1.3429862260818481
1761334216959542000,3.8015419921875,-0.5406153202056885,-0.2964221239089966,0.9043853282928467
1761334216978243600,3.82024365234375,-0.5827649831771851,0.1207985132932663,0.562911868095398
1761334216996945000,3.83894482421875,-0.4471530318260193,0.4903717041015625,0.47067132592201233
1761334217015646500,3.857646484375,-0.39767298102378845,0.41462448239326477,0.47433650493621826
1761334217034348000,3.87634814453125,-0.3909534513950348,0.17088942229747772,0.40836310386657715
1761334217053049600,3.895049560546875,-0.2987128794193268,-0.03252854943275452,0.17745621502399445
1761334217071751000,3.9137509765625,-0.0769689604640007,-0.14859285950660706,-0.12431098520755768
1761334217090452500,3.932452392578125,0.1081230640411377,-0.20357069373130798,-0.32528549432754517
1761334217109153800,3.95115380859375,0.16554436087608337,-0.23533566296100616,-0.32039856910705566
1761334217127855400,3.96985546875,0.14233149588108063,-0.18585561215877533,-0.2159406989812851
1761334217146557000,3.988556884765625,0.053145237267017365,0.009010255336761475,-0.08765909820795059
1761334217165258200,4.00725830078125,-0.025045456364750862,0.22464552521705627,-0.01802051067352295
1761334217183959800,4.025959716796875,0.021380268037319183,0.2741255760192871,0.02107483521103859
1761334217202661400,4.044661376953125,0.010995565913617611,0.21181736886501312,0.2837466895580292
1761334217221362700,4.06336279296875,-0.09346231073141098,0.6015490889549255,0.7651081085205078
1761334217240064300,4.082064208984375,0.03298669680953026,1.11650812625885,1.1279618740081787
1761334217258765800,4.100765869140625,0.24373504519462585,0.5007563829421997,0.7913753390312195
1761334217277467100,4.119467041015625,0.18692462146282196,-0.9622647166252136,-0.6795870661735535
1761334217296168700,4.138168701171875,0.7690787315368652,-1.8339687585830688,-2.396728038787842
1761334217314870300,4.156870361328125,1.128878116607666,-1.2011128664016724,-1.5580105781555176
1761334217333571600,4.175571533203125,0.7409789562225342,-0.5199986696243286,0.6252201199531555
1761334217352273200,4.194273193359375,0.20158538222312927,-0.458301305770874,1.6704097986221313
1761334217370974500,4.212974365234375,-0.2370155304670334,-0.08017600327730179,1.2825106382369995
1761334217389676000,4.231676025390625,-0.5913171172142029,0.6265945434570312,0.4266890585422516
1761334217408377600,4.250377685546875,-0.7153226733207703,1.0908517837524414,-0.1853974610567093
1761334217427079200,4.2690791015625,-0.47525280714035034,1.0651954412460327,-0.04673115536570549
1761334217445780500,4.287780517578125,-0.24556763470172882,0.47204574942588806,0.36132651567459106
1761334217464482000,4.30648193359375,-0.1490510106086731,-0.1773035079240799,0.4456258714199066
1761334217483183600,4.32518359375,-0.09162971377372742,-0.3165806829929352,0.07360920310020447
1761334217501885000,4.343885009765625,-0.0030543238390237093,-0.1357647031545639,-0.37720900774002075
1761334217520586500,4.36258642578125,0.07635809481143951,0.015729768201708794,-0.5311469435691833
1761334217539287800,4.381287841796875,0.1130099818110466,0.053603384643793106,-0.40347617864608765
1761334217557989400,4.3999892578125,0.10751219838857651,0.11285726726055145,-0.13652828335762024
1761334217576691000,4.41869091796875,0.047036588191986084,0.2441931962966919,0.0821613147854805
1761334217595392500,4.437392578125,0.023823726922273636,0.5337430834770203,0.11698060482740402
1761334217614093800,4.45609375,0.05925388261675835,0.6559160351753235,0.010079269297420979
1761334217632795400,4.47479541015625,0.0922405794262886,0.8587231636047363,0.1750127524137497
1761334217651497000,4.4934970703125,0.053145237267017365,1.200196623802185,0.7156280875205994
1761334217670198300,4.5121982421875,0.039706211537122726,0.6834049820899963,0.406530499458313
1761334217688900400,4.530900390625,-0.01893680728971958,-0.1980729103088379,-0.5800161361694336
1761334217707602000,4.549601806640625,0.46608981490135193,-1.1919498443603516,-2.009439706802368
1761334217726303500,4.568303466796875,1.2137882709503174,-1.162628412246704,-1.979507327079773
1761334217745004800,4.5870048828125,0.7275399565696716,-0.14737112820148468,0.03390299528837204
1761334217763706400,4.605706298828125,0.11056652665138245,0.26679518818855286,1.2696824073791504
1761334217782407700,4.62440771484375,-0.19425499439239502,0.18921536207199097,1.387579321861267
1761334217801109200,4.643109130859375,-0.5491674542427063,0.2845102846622467,1.118798851966858
1761334217819810800,4.661810791015625,-0.6401863098144531,0.5929969549179077,0.9257655739784241
1761334217838512400,4.680512451171875,-0.5540543794631958,0.5734493136405945,0.8707877397537231
1761334217857213700,4.699213623046875,-0.48075059056282043,0.24663665890693665,0.7565560340881348
1761334217875915300,4.717915283203125,-0.4612029194831848,-0.233503058552742,0.3283398151397705
1761334217894616800,4.736616943359375,-0.3549124300479889,-0.4857902228832245,-0.2868010103702545
1761334217913318100,4.755318115234375,-0.1178968995809555,-0.5645917654037476,-0.7699950337409973
1761334217932019700,4.774019775390625,0.0873536616563797,-0.6366738080978394,-0.8872811198234558
1761334217950721000,4.792720947265625,0.14660754799842834,-0.5988001823425293,-0.6209440231323242
1761334217969422600,4.811422607421875,0.046425722539424896,-0.388051837682724,-0.27519458532333374
1761334217988124200,4.830124267578125,-0.06902772188186646,-0.03375028073787689,-0.08765909820795059
1761334218006825700,4.84882568359375,-0.14477495849132538,0.2637408673763275,-0.021685699000954628
1761334218025527000,4.867527099609375,-0.16859868168830872,0.4280634820461273,0.04245510324835777
1761334218044228600,4.886228515625,-0.1594357043504715,0.4341721534729004,0.24831652641296387
1761334218062930200,4.90493017578125,-0.31459537148475647,1.1409426927566528,0.8720094561576843
1761334218081631500,4.923631591796875,-0.3237583339214325,1.235015869140625,0.8365793228149414
1761334218100333000,4.9423330078125,-0.20708316564559937,-0.07528908550739288,-0.23182319104671478
1761334218119034400,4.961034423828125,-0.02871064469218254,-2.213315725326538,-2.422384262084961
1761334218137736000,4.97973583984375,0.6243038177490234,-2.5914411544799805,-3.537823438644409
1761334218156437500,4.9984375,0.9138537049293518,-0.3715584874153137,-1.3900227546691895
1761334218175138800,5.017138916015625,0.46364638209342957,0.02611446939408779,1.0680971145629883
1761334218193840400,5.03584033203125,-0.030543239787220955,-0.6598866581916809,2.045480728149414
1761334218212542000,5.0545419921875,-0.544891357421875,-0.5022835731506348,1.6404774188995361
1761334218231243500,5.073243408203125,-1.074511170387268,0.753654420375824,0.8023709058761597
1761334218249944800,5.09194482421875,-1.422093152999878,1.6620103120803833,0.2965748608112335
1761334218268646400,5.110646484375,-1.4306453466415405,1.4976876974105835,0.2208276242017746
1761334218287347700,5.12934765625,-1.147204041481018,0.4860956370830536,0.2715294063091278
1761334218306049300,5.14804931640625,-0.7244856357574463,-0.5352702736854553,0.27580544352531433
1761334218324750800,5.166750732421875,-0.39767298102378845,-0.9695951342582703,0.19761475920677185
1761334218343452200,5.1854521484375,-0.2571740746498108,-0.9323323965072632,0.013744457624852657
1761334218362153700,5.20415380859375,-0.3194822669029236,-0.6085740327835083,-0.18356487154960632
1761334218380855300,5.222855224609375,-0.4416552484035492,-0.19990549981594086,-0.33505934476852417
1761334218399556900,5.241556884765625,-0.48930269479751587,0.09636391699314117,-0.38331764936447144
1761334218418258200,5.260258056640625,-0.5406153202056885,0.02000582218170166,-0.3094030022621155
1761334218436959700,5.278959716796875,-0.5076286196708679,-0.5022835731506348,-0.11209368705749512
1761334218455661000,5.2976611328125,-0.27916520833969116,-0.7814487814903259,0.22449280321598053
1761334218474362600,5.316362548828125,-0.17776164412498474,-0.13454297184944153,0.6575959324836731
1761334218493064200,5.335064208984375,-0.17104214429855347,0.49342602491378784,0.6337721943855286
1761334218511765500,5.353765625,-0.02932151034474373,-0.04108065739274025,-0.09132428467273712
1761334218530467000,5.372467041015625,0.07880155742168427,-1.3581050634384155,-1.4126248359680176
1761334218549168600,5.391168701171875,0.1692095398902893,-2.1326816082000732,-2.768744707107544
1761334218567870000,5.409869873046875,0.1331685185432434,-0.7325795888900757,-2.0656392574310303
1761334218586571500,5.428571533203125,-0.05497783049941063,0.3272708058357239,-0.35277441143989563
1761334218605273000,5.447273193359375,-0.19364413619041443,-0.0007635809597559273,0.7907644510269165
1761334218623974400,5.465974365234375,-0.41844236850738525,-0.7032580971717834,1.0308343172073364
1761334218642676000,5.484676025390625,-0.8100066781044006,-0.3165806829929352,0.6325504779815674
1761334218661377500,5.50337744140625,-0.998763918876648,0.6626355648040771,0.10109812021255493
1761334218680078800,5.522078857421875,-0.8448259830474854,0.9509637355804443,-0.0412333719432354
1761334218698780400,5.540780517578125,-0.6053670048713684,0.3303251266479492,0.04673115536570549
1761334218717482000,5.55948193359375,-0.4410443603992462,-0.549930989742279,0.016798781231045723
1761334218736183300,5.578183349609375,-0.2620609998703003,-0.7741183638572693,-0.21288637816905975
1761334218754884900,5.596884765625,-0.0818558782339096,-0.5731438994407654,-0.4462367296218872
1761334218773586400,5.61558642578125,0.049480047076940536,-0.4448622763156891,-0.5531380772590637
1761334218792287700,5.634287841796875,0.14538581669330597,-0.3263545036315918,-0.46456265449523926
1761334218810989300,5.6529892578125,0.15088360011577606,-0.14492766559123993,-0.20861032605171204
1761334218829690600,5.671690673828125,0.12034036219120026,-0.1003345400094986,0.07544180005788803
1761334218848392200,5.69039208984375,0.13439024984836578,-0.16508620977401733,0.3601047992706299
1761334218867093800,5.70909375,0.14110976457595825,-0.2842048406600952,0.572685718536377
1761334218885795000,5.727795166015625,-0.04581485688686371,0.36514443159103394,0.961195707321167
1761334218904496600,5.74649658203125,0.021991131827235222,1.1189515590667725,1.1432334184646606
1761334218923198200,5.7651982421875,0.1844811588525772,0.3016144931316376,0.5732966065406799
1761334218941899800,5.783899658203125,-0.13561198115348816,-0.9909753799438477,-0.49021899700164795
1761334218960601000,5.80260107421875,0.009162971749901772,-1.5981749296188354,-2.0332634449005127
1761334218979302700,5.821302734375,0.360410213470459,-0.7252492308616638,-2.0796890258789062
1761334218998004000,5.84000390625,0.1539379209280014,0.45799586176872253,-0.2837466895580292
1761334219016705500,5.85870556640625,-0.004276053514331579,0.577725350856781,1.0790926218032837
1761334219035407000,5.877406982421875,-0.14538581669330597,0.15073087811470032,1.6111558675765991
1761334219054108400,5.8961083984375,-0.4935787320137024,0.007177661173045635,1.5012001991271973
1761334219072810000,5.91481005859375,-0.7232639193534851,0.46715885400772095,1.0876446962356567
1761334219091511600,5.933511474609375,-0.6939423680305481,0.763428270816803,0.8011491298675537
1761334219110213000,5.952213134765625,-0.5955931544303894,0.5337430834770203,0.7064651250839233
1761334219128914400,5.97091455078125,-0.5009090900421143,-0.0007635809597559273,0.5543597936630249
1761334219147616000,5.989615966796875,-0.3390299379825592,-0.5047270059585571,0.21960589289665222
1761334219166317300,6.0083173828125,-0.10690133273601532,-0.7142536640167236,-0.17562362551689148
1761334219185019000,6.027018798828125,0.04214967042207718,-0.7105884552001953,-0.37720900774002075
1761334219203720400,6.045720458984375,0.06597339361906052,-0.5780308246612549,-0.35216355323791504
1761334219222421800,6.064421875,0.03237583488225937,-0.3116937577724457,-0.2409861534833908
1761334219241123300,6.083123291015625,-0.04520399495959282,-0.02825249545276165,-0.1585194170475006
1761334219259825000,6.101824951171875,-0.14294235408306122,-0.02764163166284561,-0.09315688163042068
1761334219278526200,6.120526123046875,-0.10751219838857651,-0.20479241013526917,0.15546508133411407
1761334219297227800,6.139227783203125,-0.028099779039621353,-0.15347976982593536,0.47494736313819885
1761334219315929300,6.157929443359375,-0.017104214057326317,-0.014813470654189587,0.31123560667037964
1761334219334630700,6.176630615234375,0.03298669680953026,-0.2585485279560089,-0.38759371638298035
1761334219353332200,6.195332275390625,0.09162971377372742,-0.5358811020851135,-1.3319905996322632
1761334219372033500,6.214033447265625,0.3433060050010681,-1.3678789138793945,-2.7901248931884766
1761334219390735000,6.232735107421875,0.5271763205528259,-0.6928733587265015,-2.30265474319458
1761334219409436700,6.251436767578125,0.235793799161911,0.1715002804994583,-0.602007269859314
1761334219428138000,6.270137939453125,-0.08368847519159317,0.30833399295806885,0.6117810606956482
1761334219446839600,6.288839599609375,-0.2565632164478302,0.22647811472415924,1.3136646747589111
1761334219465541000,6.307541015625,-0.5241219997406006,0.30833399295806885,1.5384629964828491
1761334219484242700,6.32624267578125,-0.675616443157196,0.7762564420700073,1.359479546546936
1761334219502944000,6.344944091796875,-0.6444623470306396,1.0548107624053955,0.9831868410110474
1761334219521645600,6.3636455078125,-0.41783151030540466,0.661413848400116,0.5787943601608276
1761334219540347000,6.382346923828125,-0.11972949653863907,-0.06307178735733032,0.25503605604171753
1761334219559048400,6.40104833984375,0.1441640853881836,-0.4741837978363037,0.06505709886550903
1761334219577750000,6.41975,0.3384190797805786,-0.6012436747550964,-0.029016077518463135
1761334219596451300,6.438451416015625,0.4050033390522003,-0.5584831237792969,-0.06811141967773438
1761334219615153000,6.45715283203125,0.35613417625427246,-0.3526217043399811,-0.1597411334514618
1761334219633854500,6.4758544921875,0.1905898153781891,-0.016035201027989388,-0.22876885533332825
1761334219652555800,6.4945556640625,0.014660755172371864,0.23136503994464874,-0.18295399844646454
1761334219671257300,6.51325732421875,-0.11606431007385254,0.37369653582572937,-0.004581485874950886
1761334219689959000,6.531958984375,-0.1692095398902893,0.26618432998657227,0.25320345163345337
1761334219708660200,6.55066015625,-0.15149445831775665,0.1464548259973526,0.5067123174667358
1761334219727361800,6.56936181640625,-0.04825831577181816,0.04627300798892975,0.5555815100669861
1761334219746063400,6.5880634765625,0.13500112295150757,-0.40698865056037903,0.1750127524137497
1761334219764764700,6.6067646484375,0.1649334877729416,-1.1253656148910522,-0.9795216917991638
1761334219783466200,6.62546630859375,0.31520622968673706,-1.7062979936599731,-2.7540838718414307
1761334219802167800,6.644167724609375,0.39339691400527954,0.047494735568761826,-2.1187844276428223
1761334219820869000,6.662869140625,0.21807873249053955,1.2753329277038574,-0.22449280321598053
1761334219839570700,6.68157080078125,-0.010995565913617611,0.6748528480529785,0.8701768517494202
1761334219858272300,6.700272216796875,-0.2669478952884674,-0.2390008419752121,1.1230748891830444
1761334219876973600,6.7189736328125,-0.6646208763122559,-0.09056070446968079,0.9752455949783325
1761334219895675100,6.737675048828125,-0.9407317638397217,0.8886555433273315,0.5910117030143738
1761334219914376400,6.75637646484375,-0.9236275553703308,1.3211477994918823,0.31001389026641846
1761334219933078000,6.775078125,-0.7538071274757385,0.8287907838821411,0.25809037685394287
1761334219951779600,6.793779541015625,-0.573602020740509,-0.1870773434638977,0.16768237948417664
1761334219970481200,6.812481201171875,-0.41355544328689575,-0.8223767280578613,-0.05283980444073677
1761334219989182500,6.831182373046875,-0.20647229254245758,-0.7704532146453857,-0.2813032269477844
1761334220007884000,6.849884033203125,-0.09040798991918564,-0.44669488072395325,-0.38331764936447144
1761334220026585300,6.86858544921875,-0.21319180727005005,-0.12110394239425659,-0.3222311735153198
1761334220045287000,6.887286865234375,-0.36224281787872314,0.08414662629365921,-0.10537417232990265
1761334220063988500,6.905988525390625,-0.43371400237083435,0.12812888622283936,0.08277218043804169
1761334220082689800,6.924689697265625,-0.4196641147136688,0.06765327602624893,0.09132428467273712
1761334220101391400,6.943391357421875,-0.3274235129356384,-0.058795735239982605,-0.10415244847536087
1761334220120092700,6.9620927734375,-0.35063639283180237,0.3816377818584442,0.34238970279693604
1761334220138794200,6.980794189453125,-0.06780599057674408,0.7762564420700073,1.17499840259552
1761334220157495800,6.999495849609375,0.38850998878479004,-1.187673807144165,0.5115992426872253
1761334220176197400,7.018197265625,0.10751219838857651,-3.0141594409942627,-1.5372412204742432
1761334220194898700,7.036898681640625,-0.18264856934547424,-2.934136152267456,-4.110814571380615
1761334220213600300,7.055600341796875,-0.11178825795650482,0.21059563755989075,-4.212218284606934
1761334220232301600,7.074301513671875,-0.16859868168830872,1.8037309646606445,-2.44804048538208
1761334220251003100,7.093003173828125,-0.2926042377948761,0.6919570565223694,-0.37293294072151184
1761334220269704700,7.11170458984375,-0.24556763470172882,-0.5798633694648743,1.479209065437317
1761334220288406000,7.130406005859375,-0.18081597983837128,-0.7673988938331604,2.3350305557250977
1761334220307107600,7.149107666015625,-0.2052505612373352,0.2338084876537323,1.802356481552124
1761334220325809200,7.16780908203125,-0.014660755172371864,0.8947641849517822,0.8426879644393921
1761334220344510700,7.1865107421875,0.23212862014770508,0.42012226581573486,0.2574795186519623
1761334220363212000,7.2052119140625,0.47097674012184143,-0.10583232343196869,0.24953825771808624
1761334220381913600,7.22391357421875,0.5778780579566956,-0.35506516695022583,0.4523453712463379
1761334220400615000,7.242614990234375,0.5283980369567871,-0.40515607595443726,0.47067132592201233
1761334220419316500,7.26131640625,0.40255987644195557,-0.18096868693828583,0.24037529528141022
1761334220438017800,7.280017822265625,0.2822195291519165,0.1415679156780243,0.008246674202382565
1761334220456719400,7.29871923828125,0.17653992772102356,0.4604393243789673,0.0461202897131443
1761334220475421000,7.3174208984375,0.18753549456596375,0.3633118271827698,0.3686569035053253
1761334220494122500,7.33612255859375,0.20219624042510986,-0.0062613640911877155,0.7528908252716064
1761334220512823800,7.35482373046875,0.11423171311616898,0.09758564829826355,0.693636953830719
1761334220531525400,7.373525390625,0.1954767256975174,0.6284271478652954,0.4786125421524048
1761334220550227000,7.39222705078125,0.5986474752426147,0.5306887626647949,0.30573782324790955
1761334220568928300,7.41092822265625,0.8124501705169678,-0.560315728187561,-0.05100720748305321
1761334220587629800,7.4296298828125,0.8552106618881226,-2.3794710636138916,-1.5445716381072998
1761334220606331100,7.4483310546875,0.8759800791740417,-1.2567015886306763,-2.424827814102173
1761334220625032700,7.46703271484375,0.6340776681900024,1.103679895401001,-1.2067633867263794
1761334220643734300,7.485734375,0.31031930446624756,0.9967786073684692,0.3857611119747162
1761334220662435800,7.504435791015625,0.10140355676412582,-0.0850629210472107,1.49081552028656
1761334220681137200,7.52313720703125,-0.1893680840730667,-0.23044873774051666,1.682016134262085
1761334220699838700,7.541838623046875,-0.4269944727420807,0.7041743993759155,0.9544762372970581
1761334220718540000,7.5605400390625,-0.3805687427520752,1.317482590675354,0.2110537886619568
1761334220737241600,7.57924169921875,-0.10445787757635117,0.855057954788208,-0.12553271651268005
1761334220755943200,7.597943115234375,0.17898337543010712,0.05177079141139984,-0.21838416159152985
1761334220774644500,7.61664453125,0.30054548382759094,-0.2964221239089966,-0.2971857190132141
1761334220793346000,7.635345947265625,0.328645259141922,-0.2890917658805847,-0.5568032264709473
1761334220812047400,7.65404736328125,0.2663370370864868,-0.03375028073787689,-0.711962878704071
1761334220830749000,7.6727490234375,0.1637117564678192,0.22525638341903687,-0.6044507026672363
1761334220849450500,7.691450439453125,0.06352993845939636,0.23625195026397705,-0.25931209325790405
1761334220868151800,7.71015185546875,-0.02626718580722809,0.145843967795372,0.13958260416984558
1761334220886853400,7.728853271484375,-0.1496618688106537,0.11224640160799026,0.39736753702163696
1761334220905555000,7.747554931640625,-0.16310089826583862,0.23075416684150696,0.39370235800743103
1761334220924256300,7.76625634765625,-0.07147117704153061,0.2997818887233734,0.1438586562871933
1761334220942957800,7.784957763671875,0.05253437161445618,0.3724747896194458,0.07910698652267456
1761334220961659100,7.8036591796875,0.21258094906806946,0.3767508566379547,0.03145953640341759
1761334220980360700,7.822360595703125,0.5351175665855408,-0.20112723112106323,-0.11881320178508759
1761334220999062300,7.841062255859375,1.053741693496704,-1.1174243688583374,-0.20433427393436432
1761334221017763800,7.859763916015625,1.3646719455718994,-1.4912736415863037,-1.0864230394363403
1761334221036465200,7.878465087890625,1.2217295169830322,0.30222535133361816,-0.9117156863212585
1761334221055166500,7.89716650390625,0.9902117848396301,1.264337420463562,-0.029626941308379173
1761334221073868000,7.915867919921875,0.833219587802887,0.7774781584739685,0.8011491298675537
1761334221092569600,7.934569580078125,0.8148936033248901,0.060933761298656464,1.0583232641220093
1761334221111271200,7.953271240234375,0.4984656572341919,0.1922696828842163,0.9062178730964661
1761334221129972500,7.971972412109375,0.02871064469218254,0.7976366877555847,0.5537489056587219
1761334221148674000,7.990674072265625,-0.2571740746498108,1.11345374584198,0.1847866028547287
1761334221167375600,8.009375732421875,-0.2987128794193268,0.7854194045066833,-0.09560033679008484
1761334221186077000,8.028076904296874,-0.18081597983837128,0.04505127668380737,-0.3387245237827301
1761334221204778500,8.046778564453126,-0.11239911615848541,-0.5542070865631104,-0.6056724190711975
1761334221223480000,8.06547998046875,-0.01649334840476513,-0.7741183638572693,-0.8750637769699097
1761334221242181400,8.084181396484375,0.07269290834665298,-0.6281217336654663,-0.9367611408233643
1761334221260883000,8.102883056640625,0.09651663154363632,-0.34956738352775574,-0.7535017132759094
1761334221279584300,8.121584228515625,0.04459312930703163,-0.1302669197320938,-0.509155809879303
1761334221298285800,8.140285888671874,-0.07574722915887833,-0.0007635809597559273,-0.4211912751197815
1761334221316987400,8.1589873046875,-0.10873392969369888,0.06643154472112656,-0.4938841760158539
1761334221335689000,8.17768896484375,-0.0054977829568088055,0.12690715491771698,-0.4975493550300598
1761334221354390300,8.196390380859375,-0.258395791053772,0.7658717036247253,0.06383536756038666
1761334221373091800,8.215091796875,-0.32559093832969666,0.9680679440498352,0.518318772315979
1761334221391793200,8.233793212890625,-0.049480047076940536,0.5795579552650452,0.4272999167442322
1761334221410494700,8.25249462890625,0.2926042377948761,-0.2542724609375,-0.07299833744764328
1761334221429196000,8.271196044921876,0.7733548283576965,-0.8816305994987488,-1.0332777500152588
1761334221447897600,8.289897705078126,0.536339282989502,-0.2646571695804596,-0.9972367286682129
1761334221466599200,8.30859912109375,0.039706211537122726,0.6962331533432007,-0.026572618633508682
1761334221485300700,8.32730078125,-0.22174391150474548,1.095127820968628,0.5140427350997925
1761334221504002000,8.346001953125,-0.4770853817462921,0.6724094152450562,0.4572322964668274
1761334221522703600,8.36470361328125,-0.7391464114189148,0.31261005997657776,0.2208276242017746
1761334221541405000,8.383405029296876,-0.860708475112915,0.6577486395835876,-0.007635809946805239
1761334221560106500,8.4021064453125,-0.7837395071983337,0.9332486391067505,-0.07849612087011337
1761334221578808000,8.42080810546875,-0.759304940700531,0.651029109954834,-0.11698060482740402
1761334221597509400,8.43950927734375,-0.6963858604431152,0.11835505068302155,-0.16646064817905426
1761334221616211000,8.4582109375,-0.38301220536231995,-0.32391104102134705,-0.26480987668037415
1761334221634912300,8.476912353515624,-0.056810423731803894,-0.5334376692771912,-0.4663952589035034
1761334221653613800,8.49561376953125,0.10140355676412582,-0.4338667094707489,-0.5342012643814087
1761334221672315400,8.5143154296875,0.08796452730894089,-0.3404043912887573,-0.45051276683807373
1761334221691016700,8.5330166015625,-0.021380268037319183,-0.19074252247810364,-0.3094030022621155
1761334221709718300,8.55171826171875,-0.17287473380565643,0.03588830679655075,-0.291687935590744
1761334221728419800,8.570419921875,-0.17226386070251465,0.12935061752796173,-0.27519458532333374
1761334221747121200,8.58912109375,-0.15577052533626556,0.0102319847792387,-0.1487455666065216
1761334221765822700,8.60782275390625,-0.1649334877729416,-0.18341214954853058,-0.038789913058280945
1761334221784524000,8.62652392578125,-0.053145237267017365,-0.04169152304530144,0.4370737373828888
1761334221803225600,8.6452255859375,0.17226386070251465,-0.551152765750885,0.5396990180015564
1761334221821927200,8.66392724609375,0.1795942485332489,-2.723998785018921,-0.8225294351577759
1761334221840628700,8.682628662109375,0.2968802750110626,-2.676351308822632,-1.8811581134796143
1761334221859330000,8.701330078125,0.740368127822876,-0.016035201027989388,-1.416290044784546
1761334221878031600,8.720031494140626,0.8662062287330627,1.3229804039001465,-0.29962918162345886
1761334221896733000,8.73873291015625,0.3964512348175049,0.8031344413757324,0.6508764028549194
1761334221915434500,8.7574345703125,-0.1386663019657135,-0.3520108163356781,1.211039423942566
1761334221934135800,8.7761357421875,-0.08307760953903198,-0.549930989742279,1.1462877988815308
1761334221952837400,8.79483740234375,0.1081230640411377,0.19898919761180878,0.8310815095901489
1761334221971539000,8.8135390625,0.04825831577181816,0.7854194045066833,0.5952877402305603
1761334221990240500,8.832240478515626,-0.14172062277793884,0.8440623879432678,0.4462367296218872
1761334222008941800,8.85094189453125,-0.2107483446598053,0.351705402135849,0.3436114490032196
1761334222027643400,8.869643310546875,-0.007941242307424545,0.07376192510128021,0.15546508133411407
1761334222046344700,8.8883447265625,0.3090975880622864,0.09147699922323227,-0.06444623321294785
1761334222065046300,8.90704638671875,0.45937031507492065,0.14340050518512726,-0.1279761642217636
1761334222083747600,8.92574755859375,0.3787361681461334,0.13729186356067657,-0.007635809946805239
1761334222102449200,8.94444921875,0.22968515753746033,-0.08567378669977188,0.20127993822097778
1761334222121150700,8.963150634765626,0.07330377399921417,-0.264046311378479,0.4114174246788025
1761334222139852300,8.981852294921875,0.026878049597144127,-0.06368265300989151,0.4920515716075897
1761334222158553600,9.0005537109375,0.11667517572641373,0.3981311321258545,0.10659590363502502
1761334222177255200,9.019255126953125,0.053145237267017365,1.3681844472885132,-0.1951712965965271
1761334222195956500,9.03795654296875,-0.012217295356094837,0.7353284955024719,0.21960589289665222
1761334222214658000,9.056657958984376,0.17226386070251465,-0.16875138878822327,0.6948586702346802
1761334222233359400,9.075359375,0.2315177470445633,-1.2970186471939087,-0.05833758786320686
1761334222252061000,9.09406103515625,0.38240134716033936,-1.6464333534240723,-1.9856159687042236
1761334222270762500,9.112762451171875,0.4147771894931793,-0.49189886450767517,-2.6111414432525635
1761334222289464000,9.131464111328125,0.08979712426662445,0.790917158126831,-1.7602068185806274
1761334222308165400,9.150165283203124,-0.45387253165245056,0.2942841053009033,-0.8408553600311279
1761334222326867000,9.168866943359374,-0.42332929372787476,-1.1045962572097778,0.03817904740571976
1761334222345568300,9.187568359375,0.07880155742168427,-1.465617299079895,0.5348120927810669
1761334222364269800,9.206269775390625,0.30115634202957153,-0.6366738080978394,0.2519817352294922
1761334222382971100,9.22497119140625,0.04581485688686371,0.30283620953559875,-0.20250166952610016
1761334222401672700,9.243672607421875,-0.20463970303535461,0.4030180275440216,-0.38698282837867737
1761334222420374300,9.262374267578124,-0.20341797173023224,0.3217730224132538,-0.3326158821582794
1761334222439075800,9.281075927734374,-0.11239911615848541,0.3572031855583191,-0.10476330667734146
1761334222457777200,9.299777099609376,-0.046425722539424896,0.19410228729248047,0.2837466895580292
1761334222476478700,9.318478759765625,-0.07086031138896942,-0.15958842635154724,0.5781835317611694
1761334222495180000,9.337179931640625,-0.1637117564678192,-0.3013090491294861,0.5513054728507996
1761334222513881600,9.355881591796875,-0.3029889166355133,0.15012001991271973,0.20127993822097778
1761334222532583000,9.3745830078125,-0.41355544328689575,0.7334958910942078,-0.21838416159152985
1761334222551284500,9.393284423828124,-0.4459312856197357,0.8880446553230286,-0.5396990180015564
1761334222569986000,9.411986083984376,-0.37690356373786926,0.8312342762947083,-0.5995637774467468
1761334222588687400,9.430687255859375,-0.32681265473365784,0.9033163189888,-0.20738859474658966
1761334222607389000,9.449388916015625,-0.4563159942626953,0.6766854524612427,0.23854269087314606
1761334222626090500,9.468090576171875,-0.23518294095993042,-0.6177369952201843,0.07360920310020447
1761334222644791800,9.486791748046874,-0.1539379209280014,-1.9237658977508545,-0.8341358304023743
1761334222663493400,9.505493408203124,-0.5057960152626038,-2.403294801712036,-2.069915294647217
1761334222682194700,9.524194580078126,-0.7483093738555908,-1.2328778505325317,-2.1364996433258057
1761334222700896300,9.542896240234375,-0.5424479246139526,-0.15042544901371002,-0.9978476166725159
1761334222719597600,9.56159765625,0.017715077847242355,-0.27137666940689087,0.18661919236183167
1761334222738299100,9.580299072265625,0.11056652665138245,-0.6965385675430298,0.6716458201408386
1761334222757000700,9.599000732421874,0.02932151034474373,-0.6006327867507935,0.5433642268180847
1761334222775702300,9.617702392578124,0.15149445831775665,0.2582430839538574,0.3191768527030945
1761334222794403600,9.636403564453126,0.2822195291519165,1.0743584632873535,0.2409861534833908
1761334222813105200,9.655105224609375,0.21502439677715302,1.1287254095077515,0.39858928322792053
1761334222831806500,9.673806396484375,-0.039706211537122726,0.7273872494697571,0.6032289862632751
1761334222850508000,9.692508056640625,-0.08063415437936783,0.6565269231796265,0.722347617149353
1761334222869209300,9.711209228515624,0.09712749719619751,0.5471821427345276,0.8127555847167969
1761334222887911000,9.729910888671874,0.17104214429855347,0.23991714417934418,0.703410804271698
1761334222906612500,9.748612548828126,0.12400554865598679,0.3773617148399353,0.48044514656066895
1761334222925313800,9.767313720703125,0.1484401375055313,0.4812087416648865,0.2617555558681488
1761334222944015400,9.786015380859375,0.24556763470172882,0.6046034097671509,0.11331541836261749
1761334222962716700,9.804716552734375,0.2528980076313019,0.6950113773345947,0.08643736690282822
1761334222981418200,9.823418212890624,0.4147771894931793,0.8446732759475708,0.38209593296051025
1761334223000119800,9.842119873046874,0.4196641147136688,1.177594542503357,1.2550216913223267
1761334223018821000,9.860821044921876,0.36163195967674255,0.12996147572994232,1.746156930923462
1761334223037522700,9.879522705078125,0.33658650517463684,-0.9598212838172913,1.0974185466766357
1761334223056224300,9.898224365234375,0.2974911332130432,-0.9860884547233582,-0.21655155718326569
1761334223074925600,9.916925537109375,0.07024945318698883,-0.7490729093551636,-1.5299108028411865
1761334223093627100,9.935627197265624,-0.07635809481143951,0.11163553595542908,-1.4999784231185913
1761334223112328400,9.954328369140624,-0.23823726177215576,0.27717989683151245,-0.2837466895580292
1761334223131030000,9.973030029296876,-0.25961753726005554,-0.34895649552345276,0.7040216326713562
1761334223149731300,9.9917314453125,-0.164322629570961,-0.29886558651924133,0.804814338684082
1761334223168433000,10.010432861328125,0.053145237267017365,0.37064221501350403,0.26480987668037415
1761334223187134500,10.029134521484375,0.09590577334165573,0.801301896572113,-0.14813470840454102
1761334223205835800,10.047835693359374,0.023823726922273636,0.6998983025550842,-0.04306596517562866
1761334223224537300,10.066537353515624,0.04214967042207718,0.4182896614074707,0.30634868144989014
1761334223243239000,10.085239013671876,0.23335035145282745,-0.0795651376247406,0.6539307236671448
1761334223261940200,10.103940185546875,0.3127627670764923,-0.09422589093446732,0.6783653497695923
1761334223280641800,10.122641845703125,0.2370155304670334,0.02672533318400383,0.4407389461994171
1761334223299343000,10.141343017578125,0.0818558782339096,0.0902552679181099,0.13164135813713074
