time,seconds_elapsed,z,y,x
1761334213237946400,0.0799462890625,-0.0256563201546669,-0.040317077189683914,0.34574946761131287
1761334213256648000,0.09864794921875,-0.040317077189683914,0.0873536616563797,0.3023780584335327
1761334213275349200,0.117349365234375,-0.07880155742168427,0.22907429933547974,0.14782927930355072
1761334213294050800,0.13605078125,-0.031154103577136993,0.4269944727420807,-0.10873392969369888
1761334213312752400,0.15475244140625,0.0922405794262886,0.8185588121414185,-0.34147340059280396
1761334213331453700,0.17345361328125,0.21746785938739777,0.9957095980644226,-0.27550002932548523
1761334213350155300,0.1921552734375,0.13133592903614044,1.1954623460769653,-0.08429934084415436
1761334213368856800,0.21085693359375,0.164322629570961,0.813060998916626,-0.06841685622930527
1761334213387558100,0.22955810546875,0.19608759880065918,0.25473061203956604,0.02260199747979641
1761334213406259700,0.248259765625,0.1997527778148651,-0.17715078592300415,0.06352993845939636
1761334213424961300,0.266961181640625,0.16065743565559387,-0.4269944727420807,0.20708316564559937
1761334213443662600,0.28566259765625,-0.07513637095689774,-0.5387827157974243,0.22235478460788727
1761334213462364200,0.3043642578125,-0.328645259141922,-0.3707949221134186,-0.11423171311616898
1761334213481065700,0.323065673828125,-0.4679224193096161,-0.5180133581161499,-0.48502662777900696
1761334213499767300,0.341767333984375,-0.5186241865158081,-0.4990765154361725,-0.5955931544303894
1761334213518468600,0.360468505859375,-0.6585122346878052,-0.23823726177215576,-0.5760455131530762
1761334213537170200,0.379170166015625,-0.8020654320716858,-0.2571740746498108,-0.7806851863861084
1761334213555871700,0.397871826171875,-0.8668171167373657,-0.5259546041488647,-0.8662062287330627
1761334213574573000,0.416572998046875,-0.7947350740432739,-0.5021308660507202,-0.6371319890022278
1761334213593274600,0.435274658203125,-0.6615665555000305,-0.5937605500221252,-0.34086254239082336
1761334213611976000,0.453975830078125,-0.4111120104789734,-0.593149721622467,-0.24556763470172882
1761334213630677500,0.472677490234375,0.2620609998703003,-0.34208428859710693,-0.28954991698265076
1761334213649379000,0.491379150390625,0.6126973628997803,-0.13133592903614044,-0.5674933791160583
1761334213668080600,0.51008056640625,0.4477638900279999,-0.23945899307727814,-0.870482325553894
1761334213686782200,0.5287822265625,0.29504770040512085,0.13255766034126282,-0.5919279456138611
1761334213705483500,0.5474833984375,0,0.2205221801996231,-0.06475166976451874
1761334213724185000,0.56618505859375,-0.18692462146282196,-0.018325943499803543,0.36224281787872314
1761334213742886700,0.58488671875,-0.318871408700943,-0.27366742491722107,0.39278605580329895
1761334213761588000,0.603587890625,-0.48075059056282043,-0.2987128794193268,0.328645259141922
1761334213780289500,0.62228955078125,-0.638353705406189,-0.3426951467990875,0.360410213470459
1761334213798991000,0.6409912109375,-0.739757239818573,-0.1539379209280014,0.5503891706466675
1761334213817692400,0.6596923828125,-0.6267472505569458,-0.09407317638397217,0.7660244107246399
1761334213836394000,0.67839404296875,-0.574212908744812,-0.5064069032669067,1.0219768285751343
1761334213855095600,0.697095458984375,-0.5821541547775269,-0.8943060636520386,1.4312561750411987
1761334213873796900,0.715796875,-0.9645555019378662,-0.8301652073860168,1.3078614473342896
1761334213892498400,0.73449853515625,-1.0024291276931763,-0.5894845128059387,0.5784889459609985
1761334213911200000,0.753199951171875,-0.4355465769767761,-0.43921178579330444,0.10506874322891235
1761334213929901600,0.771901611328125,0.37262752652168274,-0.26022839546203613,0.06414080411195755
1761334213948603000,0.790602783203125,0.739757239818573,-0.029932374134659767,0.2510654330253601
1761334213967304400,0.809304443359375,0.5564978122711182,-0.29504770040512085,0.16554436087608337
1761334213986006000,0.828006103515625,0.17715078592300415,-0.721431314945221,-0.2809978127479553
1761334214004707300,0.846707275390625,-0.143553227186203,-0.9834923148155212,-0.9749401807785034
1761334214023409000,0.865408935546875,-0.1288924664258957,-0.4324922561645508,-1.1209368705749512
1761334214042110500,0.8841103515625,-0.034208428114652634,0.739757239818573,-0.6194168925285339
1761334214060811800,0.902811767578125,-0.1130099818110466,1.2443315982818604,-0.07024945318698883
1761334214079513300,0.921513427734375,-0.3292561173439026,0.9327905178070068,0.2767217457294464
1761334214098215000,0.94021484375,-0.38240134716033936,0.3750709891319275,0.40927940607070923
1761334214116916500,0.95891650390625,-0.17226386070251465,0.23212862014770508,0.48013970255851746
1761334214135617800,0.97761767578125,0.03481929376721382,0.36712974309921265,0.40255987644195557
1761334214154319400,0.9963193359375,0.12461641430854797,0.47464191913604736,0.19242240488529205
1761334214173021000,1.01502099609375,0.04276053607463837,0.48013970255851746,-0.0665842592716217
1761334214191722200,1.03372216796875,-0.030543239787220955,0.7079922556877136,-0.14477495849132538
1761334214210423800,1.052423828125,-0.03481929376721382,1.0470222234725952,-0.031154103577136993
1761334214229125400,1.07112548828125,0.11606431007385254,1.056185245513916,0.09285144507884979
1761334214247826700,1.08982666015625,0.18814635276794434,0.34697118401527405,0.34697118401527405
1761334214266528300,1.1085283203125,0.033597562462091446,-0.4972439408302307,0.9975422024726868
1761334214285229800,1.127229736328125,-0.10751219838857651,-0.21685700118541718,1.6029092073440552
1761334214303931100,1.14593115234375,-0.11606431007385254,0.14294235408306122,1.3255765438079834
1761334214322632700,1.1646328125,0.10995566099882126,-0.10079269111156464,0.5534434914588928
1761334214341334300,1.183334228515625,0.16065743565559387,-0.5308414697647095,-0.2932150959968567
1761334214360035800,1.202035888671875,0.0818558782339096,-1.2046253681182861,-1.7012584209442139
1761334214378737200,1.220737060546875,0.1997527778148651,-1.2302817106246948,-2.7782130241394043
1761334214397438700,1.239438720703125,0.6206386089324951,0.056810423731803894,-2.1832306385040283
1761334214416140300,1.258140380859375,0.7006618976593018,0.665842592716217,-1.0622938871383667
1761334214434841600,1.276841552734375,0.3750709891319275,0.18814635276794434,-0.2632827162742615
1761334214453543200,1.295543212890625,-0.06597339361906052,-0.66645348072052,0.23884813487529755
1761334214472244500,1.314244384765625,-0.4263836145401001,-0.7556397318840027,0.4667007029056549
1761334214490946000,1.332946044921875,-0.5528326034545898,0.0513126403093338,0.711046576499939
1761334214509647600,1.351647705078125,-0.6035344004631042,0.7812960743904114,0.7874047160148621
1761334214528349200,1.37034912109375,-0.5491674542427063,0.8179479241371155,0.6194168925285339
1761334214547050500,1.389050537109375,-0.5534434914588928,0.18325942754745483,0.2993237376213074
1761334214565752000,1.407751953125,-0.48563748598098755,-0.18753549456596375,0.039706211537122726
1761334214584453600,1.42645361328125,-0.3035998046398163,-0.2156352698802948,-0.10567960888147354
1761334214603155000,1.445155029296875,-0.0977383628487587,-0.15821397304534912,-0.07757982611656189
1761334214621856500,1.4638564453125,0.05864302068948746,-0.07880155742168427,0.07086031138896942
1761334214640558000,1.48255810546875,0.1649334877729416,0.004886918235570192,0.1795942485332489
1761334214659259400,1.50125927734375,0.1698204129934311,0.020158538594841957,0.20708316564559937
1761334214677961000,1.5199609375,0.09651663154363632,-0.2712239623069763,0.29993459582328796
1761334214696662500,1.53866259765625,0.0922405794262886,-0.6774490475654602,0.6493492722511292
1761334214715363800,1.55736376953125,-0.09468404203653336,-0.9382883310317993,0.9621120095252991
1761334214734065400,1.5760654296875,-0.23884813487529755,-0.6444623470306396,0.7391464114189148
1761334214752767000,1.59476708984375,-0.049480047076940536,-0.5216785073280334,-0.19303326308727264
1761334214771468500,1.613468505859375,0.14599667489528656,-0.5870410799980164,-1.275485634803772
1761334214790169900,1.632169921875,0.37690356373786926,-0.9358448386192322,-2.408029079437256
1761334214808871400,1.650871337890625,0.3958403766155243,-0.6585122346878052,-2.160017967224121
1761334214827573000,1.669572998046875,0.04520399495959282,0.03481929376721382,-0.7611374855041504
1761334214846274300,1.6882744140625,-0.4098902642726898,0.3084867000579834,0.15760311484336853
1761334214864976000,1.706975830078125,-0.5369501113891602,0.4508182108402252,0.8124501705169678
1761334214883677200,1.72567724609375,-0.5699368119239807,0.18753549456596375,1.1465932130813599
1761334214902378800,1.744378662109375,-0.5375609993934631,-0.1698204129934311,0.9896009564399719
1761334214921080300,1.763080322265625,-0.44409868121147156,-0.30604326725006104,0.593149721622467
1761334214939782000,1.781781982421875,-0.3078758418560028,-0.401949018239975,0.23212862014770508
1761334214958483200,1.800483154296875,-0.10323614627122879,-0.328645259141922,0.007941242307424545
1761334214977184800,1.819184814453125,0.028099779039621353,-0.0977383628487587,-0.12278381735086441
1761334214995886300,1.83788623046875,0.09468404203653336,0.05070177838206291,-0.164322629570961
1761334215014587600,1.856587646484375,0.11056652665138245,0.03787361457943916,-0.17776164412498474
1761334215033289200,1.875289306640625,0.09834922850131989,0.09346231073141098,-0.15760311484336853
1761334215051990800,1.89399072265625,0.08124501258134842,0.32192572951316833,-0.10445787757635117
1761334215070692000,1.912692138671875,0.04886918142437935,0.4923570156097412,0.05497783049941063
1761334215089393700,1.9313935546875,0.025045456364750862,0.3549124300479889,0.3585776388645172
1761334215108095200,1.95009521484375,0.06414080411195755,-0.13194678723812103,0.6621774435043335
1761334215126796800,1.968796875,0.04214967042207718,-0.06963858753442764,1.0060943365097046
1761334215145498000,1.987498046875,-0.09529490768909454,0.8014546036720276,1.414151906967163
1761334215164199700,2.00619970703125,-0.03787361457943916,0.5522217750549316,0.9963204264640808
1761334215182901200,2.0249013671875,-0.040317077189683914,-0.42088583111763,-0.06597339361906052
1761334215201602600,2.0436025390625,0.10567960888147354,-1.4856231212615967,-1.6908737421035767
1761334215220304100,2.06230419921875,0.3084867000579834,-1.2974767684936523,-2.9498660564422607
1761334215239005400,2.08100537109375,0.2101374864578247,0.4459312856197357,-2.318842649459839
1761334215257707000,2.09970703125,0.007330377586185932,1.1875211000442505,-1.0079269409179688
1761334215276408600,2.11840869140625,-0.10934479534626007,0.7409789562225342,0.11545344442129135
1761334215295110000,2.13710986328125,-0.18387030065059662,0.10934479534626007,0.7776308655738831
1761334215313811500,2.1558115234375,-0.2932150959968567,0.09651663154363632,0.7935133576393127
1761334215332513000,2.174512939453125,-0.328645259141922,0.4514290690422058,0.2761108875274658
1761334215351214600,2.193214599609375,-0.2315177470445633,0.6096430420875549,-0.26450446248054504
1761334215369916000,2.211916015625,-0.13500112295150757,0.39339691400527954,-0.4868592321872711
1761334215388617500,2.230617431640625,0.001832594396546483,0.10079269111156464,-0.3744601011276245
1761334215407319000,2.249319091796875,0.10445787757635117,-0.22907429933547974,-0.22663083672523499
1761334215426020400,2.268020263671875,0.07330377399921417,-0.5210676789283752,-0.20891575515270233
1761334215444722000,2.286721923828125,-0.004276053514331579,-0.6059778332710266,-0.27488914132118225
1761334215463423200,2.30542333984375,-0.014049889519810677,-0.36163195967674255,-0.37323838472366333
1761334215482124800,2.324124755859375,0.004886918235570192,0.15210533142089844,-0.2626718580722809
1761334215500826400,2.342826416015625,0.05925388261675835,0.41844236850738525,0.19364413619041443
1761334215519528000,2.36152783203125,0.1740964651107788,0.08552107214927673,0.6181951761245728
1761334215538229200,2.380229248046875,0.27000224590301514,-0.3066541254520416,0.7935133576393127
1761334215556930800,2.398930908203125,0.12400554865598679,-0.2559523284435272,0.5760455131530762
1761334215575632400,2.41763232421875,-0.056199558079242706,-0.26939135789871216,-0.2156352698802948
1761334215594333700,2.436333740234375,-0.2926042377948761,-0.3335321843624115,-1.1808016300201416
1761334215613035300,2.45503515625,-0.2974911332130432,-0.6029235124588013,-2.230267286300659
1761334215631736800,2.47373681640625,0.06475166976451874,-0.6548470258712769,-2.782489061355591
1761334215650438100,2.492438232421875,0.4105011224746704,0.3451386094093323,-1.2272273302078247
1761334215669139700,2.5111396484375,0.42455101013183594,0.37262752652168274,0.5430588126182556
1761334215687841300,2.52984130859375,0.19669845700263977,-0.2864955961704254,1.4917317628860474
1761334215706542600,2.54854248046875,-0.17043127119541168,-0.5839866995811462,1.3799434900283813
1761334215725244200,2.567244140625,-0.3494146466255188,0.043371398001909256,0.6511818766593933
1761334215743945700,2.58594580078125,-0.23884813487529755,0.6181951761245728,0.19181154668331146
1761334215762647000,2.60464697265625,-0.0824667438864708,0.4526508152484894,0.1954767256975174
1761334215781348600,2.6233486328125,0.023823726922273636,-0.12644900381565094,0.27488914132118225
1761334215800050200,2.64205029296875,0.10323614627122879,-0.5057960152626038,0.16676609218120575
1761334215818751500,2.66075146484375,0.1545487940311432,-0.5229002237319946,-0.003665188793092966
1761334215837453000,2.679453125,0.21868959069252014,-0.27550002932548523,-0.11056652665138245
1761334215856154600,2.698154541015625,0.2528980076313019,-0.027488915249705315,-0.05864302068948746
1761334215874856000,2.71685595703125,0.27855435013771057,0.08307760953903198,0.13500112295150757
1761334215893557500,2.7355576171875,0.2919933497905731,0.1026252806186676,0.3964512348175049
1761334215912259000,2.754259033203125,0.2614501118659973,0.10018182545900345,0.6902772188186646
1761334215930960600,2.772960693359375,0.35796675086021423,0.24251331388950348,0.9810488224029541
1761334215949662000,2.791661865234375,0.40744680166244507,0.3176496922969818,1.1459823846817017
1761334215968363500,2.810363525390625,0.14110976457595825,0.3494146466255188,0.8497129082679749
1761334215987064800,2.82906494140625,0.08307760953903198,0.22724169492721558,0.22174391150474548
1761334216005766400,2.847766357421875,0.02626718580722809,-0.009162971749901772,-0.31642794609069824
1761334216024468000,2.866468017578125,-0.017104214057326317,-0.3750709891319275,-1.1759146451950073
1761334216043169300,2.885169189453125,0.18692462146282196,-0.5015199780464172,-2.0244059562683105
1761334216061870800,2.903870849609375,0.19120067358016968,0.2675587832927704,-0.9798271059989929
1761334216080572400,2.922572509765625,0.047036588191986084,0.822834849357605,0.6792816519737244
1761334216099274000,2.94127392578125,-0.14477495849132538,0.6059778332710266,1.5491530895233154
1761334216117975300,2.959975341796875,-0.45509424805641174,0.24434591829776764,1.431867003440857
1761334216136676900,2.9786767578125,-0.6169734001159668,0.4935787320137024,0.8943060636520386
1761334216155378200,2.997378173828125,-0.5418370366096497,0.8625410795211792,0.41844236850738525
1761334216174079700,3.016079833984375,-0.3695732057094574,0.7861829996109009,0.19608759880065918
1761334216192781300,3.03478125,-0.2162461280822754,0.36774060130119324,0.2107483446598053
1761334216211482600,3.053482666015625,-0.13255766034126282,-0.015271619893610477,0.23518294095993042
1761334216230184200,3.07218408203125,-0.07147117704153061,-0.22235478460788727,0.0922405794262886
1761334216248885800,3.0908857421875,0.04520399495959282,-0.328645259141922,-0.19730933010578156
1761334216267587000,3.109587158203125,0.21319180727005005,-0.5375609993934631,-0.45448338985443115
1761334216286288600,3.12828857421875,0.3958403766155243,-0.6438514590263367,-0.5528326034545898
1761334216304990200,3.146990234375,0.5668824911117554,-0.3787361681461334,-0.45998117327690125
1761334216323691800,3.16569189453125,0.6133082509040833,0.0360410213470459,-0.17043127119541168
1761334216342393000,3.18439306640625,0.5913171172142029,0.36163195967674255,0.1288924664258957
1761334216361094700,3.2030947265625,0.35735589265823364,0.4770853817462921,0.3848448097705841
1761334216379796000,3.2217958984375,-0.07941242307424545,0.9932661056518555,0.7764091491699219
1761334216398497500,3.24049755859375,-0.15577052533626556,1.4624103307724,0.41233372688293457
1761334216417199000,3.25919921875,-0.2608392536640167,0.9822705388069153,-0.8943060636520386
1761334216435900400,3.277900390625,-0.007330377586185932,-0.9975422024726868,-1.9694280624389648
1761334216454602000,3.29660205078125,0.7250964641571045,-2.8710644245147705,-2.237597703933716
1761334216473303600,3.315303466796875,0.5308414697647095,-1.8771874904632568,-0.6175842881202698
1761334216492005000,3.334005126953125,0.0054977829568088055,-0.1795942485332489,0.6908880472183228
1761334216510706400,3.35270654296875,-0.23212862014770508,0.4838049113750458,0.9260709881782532
1761334216529408000,3.371407958984375,-0.4416552484035492,0.5968148708343506,0.8252783417701721
1761334216548109300,3.390109375,-0.5748237371444702,0.7275399565696716,0.7672461867332458
1761334216566811000,3.408810791015625,-0.4526508152484894,0.6218603253364563,0.6713404059410095
1761334216585512400,3.427512451171875,-0.1692095398902893,0.4569268524646759,0.7770199775695801
1761334216604213800,3.4462138671875,0.003665188793092966,0.11178825795650482,0.9071341753005981
1761334216622915300,3.464915283203125,0.0409279391169548,-0.14049890637397766,0.7617483735084534
1761334216641617000,3.483616943359375,0.08063415437936783,-0.19914191961288452,0.28527384996414185
1761334216660318500,3.502318359375,0.15515965223312378,-0.0873536616563797,-0.3390299379825592
1761334216679019800,3.521019775390625,0.2577849328517914,0.10384701192378998,-0.7849612236022949
1761334216697721300,3.539721435546875,0.3585776388645172,0.2767217457294464,-0.8472694754600525
1761334216716422700,3.558422607421875,0.48991355299949646,0.44470956921577454,-0.5852084755897522
1761334216735124200,3.577124267578125,0.5626064538955688,0.43982264399528503,-0.20891575515270233
1761334216753825500,3.595825439453125,0.62857985496521,0.027488915249705315,0.15638138353824615
1761334216772527000,3.614527099609375,0.6982184648513794,-0.4355465769767761,0.5797106623649597
1761334216791228700,3.633228759765625,0.5143481492996216,0.1081230640411377,1.0586286783218384
1761334216809930200,3.65193017578125,0.19181154668331146,1.176525592803955,1.1099413633346558
1761334216828631600,3.670631591796875,0.25961753726005554,0.915075421333313,0.3078758418560028
1761334216847333000,3.6893330078125,0.3084867000579834,-0.7800742983818054,-0.8985821008682251
1761334216866034700,3.70803466796875,0.5668824911117554,-2.5839579105377197,-2.3823726177215576
1761334216884736000,3.726736083984375,0.8051197528839111,-1.5870267152786255,-1.7794491052627563
1761334216903437600,3.7454375,0.6304124593734741,0.0616973415017128,0.09529490768909454
1761334216922139100,3.76413916015625,0.18875721096992493,0.25350889563560486,1.249218463897705
1761334216940840400,3.78284033203125,-0.19730933010578156,-0.1899789422750473,1.3451242446899414
1761334216959542000,3.8015419921875,-0.5308414697647095,-0.3121519088745117,0.9065233469009399
1761334216978243600,3.82024365234375,-0.5729911923408508,0.10506874322891235,0.565049946308136
1761334216996945000,3.83894482421875,-0.4373791813850403,0.47464191913604736,0.4728093445301056
1761334217015646500,3.857646484375,-0.38789913058280945,0.39889469742774963,0.4764745235443115
1761334217034348000,3.87634814453125,-0.3811796307563782,0.15515965223312378,0.4105011224746704
1761334217053049600,3.895049560546875,-0.2889390289783478,-0.04825831577181816,0.1795942485332489
1761334217071751000,3.9137509765625,-0.06719512492418289,-0.164322629570961,-0.12217295914888382
1761334217090452500,3.932452392578125,0.1178968995809555,-0.21930044889450073,-0.3231474757194519
1761334217109153800,3.95115380859375,0.17531819641590118,-0.2510654330253601,-0.3182605504989624
1761334217127855400,3.96985546875,0.15210533142089844,-0.20158538222312927,-0.21380266547203064
1761334217146557000,3.988556884765625,0.06291907280683517,-0.006719512399286032,-0.08552107214927673
1761334217165258200,4.00725830078125,-0.015271619893610477,0.20891575515270233,-0.01588248461484909
1761334217183959800,4.025959716796875,0.031154103577136993,0.258395791053772,0.023212861269712448
1761334217202661400,4.044661376953125,0.020769402384757996,0.19608759880065918,0.28588470816612244
1761334217221362700,4.06336279296875,-0.08368847519159317,0.5858193039894104,0.7672461867332458
1761334217240064300,4.082064208984375,0.04276053607463837,1.100778341293335,1.130099892616272
1761334217258765800,4.100765869140625,0.25350889563560486,0.48502662777900696,0.7935133576393127
1761334217277467100,4.119467041015625,0.19669845700263977,-0.9779945015907288,-0.6774490475654602
1761334217296168700,4.138168701171875,0.7788525819778442,-1.849698543548584,-2.394589900970459
1761334217314870300,4.156870361328125,1.138651967048645,-1.2168426513671875,-1.5558725595474243
1761334217333571600,4.175571533203125,0.7507528066635132,-0.535728394985199,0.6273581385612488
1761334217352273200,4.194273193359375,0.21135921776294708,-0.4740310609340668,1.6725478172302246
1761334217370974500,4.212974365234375,-0.22724169492721558,-0.09590577334165573,1.2846486568450928
1761334217389676000,4.231676025390625,-0.5815432667732239,0.6108647584915161,0.42882707715034485
1761334217408377600,4.250377685546875,-0.7055488228797913,1.0751219987869263,-0.18325942754745483
1761334217427079200,4.2690791015625,-0.46547895669937134,1.0494656562805176,-0.04459312930703163
1761334217445780500,4.287780517578125,-0.235793799161911,0.4563159942626953,0.3634645342826843
1761334217464482000,4.30648193359375,-0.13927717506885529,-0.19303326308727264,0.4477638900279999
1761334217483183600,4.32518359375,-0.0818558782339096,-0.33231043815612793,0.07574722915887833
1761334217501885000,4.343885009765625,0.006719512399286032,-0.15149445831775665,-0.3750709891319275
1761334217520586500,4.36258642578125,0.08613193035125732,0,-0.5290089249610901
1761334217539287800,4.381287841796875,0.12278381735086441,0.03787361457943916,-0.4013381600379944
1761334217557989400,4.3999892578125,0.11728604137897491,0.09712749719619751,-0.13439024984836578
1761334217576691000,4.41869091796875,0.056810423731803894,0.22846342623233795,0.08429934084415436
1761334217595392500,4.437392578125,0.033597562462091446,0.5180133581161499,0.11911863088607788
1761334217614093800,4.45609375,0.06902772188186646,0.6401863098144531,0.012217295356094837
1761334217632795400,4.47479541015625,0.10201441496610641,0.8429933786392212,0.17715078592300415
1761334217651497000,4.4934970703125,0.06291907280683517,1.18446683883667,0.7177661061286926
1761334217670198300,4.5121982421875,0.049480047076940536,0.6676751971244812,0.40866854786872864
1761334217688900400,4.530900390625,-0.009162971749901772,-0.21380266547203064,-0.5778780579566956
1761334217707602000,4.549601806640625,0.47586366534233093,-1.2076796293258667,-2.0073015689849854
1761334217726303500,4.568303466796875,1.2235621213912964,-1.1783581972122192,-1.9773693084716797
1761334217745004800,4.5870048828125,0.7373138070106506,-0.16310089826583862,0.0360410213470459
1761334217763706400,4.605706298828125,0.12034036219120026,0.2510654330253601,1.2718204259872437
1761334217782407700,4.62440771484375,-0.1844811588525772,0.17348559200763702,1.3897173404693604
1761334217801109200,4.643109130859375,-0.5393936038017273,0.26878049969673157,1.1209368705749512
1761334217819810800,4.661810791015625,-0.6304124593734741,0.5772672295570374,0.9279035925865173
1761334217838512400,4.680512451171875,-0.5442805290222168,0.5577195286750793,0.8729257583618164
1761334217857213700,4.699213623046875,-0.47097674012184143,0.2309068888425827,0.758694052696228
1761334217875915300,4.717915283203125,-0.4514290690422058,-0.24923282861709595,0.33047783374786377
1761334217894616800,4.736616943359375,-0.3451386094093323,-0.5015199780464172,-0.28466299176216125
1761334217913318100,4.755318115234375,-0.1081230640411377,-0.5803215503692627,-0.767857015132904
1761334217932019700,4.774019775390625,0.09712749719619751,-0.6524035930633545,-0.8851430416107178
1761334217950721000,4.792720947265625,0.15638138353824615,-0.6145299673080444,-0.618806004524231
1761334217969422600,4.811422607421875,0.056199558079242706,-0.40378162264823914,-0.2730565667152405
1761334217988124200,4.830124267578125,-0.05925388261675835,-0.049480047076940536,-0.08552107214927673
1761334218006825700,4.84882568359375,-0.13500112295150757,0.24801109731197357,-0.01954767294228077
1761334218025527000,4.867527099609375,-0.1588248461484909,0.41233372688293457,0.04459312930703163
1761334218044228600,4.886228515625,-0.1496618688106537,0.41844236850738525,0.25045454502105713
1761334218062930200,4.90493017578125,-0.30482152104377747,1.1252129077911377,0.8741474747657776
1761334218081631500,4.923631591796875,-0.3139844834804535,1.2192860841751099,0.8387173414230347
1761334218100333000,4.9423330078125,-0.19730933010578156,-0.09101885557174683,-0.22968515753746033
1761334218119034400,4.961034423828125,-0.01893680728971958,-2.2290456295013428,-2.4202463626861572
1761334218137736000,4.97973583984375,0.6340776681900024,-2.607170820236206,-3.5356853008270264
1761334218156437500,4.9984375,0.9236275553703308,-0.38728827238082886,-1.3878847360610962
1761334218175138800,5.017138916015625,0.4734202027320862,0.010384701192378998,1.0702351331710815
1761334218193840400,5.03584033203125,-0.020769402384757996,-0.675616443157196,2.0476186275482178
1761334218212542000,5.0545419921875,-0.5351175665855408,-0.5180133581161499,1.6426154375076294
1761334218231243500,5.073243408203125,-1.064737319946289,0.7379246354103088,0.8045089244842529
1761334218249944800,5.09194482421875,-1.4123194217681885,1.6462805271148682,0.2987128794193268
1761334218268646400,5.110646484375,-1.4208714962005615,1.4819579124450684,0.22296564280986786
1761334218287347700,5.12934765625,-1.137430191040039,0.47036588191986084,0.27366742491722107
1761334218306049300,5.14804931640625,-0.7147117853164673,-0.5510000586509705,0.2779434621334076
1761334218324750800,5.166750732421875,-0.38789913058280945,-0.9853248596191406,0.1997527778148651
1761334218343452200,5.1854521484375,-0.24740023910999298,-0.9480621218681335,0.01588248461484909
1761334218362153700,5.20415380859375,-0.30970844626426697,-0.6243038177490234,-0.18142683804035187
1761334218380855300,5.222855224609375,-0.4318813979625702,-0.2156352698802948,-0.3329212963581085
1761334218399556900,5.241556884765625,-0.47952884435653687,0.08063415437936783,-0.3811796307563782
1761334218418258200,5.260258056640625,-0.5308414697647095,0.004276053514331579,-0.3072649836540222
1761334218436959700,5.278959716796875,-0.4978547990322113,-0.5180133581161499,-0.10995566099882126
1761334218455661000,5.2976611328125,-0.26939135789871216,-0.7971785664558411,0.22663083672523499
1761334218474362600,5.316362548828125,-0.16798780858516693,-0.15027274191379547,0.6597339510917664
1761334218493064200,5.335064208984375,-0.16126830875873566,0.4776962697505951,0.6359102129936218
1761334218511765500,5.353765625,-0.01954767294228077,-0.056810423731803894,-0.08918625861406326
1761334218530467000,5.372467041015625,0.08857539296150208,-1.3738348484039307,-1.4104868173599243
1761334218549168600,5.391168701171875,0.17898337543010712,-2.148411512374878,-2.766606569290161
1761334218567870000,5.409869873046875,0.14294235408306122,-0.7483093738555908,-2.0635011196136475
1761334218586571500,5.428571533203125,-0.04520399495959282,0.31154105067253113,-0.35063639283180237
1761334218605273000,5.447273193359375,-0.18387030065059662,-0.01649334840476513,0.7929024696350098
1761334218623974400,5.465974365234375,-0.40866854786872864,-0.7189878225326538,1.0329723358154297
1761334218642676000,5.484676025390625,-0.8002328872680664,-0.33231043815612793,0.6346884965896606
1761334218661377500,5.50337744140625,-0.988990068435669,0.646905779838562,0.10323614627122879
1761334218680078800,5.522078857421875,-0.8350521326065063,0.9352339506149292,-0.03909534588456154
1761334218698780400,5.540780517578125,-0.5955931544303894,0.31459537148475647,0.04886918142437935
1761334218717482000,5.55948193359375,-0.4312705397605896,-0.5656607747077942,0.01893680728971958
1761334218736183300,5.578183349609375,-0.2522871494293213,-0.7898481488227844,-0.2107483446598053
1761334218754884900,5.596884765625,-0.0720820426940918,-0.5888736248016357,-0.44409868121147156
1761334218773586400,5.61558642578125,0.05925388261675835,-0.46059203147888184,-0.5510000586509705
1761334218792287700,5.634287841796875,0.15515965223312378,-0.34208428859710693,-0.462424635887146
1761334218810989300,5.6529892578125,0.16065743565559387,-0.16065743565559387,-0.20647229254245758
1761334218829690600,5.671690673828125,0.13011419773101807,-0.11606431007385254,0.07757982611656189
1761334218848392200,5.69039208984375,0.1441640853881836,-0.18081597983837128,0.36224281787872314
1761334218867093800,5.70909375,0.15088360011577606,-0.29993459582328796,0.5748237371444702
1761334218885795000,5.727795166015625,-0.0360410213470459,0.3494146466255188,0.963333785533905
1761334218904496600,5.74649658203125,0.03176496922969818,1.1032217741012573,1.145371437072754
1761334218923198200,5.7651982421875,0.19425499439239502,0.28588470816612244,0.5754346251487732
1761334218941899800,5.783899658203125,-0.12583814561367035,-1.0067051649093628,-0.4880809485912323
1761334218960601000,5.80260107421875,0.01893680728971958,-1.6139047145843506,-2.03112530708313
1761334218979302700,5.821302734375,0.370184063911438,-0.7409789562225342,-2.0775511264801025
1761334218998004000,5.84000390625,0.1637117564678192,0.4422661066055298,-0.2816086709499359
1761334219016705500,5.85870556640625,0.0054977829568088055,0.5619956254959106,1.081230640411377
1761334219035407000,5.877406982421875,-0.13561198115348816,0.13500112295150757,1.6132938861846924
1761334219054108400,5.8961083984375,-0.4838049113750458,-0.008552107028663158,1.5033382177352905
1761334219072810000,5.91481005859375,-0.7134900689125061,0.4514290690422058,1.08978271484375
1761334219091511600,5.933511474609375,-0.6841685771942139,0.7476984858512878,0.8032872080802917
1761334219110213000,5.952213134765625,-0.5858193039894104,0.5180133581161499,0.7086031436920166
1761334219128914400,5.97091455078125,-0.49113526940345764,-0.01649334840476513,0.5564978122711182
1761334219147616000,5.989615966796875,-0.3292561173439026,-0.5204567909240723,0.22174391150474548
1761334219166317300,6.0083173828125,-0.09712749719619751,-0.729983389377594,-0.17348559200763702
1761334219185019000,6.027018798828125,0.05192350596189499,-0.7263182401657104,-0.3750709891319275
1761334219203720400,6.045720458984375,0.07574722915887833,-0.5937605500221252,-0.3500255048274994
1761334219222421800,6.064421875,0.04214967042207718,-0.3274235129356384,-0.23884813487529755
1761334219241123300,6.083123291015625,-0.03543015569448471,-0.043982263654470444,-0.15638138353824615
1761334219259825000,6.101824951171875,-0.1331685185432434,-0.043371398001909256,-0.09101885557174683
1761334219278526200,6.120526123046875,-0.0977383628487587,-0.2205221801996231,0.15760311484336853
1761334219297227800,6.139227783203125,-0.018325943499803543,-0.1692095398902893,0.4770853817462921
1761334219315929300,6.157929443359375,-0.007330377586185932,-0.030543239787220955,0.3133736252784729
1761334219334630700,6.176630615234375,0.04276053607463837,-0.27427828311920166,-0.3854556679725647
1761334219353332200,6.195332275390625,0.10140355676412582,-0.5516108870506287,-1.32985258102417
1761334219372033500,6.214033447265625,0.3530798554420471,-1.3836086988449097,-2.7879867553710938
1761334219390735000,6.232735107421875,0.5369501113891602,-0.7086031436920166,-2.3005168437957764
1761334219409436700,6.251436767578125,0.24556763470172882,0.15577052533626556,-0.5998691916465759
1761334219428138000,6.270137939453125,-0.07391463965177536,0.2926042377948761,0.6139190793037415
1761334219446839600,6.288839599609375,-0.2467893660068512,0.2107483446598053,1.3158026933670044
1761334219465541000,6.307541015625,-0.5143481492996216,0.2926042377948761,1.5406010150909424
1761334219484242700,6.32624267578125,-0.665842592716217,0.7605266571044922,1.3616175651550293
1761334219502944000,6.344944091796875,-0.6346884965896606,1.0390809774398804,0.9853248596191406
1761334219521645600,6.3636455078125,-0.40805765986442566,0.6456840634346008,0.5809323787689209
1761334219540347000,6.382346923828125,-0.10995566099882126,-0.07880155742168427,0.2571740746498108
1761334219559048400,6.40104833984375,0.1539379209280014,-0.48991355299949646,0.06719512492418289
1761334219577750000,6.41975,0.3481929302215576,-0.6169734001159668,-0.026878049597144127
1761334219596451300,6.438451416015625,0.4147771894931793,-0.574212908744812,-0.06597339361906052
1761334219615153000,6.45715283203125,0.3659079968929291,-0.36835145950317383,-0.15760311484336853
1761334219633854500,6.4758544921875,0.2003636509180069,-0.03176496922969818,-0.22663083672523499
1761334219652555800,6.4945556640625,0.024434590712189674,0.2156352698802948,-0.18081597983837128
1761334219671257300,6.51325732421875,-0.10629047453403473,0.35796675086021423,-0.002443459117785096
1761334219689959000,6.531958984375,-0.1594357043504715,0.25045454502105713,0.25534147024154663
1761334219708660200,6.55066015625,-0.14172062277793884,0.13072505593299866,0.5088503360748291
1761334219727361800,6.56936181640625,-0.03848448023200035,0.030543239787220955,0.5577195286750793
1761334219746063400,6.5880634765625,0.14477495849132538,-0.42271843552589417,0.17715078592300415
1761334219764764700,6.6067646484375,0.1747073233127594,-1.1410953998565674,-0.9773836731910706
1761334219783466200,6.62546630859375,0.3249800503253937,-1.7220277786254883,-2.751945734024048
1761334219802167800,6.644167724609375,0.40317076444625854,0.03176496922969818,-2.1166465282440186
1761334219820869000,6.662869140625,0.22785256803035736,1.2596031427383423,-0.22235478460788727
1761334219839570700,6.68157080078125,-0.001221729558892548,0.6591231226921082,0.8723149299621582
1761334219858272300,6.700272216796875,-0.2571740746498108,-0.25473061203956604,1.1252129077911377
1761334219876973600,6.7189736328125,-0.6548470258712769,-0.10629047453403473,0.9773836731910706
1761334219895675100,6.737675048828125,-0.9309579133987427,0.8729257583618164,0.593149721622467
1761334219914376400,6.75637646484375,-0.9138537049293518,1.3054180145263672,0.3121519088745117
1761334219933078000,6.775078125,-0.7440332770347595,0.813060998916626,0.26022839546203613
1761334219951779600,6.793779541015625,-0.56382817029953,-0.20280711352825165,0.1698204129934311
1761334219970481200,6.812481201171875,-0.40378162264823914,-0.8381064534187317,-0.05070177838206291
1761334219989182500,6.831182373046875,-0.19669845700263977,-0.7861829996109009,-0.27916520833969116
1761334220007884000,6.849884033203125,-0.08063415437936783,-0.462424635887146,-0.3811796307563782
1761334220026585300,6.86858544921875,-0.20341797173023224,-0.13683371245861053,-0.32009315490722656
1761334220045287000,6.887286865234375,-0.35246896743774414,0.06841685622930527,-0.10323614627122879
1761334220063988500,6.905988525390625,-0.42394015192985535,0.11239911615848541,0.08491020649671555
1761334220082689800,6.924689697265625,-0.4098902642726898,0.05192350596189499,0.09346231073141098
1761334220101391400,6.943391357421875,-0.3176496922969818,-0.07452550530433655,-0.10201441496610641
1761334220120092700,6.9620927734375,-0.34086254239082336,0.3659079968929291,0.3445277214050293
1761334220138794200,6.980794189453125,-0.05803215503692627,0.7605266571044922,1.1771364212036133
1761334220157495800,6.999495849609375,0.39828383922576904,-1.2034035921096802,0.5137372612953186
1761334220176197400,7.018197265625,0.11728604137897491,-3.0298893451690674,-1.53510320186615
1761334220194898700,7.036898681640625,-0.17287473380565643,-2.9498660564422607,-4.108676433563232
1761334220213600300,7.055600341796875,-0.10201441496610641,0.1948658674955368,-4.210080146789551
1761334220232301600,7.074301513671875,-0.1588248461484909,1.7880011796951294,-2.4459025859832764
1761334220251003100,7.093003173828125,-0.2828303873538971,0.676227331161499,-0.3707949221134186
1761334220269704700,7.11170458984375,-0.235793799161911,-0.5955931544303894,1.4813470840454102
1761334220288406000,7.130406005859375,-0.17104214429855347,-0.7831286191940308,2.3371686935424805
1761334220307107600,7.149107666015625,-0.1954767256975174,0.21807873249053955,1.8044945001602173
1761334220325809200,7.16780908203125,-0.004886918235570192,0.8790343999862671,0.8448259830474854
1761334220344510700,7.1865107421875,0.2419024556875229,0.4043924808502197,0.25961753726005554
1761334220363212000,7.2052119140625,0.48075059056282043,-0.12156209349632263,0.2516762912273407
1761334220381913600,7.22391357421875,0.5876519083976746,-0.3707949221134186,0.45448338985443115
1761334220400615000,7.242614990234375,0.5381718873977661,-0.42088583111763,0.4728093445301056
1761334220419316500,7.26131640625,0.41233372688293457,-0.19669845700263977,0.24251331388950348
1761334220438017800,7.280017822265625,0.2919933497905731,0.12583814561367035,0.010384701192378998
1761334220456719400,7.29871923828125,0.18631376326084137,0.44470956921577454,0.04825831577181816
1761334220475421000,7.3174208984375,0.19730933010578156,0.347582072019577,0.3707949221134186
1761334220494122500,7.33612255859375,0.21197007596492767,-0.021991131827235222,0.7550288438796997
1761334220512823800,7.35482373046875,0.12400554865598679,0.0818558782339096,0.6957749724388123
1761334220531525400,7.373525390625,0.2052505612373352,0.6126973628997803,0.48075059056282043
1761334220550227000,7.39222705078125,0.6084213256835938,0.5149590373039246,0.3078758418560028
1761334220568928300,7.41092822265625,0.8222240209579468,-0.5760455131530762,-0.04886918142437935
1761334220587629800,7.4296298828125,0.8649845123291016,-2.395200729370117,-1.5424336194992065
1761334220606331100,7.4483310546875,0.8857539296150208,-1.2724313735961914,-2.42268967628479
1761334220625032700,7.46703271484375,0.6438514590263367,1.0879502296447754,-1.2046253681182861
1761334220643734300,7.485734375,0.32009315490722656,0.9810488224029541,0.38789913058280945
1761334220662435800,7.504435791015625,0.11117739230394363,-0.10079269111156464,1.4929535388946533
1761334220681137200,7.52313720703125,-0.1795942485332489,-0.2461785078048706,1.6841541528701782
1761334220699838700,7.541838623046875,-0.4172206521034241,0.6884446144104004,0.9566142559051514
1761334220718540000,7.5605400390625,-0.3707949221134186,1.3017528057098389,0.21319180727005005
1761334220737241600,7.57924169921875,-0.09468404203653336,0.8393282294273376,-0.1233946830034256
1761334220755943200,7.597943115234375,0.18875721096992493,0.0360410213470459,-0.2162461280822754
1761334220774644500,7.61664453125,0.31031930446624756,-0.3121519088745117,-0.29504770040512085
1761334220793346000,7.635345947265625,0.3384190797805786,-0.30482152104377747,-0.554665207862854
1761334220812047400,7.65404736328125,0.2761108875274658,-0.049480047076940536,-0.7098248600959778
1761334220830749000,7.6727490234375,0.17348559200763702,0.20952661335468292,-0.6023126840591431
1761334220849450500,7.691450439453125,0.07330377399921417,0.2205221801996231,-0.2571740746498108
1761334220868151800,7.71015185546875,-0.01649334840476513,0.13011419773101807,0.14172062277793884
1761334220886853400,7.728853271484375,-0.13988803327083588,0.09651663154363632,0.3995055556297302
1761334220905555000,7.747554931640625,-0.1533270627260208,0.21502439677715302,0.3958403766155243
1761334220924256300,7.76625634765625,-0.0616973415017128,0.28405213356018066,0.14599667489528656
1761334220942957800,7.784957763671875,0.06230820715427399,0.35674503445625305,0.08124501258134842
1761334220961659100,7.8036591796875,0.22235478460788727,0.3610210716724396,0.033597562462091446
1761334220980360700,7.822360595703125,0.544891357421875,-0.21685700118541718,-0.11667517572641373
1761334220999062300,7.841062255859375,1.063515543937683,-1.1331541538238525,-0.20219624042510986
1761334221017763800,7.859763916015625,1.3744457960128784,-1.5070034265518188,-1.084285020828247
1761334221036465200,7.878465087890625,1.2315033674240112,0.2864955961704254,-0.9095776677131653
1761334221055166500,7.89716650390625,0.9999856352806091,1.2486076354980469,-0.027488915249705315
1761334221073868000,7.915867919921875,0.8429933786392212,0.7617483735084534,0.8032872080802917
1761334221092569600,7.934569580078125,0.8246674537658691,0.04520399495959282,1.0604612827301025
1761334221111271200,7.953271240234375,0.5082395076751709,0.17653992772102356,0.9083559513092041
1761334221129972500,7.971972412109375,0.03848448023200035,0.7819069027900696,0.5558869242668152
1761334221148674000,7.990674072265625,-0.24740023910999298,1.0977239608764648,0.18692462146282196
1761334221167375600,8.009375732421875,-0.2889390289783478,0.7696896195411682,-0.09346231073141098
1761334221186077000,8.028076904296874,-0.17104214429855347,0.02932151034474373,-0.33658650517463684
1761334221204778500,8.046778564453126,-0.1026252806186676,-0.5699368119239807,-0.6035344004631042
1761334221223480000,8.06547998046875,-0.006719512399286032,-0.7898481488227844,-0.8729257583618164
1761334221242181400,8.084181396484375,0.0824667438864708,-0.6438514590263367,-0.934623122215271
1761334221260883000,8.102883056640625,0.10629047453403473,-0.3652971386909485,-0.7513636946678162
1761334221279584300,8.121584228515625,0.05436696484684944,-0.14599667489528656,-0.5070177912712097
1761334221298285800,8.140285888671874,-0.06597339361906052,-0.01649334840476513,-0.41905322670936584
1761334221316987400,8.1589873046875,-0.09896009415388107,0.05070177838206291,-0.4917461574077606
1761334221335689000,8.17768896484375,0.004276053514331579,0.11117739230394363,-0.49541133642196655
1761334221354390300,8.196390380859375,-0.24862197041511536,0.750141978263855,0.06597339361906052
1761334221373091800,8.215091796875,-0.31581708788871765,0.9523382186889648,0.5204567909240723
1761334221391793200,8.233793212890625,-0.039706211537122726,0.56382817029953,0.42943793535232544
1761334221410494700,8.25249462890625,0.3023780584335327,-0.27000224590301514,-0.07086031138896942
1761334221429196000,8.271196044921876,0.7831286191940308,-0.8973603844642639,-1.0311397314071655
1761334221447897600,8.289897705078126,0.546113133430481,-0.28038692474365234,-0.9950987100601196
1761334221466599200,8.30859912109375,0.049480047076940536,0.6805033683776855,-0.024434590712189674
1761334221485300700,8.32730078125,-0.21197007596492767,1.0793980360031128,0.5161807537078857
1761334221504002000,8.346001953125,-0.4673115611076355,0.656679630279541,0.45937031507492065
1761334221522703600,8.36470361328125,-0.7293725609779358,0.2968802750110626,0.22296564280986786
1761334221541405000,8.383405029296876,-0.850934624671936,0.6420188546180725,-0.0054977829568088055
1761334221560106500,8.4021064453125,-0.7739656567573547,0.9175189137458801,-0.07635809481143951
1761334221578808000,8.42080810546875,-0.749531090259552,0.6352993845939636,-0.11484257876873016
1761334221597509400,8.43950927734375,-0.6866120100021362,0.1026252806186676,-0.164322629570961
1761334221616211000,8.4582109375,-0.37323838472366333,-0.3396408259868622,-0.2626718580722809
1761334221634912300,8.476912353515624,-0.047036588191986084,-0.5491674542427063,-0.46425724029541016
1761334221653613800,8.49561376953125,0.11117739230394363,-0.44959646463394165,-0.5320632457733154
1761334221672315400,8.5143154296875,0.0977383628487587,-0.35613417625427246,-0.44837474822998047
1761334221691016700,8.5330166015625,-0.011606430634856224,-0.20647229254245758,-0.3072649836540222
1761334221709718300,8.55171826171875,-0.16310089826583862,0.020158538594841957,-0.28954991698265076
1761334221728419800,8.570419921875,-0.16249002516269684,0.11362084746360779,-0.2730565667152405
1761334221747121200,8.58912109375,-0.14599667489528656,-0.0054977829568088055,-0.14660754799842834
1761334221765822700,8.60782275390625,-0.15515965223312378,-0.19914191961288452,-0.036651886999607086
1761334221784524000,8.62652392578125,-0.043371398001909256,-0.05742128938436508,0.43921178579330444
1761334221803225600,8.6452255859375,0.18203771114349365,-0.5668824911117554,0.5418370366096497
1761334221821927200,8.66392724609375,0.1893680840730667,-2.7397284507751465,-0.8203914165496826
1761334221840628700,8.682628662109375,0.3066541254520416,-2.6920809745788574,-1.879020094871521
1761334221859330000,8.701330078125,0.750141978263855,-0.03176496922969818,-1.414151906967163
1761334221878031600,8.720031494140626,0.8759800791740417,1.3072506189346313,-0.2974911332130432
1761334221896733000,8.73873291015625,0.4062250852584839,0.7874047160148621,0.6530144214630127
1761334221915434500,8.7574345703125,-0.1288924664258957,-0.36774060130119324,1.2131774425506592
1761334221934135800,8.7761357421875,-0.07330377399921417,-0.5656607747077942,1.148425817489624
1761334221952837400,8.79483740234375,0.1178968995809555,0.18325942754745483,0.833219587802887
1761334221971539000,8.8135390625,0.05803215503692627,0.7696896195411682,0.5974257588386536
1761334221990240500,8.832240478515626,-0.13194678723812103,0.8283326625823975,0.44837474822998047
1761334222008941800,8.85094189453125,-0.2009745091199875,0.33597561717033386,0.34574946761131287
1761334222027643400,8.869643310546875,0.001832594396546483,0.05803215503692627,0.15760311484336853
1761334222046344700,8.8883447265625,0.318871408700943,0.07574722915887833,-0.06230820715427399
1761334222065046300,8.90704638671875,0.46914416551589966,0.12767073512077332,-0.12583814561367035
1761334222083747600,8.92574755859375,0.38850998878479004,0.12156209349632263,-0.0054977829568088055
1761334222102449200,8.94444921875,0.23945899307727814,-0.10140355676412582,0.20341797173023224
1761334222121150700,8.963150634765626,0.08307760953903198,-0.27977606654167175,0.41355544328689575
1761334222139852300,8.981852294921875,0.036651886999607086,-0.07941242307424545,0.49418962001800537
1761334222158553600,9.0005537109375,0.12644900381565094,0.38240134716033936,0.10873392969369888
1761334222177255200,9.019255126953125,0.06291907280683517,1.352454662322998,-0.19303326308727264
1761334222195956500,9.03795654296875,-0.002443459117785096,0.7195987105369568,0.22174391150474548
1761334222214658000,9.056657958984376,0.18203771114349365,-0.1844811588525772,0.6969966888427734
1761334222233359400,9.075359375,0.2412915825843811,-1.3127484321594238,-0.056199558079242706
1761334222252061000,9.09406103515625,0.39217519760131836,-1.6621630191802979,-1.9834779500961304
1761334222270762500,9.112762451171875,0.42455101013183594,-0.5076286196708679,-2.6090035438537598
1761334222289464000,9.131464111328125,0.09957095980644226,0.7751874327659607,-1.7580687999725342
1761334222308165400,9.150165283203124,-0.44409868121147156,0.27855435013771057,-0.8387173414230347
1761334222326867000,9.168866943359374,-0.41355544328689575,-1.120326042175293,0.040317077189683914
1761334222345568300,9.187568359375,0.08857539296150208,-1.4813470840454102,0.5369501113891602
1761334222364269800,9.206269775390625,0.31093016266822815,-0.6524035930633545,0.25411975383758545
1761334222382971100,9.22497119140625,0.05558869615197182,0.287106454372406,-0.2003636509180069
1761334222401672700,9.243672607421875,-0.1948658674955368,0.38728827238082886,-0.3848448097705841
1761334222420374300,9.262374267578124,-0.19364413619041443,0.30604326725006104,-0.33047783374786377
1761334222439075800,9.281075927734374,-0.1026252806186676,0.34147340059280396,-0.1026252806186676
1761334222457777200,9.299777099609376,-0.036651886999607086,0.17837251722812653,0.28588470816612244
1761334222476478700,9.318478759765625,-0.06108647957444191,-0.17531819641590118,0.5803215503692627
1761334222495180000,9.337179931640625,-0.1539379209280014,-0.3170388340950012,0.5534434914588928
1761334222513881600,9.355881591796875,-0.2932150959968567,0.13439024984836578,0.20341797173023224
1761334222532583000,9.3745830078125,-0.40378162264823914,0.7177661061286926,-0.2162461280822754
1761334222551284500,9.393284423828124,-0.4361574649810791,0.8723149299621582,-0.5375609993934631
1761334222569986000,9.411986083984376,-0.36712974309921265,0.8155044913291931,-0.5974257588386536
1761334222588687400,9.430687255859375,-0.3170388340950012,0.8875865340232849,-0.2052505612373352
1761334222607389000,9.449388916015625,-0.4465421438217163,0.6609556674957275,0.2406807243824005
1761334222626090500,9.468090576171875,-0.2254091054201126,-0.6334667801856995,0.07574722915887833
1761334222644791800,9.486791748046874,-0.1441640853881836,-1.9394956827163696,-0.831997811794281
1761334222663493400,9.505493408203124,-0.49602219462394714,-2.4190244674682617,-2.067777395248413
1761334222682194700,9.524194580078126,-0.7385355234146118,-1.2486076354980469,-2.134361505508423
1761334222700896300,9.542896240234375,-0.5326740741729736,-0.16615521907806396,-0.9957095980644226
1761334222719597600,9.56159765625,0.027488915249705315,-0.287106454372406,0.18875721096992493
1761334222738299100,9.580299072265625,0.12034036219120026,-0.7122683525085449,0.6737838387489319
1761334222757000700,9.599000732421874,0.03909534588456154,-0.6163625717163086,0.545502245426178
1761334222775702300,9.617702392578124,0.16126830875873566,0.24251331388950348,0.32131487131118774
1761334222794403600,9.636403564453126,0.2919933497905731,1.0586286783218384,0.24312418699264526
1761334222813105200,9.655105224609375,0.22479823231697083,1.1129956245422363,0.4007273018360138
1761334222831806500,9.673806396484375,-0.029932374134659767,0.7116574645042419,0.6053670048713684
1761334222850508000,9.692508056640625,-0.07086031138896942,0.6407971382141113,0.7244856357574463
1761334222869209300,9.711209228515624,0.10690133273601532,0.5314523577690125,0.8148936033248901
1761334222887911000,9.729910888671874,0.18081597983837128,0.22418737411499023,0.7055488228797913
1761334222906612500,9.748612548828126,0.1337793916463852,0.36163195967674255,0.4825831651687622
1761334222925313800,9.767313720703125,0.15821397304534912,0.46547895669937134,0.26389357447624207
1761334222944015400,9.786015380859375,0.25534147024154663,0.5888736248016357,0.11545344442129135
1761334222962716700,9.804716552734375,0.2626718580722809,0.6792816519737244,0.08857539296150208
1761334222981418200,9.823418212890624,0.42455101013183594,0.8289434909820557,0.3842339515686035
1761334223000119800,9.842119873046874,0.42943793535232544,1.1618647575378418,1.25715970993042
1761334223018821000,9.860821044921876,0.37140578031539917,0.11423171311616898,1.7482949495315552
1761334223037522700,9.879522705078125,0.34636032581329346,-0.9755510687828064,1.099556565284729
1761334223056224300,9.898224365234375,0.3072649836540222,-1.0018181800842285,-0.21441353857517242
1761334223074925600,9.916925537109375,0.08002328872680664,-0.7648026943206787,-1.5277727842330933
1761334223093627100,9.935627197265624,-0.0665842592716217,0.09590577334165573,-1.497840404510498
1761334223112328400,9.954328369140624,-0.22846342623233795,0.2614501118659973,-0.2816086709499359
1761334223131030000,9.973030029296876,-0.24984370172023773,-0.3646862804889679,0.7061597108840942
1761334223149731300,9.9917314453125,-0.1545487940311432,-0.31459537148475647,0.8069523572921753
1761334223168433000,10.010432861328125,0.06291907280683517,0.3549124300479889,0.2669478952884674
1761334223187134500,10.029134521484375,0.10567960888147354,0.7855721116065979,-0.14599667489528656
1761334223205835800,10.047835693359374,0.033597562462091446,0.6841685771942139,-0.0409279391169548
1761334223224537300,10.066537353515624,0.05192350596189499,0.40255987644195557,0.3084867000579834
1761334223243239000,10.085239013671876,0.24312418699264526,-0.09529490768909454,0.6560688018798828
1761334223261940200,10.103940185546875,0.3225366175174713,-0.10995566099882126,0.6805033683776855
1761334223280641800,10.122641845703125,0.2467893660068512,0.010995565913617611,0.4428769648075104
1761334223299343000,10.141343017578125,0.09162971377372742,0.07452550530433655,0.1337793916463852
