time,seconds_elapsed,z,y,x
1761334266905350000,0.065349853515625,-0.19242240488529205,-1.007315993309021,0.6200277805328369
1761334266924051200,0.08405126953125,-0.41416633129119873,-1.1789690256118774,0.48441576957702637
1761334266942752500,0.10275244140625,-0.5980366468429565,-1.4294235706329346,0.277332603931427
1761334266961453800,0.121453857421875,-0.6493492722511292,-1.3994911909103394,-0.12095122784376144
1761334266980155400,0.1401552734375,-0.5919279456138611,-1.0109812021255493,-0.5943714380264282
1761334266998856700,0.158856689453125,-0.3426951467990875,0.03787361457943916,-0.7770199775695801
1761334267017558000,0.17755810546875,-0.10690133273601532,0.5174024701118469,-0.695164144039154
1761334267036259300,0.19625927734375,-0.000610864779446274,-0.029932374134659767,-0.5803215503692627
1761334267054960600,0.214960693359375,0.021991131827235222,-0.1484401375055313,-0.4367683231830597
1761334267073662000,0.233661865234375,0.15638138353824615,0.026878049597144127,-0.24251331388950348
1761334267092363500,0.252363525390625,0.555276095867157,0.6432406306266785,-0.05192350596189499
1761334267111064800,0.27106494140625,0.9376774430274963,1.3671153783798218,-0.004886918235570192
1761334267129766100,0.28976611328125,0.6719512343406677,1.616348147392273,-0.25411975383758545
1761334267148467500,0.308467529296875,-0.06536252796649933,0.7086031436920166,-0.5149590373039246
1761334267167168800,0.327168701171875,-0.35674503445625305,-0.7250964641571045,-0.3017672002315521
1761334267185870000,0.3458701171875,-0.5827649831771851,-0.9181297421455383,0.0054977829568088055
1761334267204571600,0.364571533203125,-0.3995055556297302,-0.565049946308136,-0.020769402384757996
1761334267223273000,0.38327294921875,-0.1081230640411377,0.0720820426940918,-0.08429934084415436
1761334267241974300,0.401974365234375,-0.020769402384757996,0.11484257876873016,0.08124501258134842
1761334267260675800,0.42067578125,-0.0769689604640007,-0.4667007029056549,0.36712974309921265
1761334267279377200,0.439377197265625,-0.2675587832927704,-1.0519092082977295,0.813671886920929
1761334267298078500,0.458078369140625,-0.5088503360748291,-1.3011419773101807,1.2174534797668457
1761334267316779800,0.47677978515625,-0.5485565662384033,-1.321911334991455,1.2974767684936523
1761334267335481000,0.495481201171875,-0.4379900395870209,-0.915075421333313,1.0702351331710815
1761334267354182400,0.514182373046875,-0.31642794609069824,-0.4728093445301056,0.676227331161499
1761334267372883700,0.5328837890625,-0.15821397304534912,-0.1288924664258957,0.2779434621334076
1761334267391585300,0.551585205078125,0.08552107214927673,-0.043982263654470444,0.034208428114652634
1761334267410286600,0.57028662109375,0.3084867000579834,-0.19608759880065918,-0.004276053514331579
1761334267428988000,0.58898779296875,0.4563159942626953,-0.2614501118659973,0.014660755172371864
1761334267447689200,0.607689208984375,0.43860089778900146,-0.13439024984836578,-0.06780599057674408
1761334267466390500,0.626390625,0.3280344009399414,-0.07391463965177536,-0.2254091054201126
1761334267485091800,0.645091796875,0.3029889166355133,-0.02932151034474373,-0.3182605504989624
1761334267503793400,0.66379345703125,0.4789179861545563,0.05436696484684944,-0.34086254239082336
1761334267522494700,0.68249462890625,0.6621774435043335,0.15271618962287903,-0.14477495849132538
1761334267541196000,0.701196044921875,0.5112938284873962,0.29993459582328796,0.2724456787109375
1761334267559897300,0.7198974609375,0.18875721096992493,0.48991355299949646,0.767857015132904
1761334267578598700,0.7385986328125,0.07086031138896942,0.7183769941329956,0.778241753578186
1761334267597300000,0.757300048828125,0.33597561717033386,0.638353705406189,0.04581485688686371
1761334267616001500,0.77600146484375,0.4202749729156494,-0.19608759880065918,-0.7330377101898193
1761334267634702800,0.794702880859375,0.721431314945221,-1.155145287513733,-1.0213658809661865
1761334267653404200,0.813404052734375,1.0134246349334717,-1.1557561159133911,-0.4831940531730652
1761334267672105500,0.83210546875,0.667064368724823,-0.6817250847816467,0.39767298102378845
1761334267690806800,0.850806884765625,0.33108872175216675,-0.5180133581161499,0.5632173418998718
1761334267709508000,0.869508056640625,0.1588248461484909,-0.4838049113750458,0.3225366175174713
1761334267728209700,0.888209716796875,-0.08613193035125732,-0.35613417625427246,0.19730933010578156
1761334267746910700,0.90691064453125,-0.35674503445625305,-0.08307760953903198,0.07147117704153061
1761334267765612300,0.9256123046875,-0.411722868680954,0.13683371245861053,0.18753549456596375
1761334267784313600,0.944313720703125,-0.4673115611076355,0.049480047076940536,0.40805765986442566
1761334267803015000,0.963014892578125,-0.6090322136878967,-0.3543015718460083,0.43004879355430603
1761334267821716200,0.98171630859375,-0.7257073521614075,-0.6084213256835938,0.09712749719619751
1761334267840417800,1.000417724609375,-0.7232639193534851,-0.6181951761245728,-0.38301220536231995
1761334267859119000,1.019119140625,-0.5467239618301392,-0.472198486328125,-0.7391464114189148
1761334267877820400,1.0378203125,-0.2974911332130432,-0.29016077518463135,-0.8161153197288513
1761334267896521700,1.056521728515625,-0.18387030065059662,-0.24006985127925873,-0.6646208763122559
1761334267915223000,1.07522314453125,-0.3090975880622864,-0.2052505612373352,-0.3549124300479889
1761334267933924400,1.09392431640625,-0.4013381600379944,0.050090912729501724,-0.10018182545900345
1761334267952626000,1.1126259765625,-0.3176496922969818,0.2724456787109375,0.04276053607463837
1761334267971327200,1.1313271484375,-0.24434591829776764,0.13072505593299866,0.20647229254245758
1761334267990028500,1.150028564453125,-0.1795942485332489,-0.2730565667152405,0.593149721622467
1761334268008729900,1.168729736328125,-0.3744601011276245,0.08429934084415436,1.1154390573501587
1761334268027431200,1.18743115234375,-0.5522217750549316,0.6530144214630127,0.7098248600959778
1761334268046132500,1.206132568359375,-0.3133736252784729,0.5033525824546814,-0.4221075773239136
1761334268064834000,1.224833984375,0.09468404203653336,-0.5693259835243225,-1.342680811882019
1761334268083535400,1.243535400390625,0.6530144214630127,-1.5442661046981812,-1.8887939453125
1761334268102236700,1.262236572265625,0.6487383842468262,-1.3213005065917969,-1.0574069023132324
1761334268120938000,1.28093798828125,0.4465421438217163,-0.8545998334884644,0.16310089826583862
1761334268139639300,1.299639404296875,-0.04764745384454727,-0.35674503445625305,0.6646208763122559
1761334268158340600,1.318340576171875,-0.3805687427520752,0.3689623177051544,0.7122683525085449
1761334268177042200,1.337042236328125,-0.48075059056282043,0.9358448386192322,0.6884446144104004
1761334268195743500,1.355743408203125,-0.4783071279525757,0.988990068435669,0.6878337264060974
1761334268214444800,1.37444482421875,-0.4196641147136688,0.5497782826423645,0.5589412450790405
1761334268233146000,1.39314599609375,-0.30970844626426697,-0.28588470816612244,0.34574946761131287
1761334268251847400,1.411847412109375,-0.10751219838857651,-0.8277217745780945,0.10873392969369888
1761334268270548700,1.430548828125,0.17043127119541168,-0.7293725609779358,-0.15271618962287903
1761334268289250300,1.449250244140625,0.29138249158859253,-0.4520399272441864,-0.3591884970664978
1761334268307951600,1.46795166015625,0.23029601573944092,-0.2822195291519165,-0.3494146466255188
1761334268326653000,1.48665283203125,0.17592905461788177,-0.1905898153781891,-0.19730933010578156
1761334268345354200,1.505354248046875,0.06475166976451874,-0.023212861269712448,0.012217295356094837
1761334268364055600,1.5240556640625,-0.15210533142089844,0.31154105067253113,0.1948658674955368
1761334268382756900,1.5427568359375,-0.3042106628417969,0.546113133430481,0.4263836145401001
1761334268401458400,1.56145849609375,-0.35796675086021423,0.41783151030540466,0.7189878225326538
1761334268420159700,1.58015966796875,-0.430659681558609,0.6420188546180725,0.8717040419578552
1761334268438861000,1.598861083984375,-0.4764745235443115,1.1924080848693848,0.8625410795211792
1761334268457562400,1.617562255859375,-0.23457208275794983,0.860708475112915,0.49663305282592773
1761334268476263700,1.636263671875,0.010384701192378998,-0.3341430425643921,-0.20158538222312927
1761334268494965000,1.654965087890625,0.48441576957702637,-1.4862339496612549,-1.1001675128936768
1761334268513666600,1.67366650390625,0.5479456782341003,-1.5552617311477661,-1.6401718854904175
1761334268532368000,1.692367919921875,0.23457208275794983,0.27550002932548523,-1.3640609979629517
1761334268551069200,1.711069091796875,0.11606431007385254,1.9010112285614014,-1.061682939529419
1761334268569770500,1.7297705078125,-0.001221729558892548,2.3432772159576416,-0.6585122346878052
1761334268588471800,1.748471923828125,0.06047561392188072,1.814879298210144,0.2003636509180069
1761334268607173000,1.767173095703125,0.056199558079242706,1.3182462453842163,0.9028581380844116
1761334268625874400,1.78587451171875,-0.09651663154363632,1.043357014656067,1.0403027534484863
1761334268644575700,1.80457568359375,-0.049480047076940536,0.7843503952026367,0.6621774435043335
1761334268663277000,1.823277099609375,0.1747073233127594,0.44837474822998047,0.12522727251052856
1761334268681978600,1.841978515625,0.39767298102378845,0.03543015569448471,-0.1649334877729416
1761334268700680000,1.860679931640625,0.5106829404830933,-0.19242240488529205,-0.17715078592300415
1761334268719381200,1.87938134765625,0.4251618981361389,-0.20952661335468292,-0.043982263654470444
1761334268738082600,1.89808251953125,0.2822195291519165,-0.006108647678047419,0.05558869615197182
1761334268756783900,1.916783935546875,0.205861434340477,0.27977606654167175,-0.0256563201546669
1761334268775485200,1.935485107421875,0.10018182545900345,0.3249800503253937,-0.13561198115348816
1761334268794186800,1.954186767578125,0,0.14110976457595825,0.047036588191986084
1761334268812888000,1.97288818359375,-0.03787361457943916,0.1026252806186676,0.3964512348175049
1761334268831589400,1.99158935546875,-0.10873392969369888,0.17104214429855347,0.638353705406189
1761334268850290700,2.010290771484375,-0.23762640357017517,0.4990765154361725,0.8924734592437744
1761334268868992000,2.028991943359375,-0.35124725103378296,1.0219768285751343,1.4282019138336182
1761334268887693300,2.047693359375,-0.2309068888425827,0.924238383769989,1.219896912574768
1761334268906395000,2.066394775390625,0.056810423731803894,0.4196641147136688,0.20463970303535461
1761334268925096200,2.08509619140625,0.21135921776294708,-0.9584468603134155,-1.191797137260437
1761334268943797500,2.103797607421875,0.6548470258712769,-2.525315046310425,-2.1142029762268066
1761334268962498800,2.122498779296875,0.8246674537658691,-1.8881829977035522,-1.0867284536361694
1761334268981200100,2.1412001953125,0.6365211009979248,-0.5925388336181641,0.14660754799842834
1761334268999901400,2.1599013671875,0.40744680166244507,-0.21930044889450073,0.22663083672523499
1761334269018603000,2.17860302734375,0.0873536616563797,0.10751219838857651,-0.30054548382759094
1761334269037304300,2.19730419921875,-0.07819069176912308,0.7379246354103088,-0.4734202027320862
1761334269056005600,2.216005615234375,0.1178968995809555,1.0867284536361694,0.12583814561367035
1761334269074707000,2.23470703125,0.1905898153781891,0.7079922556877136,0.6860011219978333
1761334269093408300,2.253408203125,0.10934479534626007,-0.277332603931427,0.627968966960907
1761334269112109600,2.272109619140625,0.20769402384757996,-0.9175189137458801,0.20158538222312927
1761334269130811000,2.290810791015625,0.4324922561645508,-0.9132428169250488,-0.2052505612373352
1761334269149512200,2.30951220703125,0.5864301919937134,-0.6352993845939636,-0.3433060050010681
1761334269168213500,2.328213623046875,0.48563748598098755,-0.5516108870506287,-0.2932150959968567
1761334269186915000,2.3469150390625,0.2706131041049957,-0.6181951761245728,-0.337808221578598
1761334269205616400,2.365616455078125,0.14477495849132538,-0.4514290690422058,-0.34574946761131287
1761334269224317700,2.384317626953125,0.09346231073141098,-0.050090912729501724,-0.29626941680908203
1761334269243019000,2.40301904296875,0.07513637095689774,0.18325942754745483,-0.06414080411195755
1761334269261720300,2.42172021484375,-0.0054977829568088055,0.04153880476951599,0.3946186602115631
1761334269280421600,2.440421630859375,-0.17287473380565643,0.5094612240791321,1.1545344591140747
1761334269299123200,2.459123291015625,-0.1997527778148651,1.4049890041351318,1.6890411376953125
1761334269317824500,2.477824462890625,0.020769402384757996,1.3109158277511597,1.2822052240371704
1761334269336525800,2.49652587890625,0.1905898153781891,-0.18814635276794434,0.28527384996414185
1761334269355227100,2.51522705078125,0.5400044918060303,-1.8906265497207642,-0.7947350740432739
1761334269373928400,2.533928466796875,0.7855721116065979,-1.8814635276794434,-1.2449424266815186
1761334269392629800,2.552629638671875,0.4764745235443115,-0.010384701192378998,-0.5852084755897522
1761334269411331300,2.571331298828125,0.27855435013771057,0.9871574640274048,-0.09101885557174683
1761334269430032600,2.59003271484375,0.10629047453403473,0.9272927641868591,0.05803215503692627
1761334269448734000,2.60873388671875,-0.04581485688686371,0.6579013466835022,0.07269290834665298
1761334269467435300,2.627435302734375,-0.059864748269319534,0.6389645338058472,0.16126830875873566
1761334269486136600,2.646136474609375,-0.010384701192378998,0.7733548283576965,0.25411975383758545
1761334269504838000,2.664837890625,-0.11056652665138245,0.7385355234146118,0.09346231073141098
1761334269523539500,2.68353955078125,-0.11545344442129135,0.42332929372787476,-0.22968515753746033
1761334269542240500,2.702240478515625,0.12644900381565094,0.12705987691879272,-0.42394015192985535
1761334269560942000,2.720942138671875,0.3738492429256439,-0.17715078592300415,-0.41783151030540466
1761334269579643400,2.739643310546875,0.4251618981361389,-0.5094612240791321,-0.3249800503253937
1761334269598344700,2.7583447265625,0.38728827238082886,-0.729983389377594,-0.1698204129934311
1761334269617046000,2.7770458984375,0.2938259541988373,-0.5766563415527344,-0.04764745384454727
1761334269635747300,2.795747314453125,0.22418737411499023,-0.0769689604640007,-0.10629047453403473
1761334269654448600,2.81444873046875,0.12950333952903748,0.38789913058280945,-0.15088360011577606
1761334269673150200,2.833150146484375,0.001832594396546483,0.6169734001159668,0.09590577334165573
1761334269691851500,2.8518515625,-0.1130099818110466,0.46608981490135193,0.481361448764801
1761334269710552800,2.870552734375,-0.18264856934547424,0.6371319890022278,0.646905779838562
1761334269729254100,2.889254150390625,0.004886918235570192,0.48075059056282043,0.2712239623069763
1761334269747955500,2.90795556640625,0.19608759880065918,-0.18387030065059662,-0.16859868168830872
1761334269766656800,2.92665673828125,0.5393936038017273,-1.3781108856201172,-0.8283326625823975
1761334269785358300,2.9453583984375,0.5381718873977661,-1.527161955833435,-0.7067705392837524
1761334269804059600,2.9640595703125,0.14599667489528656,-0.2156352698802948,0.004276053514331579
1761334269822761000,2.982760986328125,0.09712749719619751,0.4214966893196106,0.3090975880622864
1761334269841462300,3.001462158203125,-0.0030543238390237093,0.555276095867157,0.6823359727859497
1761334269860163600,3.02016357421875,-0.20402882993221283,0.5100721120834351,0.963333785533905
1761334269878865000,3.038864990234375,-0.37690356373786926,0.6554579138755798,0.7733548283576965
1761334269897566200,3.057566162109375,-0.33536475896835327,0.7910698652267456,0.35246896743774414
1761334269916267500,3.076267578125,-0.21135921776294708,0.6713404059410095,0.036651886999607086
1761334269934968800,3.09496875,-0.09590577334165573,0.18875721096992493,-0.14172062277793884
1761334269953670400,3.11367041015625,0.030543239787220955,-0.3035998046398163,-0.2412915825843811
1761334269972371700,3.132371826171875,0.17104214429855347,-0.5503891706466675,-0.3390299379825592
1761334269991073000,3.151072998046875,0.2663370370864868,-0.6328558921813965,-0.4379900395870209
1761334270009774300,3.1697744140625,0.21868959069252014,-0.5491674542427063,-0.5442805290222168
1761334270028475600,3.1884755859375,0.12034036219120026,-0.34086254239082336,-0.544891357421875
1761334270047177000,3.207177001953125,0.11606431007385254,-0.06352993845939636,-0.46425724029541016
1761334270065878500,3.22587841796875,0.13500112295150757,0.04886918142437935,-0.2412915825843811
1761334270084579800,3.244579833984375,0.0665842592716217,-0.0030543238390237093,0.2926042377948761
1761334270103281200,3.26328125,-0.09590577334165573,0.05192350596189499,0.9046907424926758
1761334270121982500,3.281982421875,-0.19730933010578156,0.545502245426178,0.9731075763702393
1761334270140683800,3.300683837890625,0.03787361457943916,0.8118392825126648,0.4050033390522003
1761334270159385000,3.319385009765625,0.2828303873538971,-0.10018182545900345,-0.1893680840730667
1761334270178086400,3.33808642578125,0.32559093832969666,-1.719584345817566,-0.8008437156677246
1761334270196787700,3.35678759765625,0.3530798554420471,-1.9956952333450317,-0.7409789562225342
1761334270215489000,3.375489013671875,0.36285367608070374,-0.7250964641571045,-0.034208428114652634
1761334270234190600,3.394190673828125,0.15577052533626556,0.1484401375055313,0.31459537148475647
1761334270252892000,3.412891845703125,-0.19792018830776215,0.481361448764801,0.4563159942626953
1761334270271593200,3.43159326171875,-0.526565432548523,0.6707295179367065,0.48013970255851746
1761334270290294500,3.45029443359375,-0.7238747477531433,0.8558215498924255,0.3237583339214325
1761334270308995800,3.468995849609375,-0.6316341757774353,0.9053016304969788,0.23762640357017517
1761334270327697200,3.487697265625,-0.545502245426178,0.7183769941329956,0.2932150959968567
1761334270346398700,3.506398681640625,-0.47464191913604736,0.2926042377948761,0.3329212963581085
1761334270365100000,3.52510009765625,-0.37201663851737976,-0.0769689604640007,0.28405213356018066
1761334270383801300,3.54380126953125,-0.13011419773101807,-0.13072505593299866,0.18081597983837128
1761334270402502700,3.562502685546875,0.15577052533626556,-0.05558869615197182,0.12156209349632263
1761334270421204000,3.581203857421875,0.3066541254520416,0.14294235408306122,0.164322629570961
1761334270439905300,3.5999052734375,0.30482152104377747,0.41294458508491516,0.205861434340477
1761334270458606600,3.618606689453125,0.3090975880622864,0.5748237371444702,0.20708316564559937
1761334270477308000,3.637307861328125,0.21380266547203064,0.4508182108402252,0.06291907280683517
1761334270496009500,3.656009521484375,0.19669845700263977,0.08124501258134842,-0.0720820426940918
1761334270514710800,3.674710693359375,0.040317077189683914,-0.25900667905807495,0.0977383628487587
1761334270533412000,3.693412109375,0.011606430634856224,-0.3964512348175049,0.2608392536640167
1761334270552113400,3.712113525390625,0.11484257876873016,0.21380266547203064,0.10567960888147354
1761334270570814700,3.730814697265625,0.43982264399528503,-0.05803215503692627,-0.7043271064758301
1761334270589516000,3.74951611328125,0.6505709886550903,-0.9902117848396301,-1.1924080848693848
1761334270608217600,3.768217529296875,0.7446441650390625,-0.8680388331413269,-0.30482152104377747
1761334270626919000,3.7869189453125,0.711046576499939,-0.2632827162742615,0.4159989058971405
1761334270645620200,3.8056201171875,0.4318813979625702,0.26939135789871216,0.25411975383758545
1761334270664321500,3.824321533203125,-0.0054977829568088055,0.729983389377594,-0.010384701192378998
1761334270683022800,3.84302294921875,-0.2205221801996231,0.9260709881782532,-0.02932151034474373
1761334270701724200,3.86172412109375,0.004886918235570192,1.0189224481582642,0.2620609998703003
1761334270720425500,3.880425537109375,0.28466299176216125,0.7660244107246399,0.5601630210876465
1761334270739126800,3.899126708984375,0.4373791813850403,0.08918625861406326,0.5210676789283752
1761334270757828000,3.917828125,0.49602219462394714,-0.4214966893196106,0.24006985127925873
1761334270776529700,3.93652978515625,0.6181951761245728,-0.5754346251487732,-0.0977383628487587
1761334270795231000,3.95523095703125,0.750141978263855,-0.4068359434604645,-0.2987128794193268
1761334270813932300,3.973932373046875,0.7470875978469849,-0.24312418699264526,-0.2816086709499359
1761334270832633600,3.992633544921875,0.6035344004631042,-0.17226386070251465,-0.14477495849132538
1761334270851335000,4.0113349609375,0.37690356373786926,-0.12767073512077332,-0.16859868168830872
1761334270870036200,4.0300361328125,0.16065743565559387,0.1740964651107788,-0.13194678723812103
1761334270888737800,4.04873779296875,0.009162971749901772,0.6365211009979248,0.15699224174022675
1761334270907438800,4.06743896484375,-0.06780599057674408,1.1392627954483032,0.5803215503692627
1761334270926140400,4.086140380859375,-0.19364413619041443,1.1270455121994019,0.6371319890022278
1761334270944841700,4.104841796875,-0.3243691921234131,0.6811142563819885,0.08307760953903198
1761334270963543000,4.12354296875,-0.13011419773101807,-0.21502439677715302,-1.073289394378662
1761334270982244400,4.142244384765625,0.4917461574077606,-1.5137228965759277,-1.9608759880065918
1761334271000945700,4.160945556640625,0.8655954003334045,-1.1307107210159302,-0.31154105067253113
1761334271019647000,4.17964697265625,0.5051851868629456,-0.38240134716033936,1.5705333948135376
1761334271038348500,4.1983486328125,0.3249800503253937,0.034208428114652634,1.5143338441848755
1761334271057049900,4.2170498046875,0.08429934084415436,0.5424479246139526,0.7330377101898193
1761334271075751200,4.235751220703125,-0.18631376326084137,0.9639446139335632,0.3231474757194519
1761334271094452500,4.254452392578125,-0.20647229254245758,1.1337649822235107,0.2254091054201126
1761334271113153800,4.27315380859375,-0.08613193035125732,0.9853248596191406,0.32620179653167725
1761334271131855000,4.291855224609375,0.007330377586185932,0.49541133642196655,0.35185810923576355
1761334271150556700,4.310556640625,0.11362084746360779,0.0256563201546669,0.1747073233127594
1761334271169257700,4.3292578125,0.30115634202957153,-0.19425499439239502,-0.12217295914888382
1761334271187959000,4.347958984375,0.48441576957702637,-0.20769402384757996,-0.34086254239082336
1761334271206660600,4.36666064453125,0.5345066785812378,-0.14294235408306122,-0.3347539007663727
1761334271225362000,4.38536181640625,0.5186241865158081,-0.09957095980644226,-0.2632827162742615
1761334271244063200,4.404063232421875,0.43432486057281494,0.04153880476951599,-0.16859868168830872
1761334271262764500,4.4227646484375,0.2632827162742615,0.27855435013771057,-0.01954767294228077
1761334271281465900,4.4414658203125,0.06108647957444191,0.6823359727859497,0.2730565667152405
1761334271300167200,4.460167236328125,-0.09285144507884979,0.9266818761825562,0.3591884970664978
1761334271318868700,4.47886865234375,-0.2003636509180069,1.26021409034729,0.19425499439239502
1761334271337570000,4.497570068359375,-0.11362084746360779,1.1068869829177856,-0.17104214429855347
1761334271356271400,4.516271240234375,0.1484401375055313,-0.09590577334165573,-0.7250964641571045
1761334271374972700,4.53497265625,0.46914416551589966,-1.3555089235305786,-1.0574069023132324
1761334271393674000,4.553674072265625,0.481361448764801,-0.9327905178070068,-0.026878049597144127
1761334271412375300,4.572375244140625,0.1178968995809555,-0.09040798991918564,0.7018836140632629
1761334271431076600,4.59107666015625,-0.08124501258134842,0.27855435013771057,0.37690356373786926
1761334271449778000,4.60977783203125,-0.3139844834804535,0.27000224590301514,0.11484257876873016
1761334271468479500,4.6284794921875,-0.5345066785812378,0.23396120965480804,0.1386663019657135
1761334271487180800,4.647180908203125,-0.5119046568870544,0.24495677649974823,0.2522871494293213
1761334271505882000,4.665882080078125,-0.44959646463394165,0.10140355676412582,0.33536475896835327
1761334271524583400,4.68458349609375,-0.4428769648075104,-0.2412915825843811,0.19364413619041443
1761334271543284700,4.70328466796875,-0.4147771894931793,-0.4001164436340332,-0.15210533142089844
1761334271561986000,4.721986083984375,-0.22418737411499023,-0.40866854786872864,-0.47097674012184143
1761334271580687400,4.740687255859375,0.021380268037319183,-0.4728093445301056,-0.5888736248016357
1761334271599388700,4.759388671875,0.1337793916463852,-0.5400044918060303,-0.5216785073280334
1761334271618090000,4.778090087890625,0.19669845700263977,-0.4929678738117218,-0.4630354940891266
1761334271636791600,4.79679150390625,0.1637117564678192,-0.25534147024154663,-0.4508182108402252
1761334271655492900,4.815492919921875,0.04214967042207718,0.13439024984836578,-0.36224281787872314
1761334271674194200,4.834194091796875,-0.04459312930703163,0.21380266547203064,-0.1740964651107788
1761334271692895500,4.8528955078125,-0.1337793916463852,0.32559093832969666,0.15088360011577606
1761334271711596800,4.8715966796875,-0.2620609998703003,0.5790998339653015,0.35246896743774414
1761334271730298000,4.890298095703125,-0.41355544328689575,0.8723149299621582,0.16004657745361328
1761334271748999700,4.908999755859375,-0.40255987644195557,0.665842592716217,-0.42088583111763
1761334271767701000,4.927700927734375,-0.14660754799842834,-0.6750055551528931,-1.2370011806488037
1761334271786402300,4.94640234375,0.06719512492418289,-1.2382229566574097,-0.729983389377594
1761334271805103600,4.965103515625,0.010995565913617611,-0.2632827162742615,0.8991929292678833
1761334271823805000,4.983804931640625,-0.2211330533027649,0.3072649836540222,1.2486076354980469
1761334271842506200,5.00250634765625,-0.36774060130119324,0.33047783374786377,0.896138608455658
1761334271861207600,5.02120751953125,-0.4728093445301056,0.19120067358016968,0.8881973624229431
1761334271879908900,5.039908935546875,-0.5302306413650513,0.20830489695072174,0.9761618971824646
1761334271898610200,5.058610107421875,-0.5009090900421143,0.2932150959968567,0.8784235715866089
1761334271917311700,5.077311767578125,-0.5436696410179138,0.18387030065059662,0.5882627964019775
1761334271936012800,5.0960126953125,-0.5400044918060303,-0.08124501258134842,0.15515965223312378
1761334271954714400,5.11471435546875,-0.44409868121147156,-0.2816086709499359,-0.2559523284435272
1761334271973415700,5.133415771484375,-0.22968515753746033,-0.46425724029541016,-0.5723803043365479
1761334271992117000,5.152116943359375,-0.008552107028663158,-0.7018836140632629,-0.6963858604431152
1761334272010818300,5.170818359375,0.09040798991918564,-0.9401208758354187,-0.6798924803733826
1761334272029519600,5.18951953125,0.12217295914888382,-0.9926552772521973,-0.6536253094673157
1761334272048221000,5.208220947265625,0.08491020649671555,-0.778241753578186,-0.7153226733207703
1761334272066922500,5.226922607421875,0.010995565913617611,-0.43432486057281494,-0.8576541543006897
1761334272085623800,5.245623779296875,-0.001221729558892548,-0.32192572951316833,-0.9028581380844116
1761334272104325000,5.2643251953125,-0.2156352698802948,-0.20402882993221283,-0.5381718873977661
1761334272123026400,5.2830263671875,-0.5497782826423645,-0.09896009415388107,-0.17715078592300415
1761334272141727700,5.301727783203125,-0.5100721120834351,-0.13988803327083588,-0.45387253165245056
1761334272160429000,5.320428955078125,-0.22846342623233795,-1.007315993309021,-0.9914335608482361
1761334272179130600,5.339130615234375,-0.5626064538955688,-2.4159700870513916,-1.4324779510498047
1761334272197832000,5.35783203125,-0.9022472500801086,-0.657290518283844,-0.6175842881202698
1761334272216533000,5.376532958984375,-0.8258891701698303,1.0036507844924927,-0.17776164412498474
1761334272235234600,5.395234619140625,-0.9608902931213379,1.0054833889007568,-0.1496618688106537
1761334272253935900,5.413935791015625,-0.9224058389663696,0.277332603931427,0.09346231073141098
1761334272272637200,5.43263720703125,-0.6456840634346008,-0.2919933497905731,0.7635809779167175
1761334272291338500,5.45133837890625,-0.536339282989502,-0.3646862804889679,1.3946043252944946
1761334272310039800,5.470039794921875,-0.5418370366096497,-0.020769402384757996,1.1209368705749512
1761334272328741000,5.4887412109375,-0.37323838472366333,0.06963858753442764,0.30115634202957153
1761334272347442700,5.507442626953125,-0.13500112295150757,-0.15577052533626556,-0.1893680840730667
1761334272366144000,5.52614404296875,0.11667517572641373,-0.35796675086021423,-0.2528980076313019
1761334272384845300,5.54484521484375,0.3194822669029236,-0.4471530318260193,-0.17898337543010712
1761334272403546600,5.563546630859375,0.26022839546203613,-0.5112938284873962,-0.24984370172023773
1761334272422248000,5.582248046875,0.17592905461788177,-0.45937031507492065,-0.3958403766155243
1761334272440949200,5.60094921875,0.08552107214927673,-0.35796675086021423,-0.481361448764801
1761334272459650600,5.619650634765625,-0.07819069176912308,-0.08613193035125732,-0.42821621894836426
1761334272478352000,5.638351806640625,-0.14599667489528656,0.008552107028663158,-0.3329212963581085
1761334272497053400,5.657053466796875,-0.08674279600381851,-0.03481929376721382,-0.05864302068948746
1761334272515754800,5.675754638671875,-0.0824667438864708,0.05436696484684944,0.08918625861406326
1761334272534456000,5.6944560546875,-0.20830489695072174,0.3341430425643921,-0.13744457066059113
1761334272553157400,5.713157470703125,-0.24862197041511536,-0.09468404203653336,-0.8985821008682251
1761334272571858700,5.731858642578125,-0.08124501258134842,-1.2999202013015747,-1.7611231803894043
1761334272590560000,5.75056005859375,-0.38789913058280945,-1.130099892616272,-1.75623619556427
1761334272609261300,5.76926123046875,-0.647516667842865,0.3597993552684784,-1.1679733991622925
1761334272627962600,5.787962646484375,-0.7531962990760803,1.0543526411056519,-0.5259546041488647
1761334272646664000,5.806663818359375,-0.8350521326065063,0.8662062287330627,0.5039634704589844
1761334272665365500,5.825365478515625,-0.748920202255249,0.21930044889450073,1.4868448972702026
1761334272684066800,5.84406689453125,-0.7067705392837524,-0.24006985127925873,1.8839069604873657
1761334272702768000,5.86276806640625,-0.778241753578186,-0.06780599057674408,1.4110976457595825
1761334272721469400,5.881469482421875,-0.7696896195411682,0.17043127119541168,0.5277871489524841
1761334272740170800,5.900170654296875,-0.5876519083976746,-0.08491020649671555,-0.04214967042207718
1761334272758872000,5.9188720703125,-0.30604326725006104,-0.5729911923408508,-0.1282816082239151
1761334272777573400,5.937573486328125,-0.08918625861406326,-0.9810488224029541,-0.12583814561367035
1761334272796274700,5.956274658203125,-0.10323614627122879,-1.1527018547058105,-0.430659681558609
1761334272814976300,5.974976318359375,-0.12156209349632263,-0.9279035925865173,-0.8338304162025452
1761334272833677600,5.993677490234375,-0.10079269111156464,-0.6047561168670654,-0.9926552772521973
1761334272852379000,6.01237890625,-0.08429934084415436,-0.41233372688293457,-0.721431314945221
1761334272871080200,6.031080078125,-0.19120067358016968,-0.5510000586509705,-0.337808221578598
1761334272889781500,6.049781494140625,-0.26878049969673157,-0.6407971382141113,-0.09529490768909454
1761334272908482800,6.06848291015625,-0.40805765986442566,-0.43982264399528503,0.05864302068948746
1761334272927184100,6.08718408203125,-0.6151408553123474,0.08491020649671555,0.08552107214927673
1761334272945885400,6.105885498046875,-0.5064069032669067,0.15271618962287903,-0.4673115611076355
1761334272964586800,6.124586669921875,-0.3133736252784729,-0.7629700899124146,-0.9694424271583557
1761334272983288300,6.143288330078125,-0.5436696410179138,-1.6719368696212769,-0.9077450633049011
1761334273001989600,6.16198974609375,-0.5919279456138611,-0.7751874327659607,-0.5632173418998718
1761334273020691000,6.18069091796875,-0.5198459029197693,0.6786707639694214,0.06230820715427399
1761334273039392300,6.199392333984375,-0.7257073521614075,0.9749401807785034,0.5027416944503784
1761334273058093600,6.218093505859375,-0.7165443897247314,0.3066541254520416,0.9199623465538025
1761334273076795000,6.236794921875,-0.8093958497047424,0.13927717506885529,1.2107340097427368
1761334273095496200,6.25549609375,-0.9010255336761475,0.4153880476951599,0.905912458896637
1761334273114197500,6.274197509765625,-0.8161153197288513,0.3915643095970154,0.328645259141922
1761334273132898800,6.29289892578125,-0.6450732350349426,0.06841685622930527,0.03481929376721382
1761334273151600000,6.31160009765625,-0.5027416944503784,-0.1997527778148651,0.0665842592716217
1761334273170301700,6.3303017578125,-0.2412915825843811,-0.22479823231697083,-0.004276053514331579
1761334273189003000,6.3490029296875,0.1337793916463852,-0.20463970303535461,-0.2675587832927704
1761334273207704300,6.367704345703125,0.27550002932548523,-0.3072649836540222,-0.4923570156097412
1761334273226405600,6.386405517578125,0.24923282861709595,-0.3335321843624115,-0.5436696410179138
1761334273245107000,6.40510693359375,0.23884813487529755,-0.20402882993221283,-0.4013381600379944
1761334273263808300,6.423808349609375,0.24801109731197357,0.09162971377372742,-0.1380554437637329
1761334273282509600,6.442509521484375,0.2528980076313019,0.23518294095993042,0.08368847519159317
1761334273301211100,6.461211181640625,0.11239911615848541,-0.01954767294228077,0.2419024556875229
1761334273319912400,6.479912353515625,0.009773836471140385,-0.10934479534626007,0.5705476999282837
1761334273338613800,6.49861376953125,-0.018325943499803543,0.49968740344047546,0.9688315391540527
1761334273357315000,6.517315185546875,-0.11667517572641373,0.5668824911117554,0.5381718873977661
1761334273376016400,6.536016357421875,-0.04459312930703163,-0.18753549456596375,-0.17165300250053406
1761334273394717700,6.5547177734375,0.027488915249705315,-1.4117084741592407,-1.0684025287628174
1761334273413419000,6.5734189453125,-0.07941242307424545,-0.7874047160148621,-1.3213005065917969
1761334273432120300,6.592120361328125,0.004886918235570192,0.8967494964599609,-0.7861829996109009
1761334273450821600,6.610821533203125,0.018325943499803543,1.0378592014312744,-0.26022839546203613
1761334273469523000,6.62952294921875,-0.1533270627260208,0.26511532068252563,0.4770853817462921
1761334273488224500,6.648224609375,-0.17653992772102356,-0.337808221578598,1.0213658809661865
1761334273506925800,6.66692578125,-0.21197007596492767,-0.10323614627122879,0.8833104968070984
1761334273525627100,6.685627197265625,-0.2577849328517914,0.3127627670764923,0.45448338985443115
1761334273544328400,6.704328369140625,-0.2767217457294464,0.328645259141922,0.16615521907806396
1761334273563029800,6.72302978515625,-0.2406807243824005,-0.04825831577181816,0.10445787757635117
1761334273581731000,6.74173095703125,-0.006719512399286032,-0.37262752652168274,0.10384701192378998
1761334273600432400,6.760432373046875,0.17287473380565643,-0.45875945687294006,0.056199558079242706
1761334273619134000,6.779134033203125,0.20219624042510986,-0.4514290690422058,-0.09834922850131989
1761334273637835300,6.797835205078125,0.1233946830034256,-0.32681265473365784,-0.3127627670764923
1761334273656536600,6.81653662109375,0.08857539296150208,-0.11239911615848541,-0.3347539007663727
1761334273675238000,6.83523779296875,0.07757982611656189,0.13927717506885529,-0.07147117704153061
1761334273693939200,6.853939208984375,-0.028099779039621353,0.24312418699264526,0.30482152104377747
1761334273712640500,6.872640625,-0.08063415437936783,-0.13072505593299866,0.4612029194831848
1761334273731341800,6.891341796875,-0.1533270627260208,-0.3237583339214325,0.5729911923408508
1761334273750043100,6.910043212890625,-0.2822195291519165,0.27977606654167175,0.48441576957702637
1761334273768744400,6.928744384765625,-0.23884813487529755,0.3225366175174713,-0.24006985127925873
1761334273787446000,6.947446044921875,-0.337808221578598,-0.38789913058280945,-0.9969313144683838
1761334273806147000,6.96614697265625,-0.3017672002315521,-0.9181297421455383,-1.4233149290084839
1761334273824848600,6.9848486328125,0.09101885557174683,-0.12095122784376144,-0.8093958497047424
1761334273843550000,7.003550048828125,0.08674279600381851,0.4221075773239136,0.29138249158859253
1761334273862251300,7.022251220703125,-0.16859868168830872,0.19608759880065918,1.3115266561508179
1761334273880952600,7.04095263671875,-0.29565855860710144,-0.1948658674955368,1.8099923133850098
1761334273899654000,7.05965380859375,-0.3402516841888428,0.05192350596189499,1.5741984844207764
1761334273918355200,7.078355224609375,-0.39278605580329895,0.3756818473339081,0.9236275553703308
1761334273937056500,7.097056396484375,-0.3390299379825592,0.3536907136440277,0.48502662777900696
1761334273955757800,7.1157578125,-0.3231474757194519,0.020769402384757996,0.31031930446624756
1761334273974459100,7.134459228515625,-0.2822195291519165,-0.16798780858516693,0.235793799161911
1761334273993160700,7.15316064453125,-0.2626718580722809,-0.26022839546203613,0.10629047453403473
1761334274011862000,7.171862060546875,-0.287106454372406,-0.32070401310920715,-0.2932150959968567
1761334274030563300,7.190563232421875,-0.27488914132118225,-0.23823726177215576,-0.7171552777290344
1761334274049264600,7.2092646484375,-0.17592905461788177,-0.08063415437936783,-0.7269290685653687
1761334274067966000,7.227966064453125,-0.07574722915887833,0.027488915249705315,-0.3530798554420471
1761334274086667300,7.246667236328125,-0.08979712426662445,0.012217295356094837,0.18081597983837128
1761334274105368600,7.26536865234375,-0.14294235408306122,-0.07147117704153061,0.6126973628997803
1761334274124070000,7.28406982421875,-0.17104214429855347,-0.2528980076313019,0.6200277805328369
1761334274142771500,7.302771484375,-0.30970844626426697,0.09040798991918564,0.43310311436653137
1761334274161472800,7.32147265625,-0.5497782826423645,0.5980366468429565,0.2974911332130432
1761334274180173800,7.340173828125,-0.35796675086021423,-0.17592905461788177,-0.16065743565559387
1761334274198875400,7.35887548828125,0.19914191961288452,-1.8258748054504395,-1.135597586631775
1761334274217576700,7.37757666015625,0.20402882993221283,-1.7513493299484253,-1.2412772178649902
1761334274236278000,7.396278076171875,-0.08002328872680664,0.033597562462091446,-0.23273947834968567
1761334274254979300,7.414979248046875,-0.2889390289783478,0.5082395076751709,0.40866854786872864
1761334274273680600,7.4336806640625,-0.35124725103378296,0.43432486057281494,0.758083164691925
1761334274292382000,7.4523818359375,-0.37629270553588867,0.554665207862854,0.9187406301498413
1761334274311083300,7.471083251953125,-0.41783151030540466,0.6908880472183228,0.8087849617004395
1761334274329784600,7.48978466796875,-0.5070177912712097,0.6194168925285339,0.4886918365955353
1761334274348486100,7.508486083984375,-0.5125155448913574,0.4062250852584839,0.09346231073141098
1761334274367187500,7.5271875,-0.31642794609069824,0.07635809481143951,-0.3035998046398163
1761334274385888800,7.545888671875,-0.06963858753442764,-0.21502439677715302,-0.62857985496521
1761334274404590000,7.564590087890625,0.22968515753746033,-0.33658650517463684,-0.7959567904472351
1761334274423291400,7.58329150390625,0.49052441120147705,-0.34208428859710693,-0.7690787315368652
1761334274441992700,7.60199267578125,0.6524035930633545,-0.3072649836540222,-0.536339282989502
1761334274460694000,7.620694091796875,0.6426297426223755,-0.24373504519462585,-0.28588470816612244
1761334274479395300,7.639395263671875,0.3860665261745453,-0.07574722915887833,-0.2938259541988373
1761334274498096600,7.6580966796875,0.1441640853881836,0.16249002516269684,-0.48075059056282043
1761334274516798000,7.6767978515625,0.08429934084415436,0.01649334840476513,-0.471587598323822
1761334274535499300,7.695499267578125,-0.027488915249705315,0.3384190797805786,0.19608759880065918
1761334274554200800,7.714200927734375,-0.28588470816612244,0.4453204274177551,0.7018836140632629
1761334274572902100,7.732902099609375,-0.38179048895835876,-0.401949018239975,0.4428769648075104
1761334274591603500,7.751603515625,-0.21991132199764252,-0.9120211005210876,0.017715077847242355
1761334274610304800,7.7703046875,0.04276053607463837,-1.1685843467712402,-0.7250964641571045
1761334274629006000,7.789006103515625,0.4013381600379944,-0.7562506198883057,-1.453247308731079
1761334274647707400,7.807707275390625,0.23945899307727814,0.56382817029953,-0.9364557266235352
1761334274666408700,7.82640869140625,-0.01954767294228077,0.6133082509040833,-0.2205221801996231
1761334274685110000,7.845110107421875,-0.12217295914888382,0.001221729558892548,0.42882707715034485
1761334274703811300,7.863811279296875,-0.3017672002315521,-0.2974911332130432,0.94439697265625
1761334274722513000,7.882512939453125,-0.3909534513950348,-0.027488915249705315,1.025641918182373
1761334274741214000,7.9012138671875,-0.2559523284435272,0.24312418699264526,0.667064368724823
1761334274759915500,7.91991552734375,-0.09040798991918564,0.2516762912273407,0.14721840620040894
1761334274778616800,7.938616943359375,-0.025045456364750862,0.11239911615848541,-0.17226386070251465
1761334274797318100,7.957318115234375,0.10140355676412582,-0.06963858753442764,-0.21135921776294708
1761334274816019500,7.97601953125,0.2877173125743866,-0.3090975880622864,-0.2657261788845062
1761334274834720800,7.994720703125,0.30115634202957153,-0.45509424805641174,-0.3347539007663727
1761334274853422000,8.013422119140625,0.2107483446598053,-0.35185810923576355,-0.33536475896835327
1761334274872123400,8.032123291015624,0.13133592903614044,0.04214967042207718,-0.2162461280822754
1761334274890824700,8.05082470703125,0.03909534588456154,0.4007273018360138,-0.1490510106086731
1761334274909526000,8.069526123046876,-0.06597339361906052,0.3915643095970154,-0.030543239787220955
1761334274928227600,8.0882275390625,-0.17592905461788177,0.34208428859710693,0.17226386070251465
1761334274946928600,8.1069287109375,-0.2883281707763672,0.35124725103378296,0.32070401310920715
1761334274965630200,8.125630126953125,-0.2932150959968567,0.3439168632030487,0.235793799161911
1761334274984331500,8.14433154296875,-0.11423171311616898,-0.10384701192378998,-0.3017672002315521
1761334275003032800,8.16303271484375,0.12644900381565094,-0.7617483735084534,-0.8717040419578552
1761334275021734100,8.181734130859375,0.3842339515686035,-1.1588104963302612,-1.6804890632629395
1761334275040435500,8.200435546875,0.4172206521034241,0.40805765986442566,-1.2388337850570679
1761334275059136800,8.21913671875,0.41294458508491516,1.1533126831054688,0.09468404203653336
1761334275077838000,8.237838134765624,0.23823726177215576,0.3756818473339081,1.1380411386489868
1761334275096539400,8.256539306640626,-0.07391463965177536,-0.3042106628417969,1.6597195863723755
1761334275115240700,8.27524072265625,-0.26878049969673157,-0.05070177838206291,1.2241730690002441
1761334275133942300,8.2939423828125,-0.24312418699264526,0.6401863098144531,0.22479823231697083
1761334275152643300,8.312643310546875,-0.15638138353824615,0.8643736839294434,-0.35185810923576355
1761334275171345000,8.331344970703125,-0.0513126403093338,0.4862483739852905,-0.3194822669029236
1761334275190046200,8.350046142578124,0.06536252796649933,-0.003665188793092966,-0.07391463965177536
1761334275208747500,8.36874755859375,0.1545487940311432,-0.23212862014770508,-0.03848448023200035
1761334275227448800,8.38744873046875,0.3182605504989624,-0.2657261788845062,-0.28527384996414185
1761334275246150100,8.406150146484375,0.4575377106666565,-0.2577849328517914,-0.5564978122711182
1761334275264851500,8.4248515625,0.4221075773239136,-0.20402882993221283,-0.5815432667732239
1761334275283552800,8.443552734375,0.40378162264823914,-0.12095122784376144,-0.35124725103378296
1761334275302254000,8.462254150390624,0.4838049113750458,0.018325943499803543,0.05742128938436508
1761334275320955400,8.480955322265626,0.4612029194831848,0.018325943499803543,0.5503891706466675
1761334275339656700,8.49965673828125,0.3549124300479889,-0.03481929376721382,0.6933315396308899
1761334275358358000,8.51835791015625,0.28405213356018066,0.20891575515270233,0.15210533142089844
1761334275377059600,8.5370595703125,0.14049890637397766,0.6163625717163086,-0.6621774435043335
1761334275395761000,8.555760986328124,0.22663083672523499,-0.3555232882499695,-1.4282019138336182
1761334275414462200,8.574462158203126,0.3396408259868622,-1.0696241855621338,-1.9425499439239502
1761334275433163500,8.59316357421875,0.5222893953323364,0.33047783374786377,-1.1410953998565674
1761334275451864800,8.61186474609375,0.5510000586509705,0.7263182401657104,0.2107483446598053
1761334275470566100,8.630566162109375,0.18081597983837128,-0.33231043815612793,0.916297197341919
1761334275489267500,8.649267333984374,-0.16126830875873566,-0.35124725103378296,1.0903936624526978
1761334275507968800,8.66796875,-0.29993459582328796,0.2620609998703003,0.8210022449493408
1761334275526670000,8.686670166015626,-0.3903425931930542,0.6236929297447205,0.3897317349910736
1761334275545371400,8.705371337890625,-0.4679224193096161,0.6206386089324951,0.15699224174022675
1761334275564072700,8.72407275390625,-0.4263836145401001,0.3811796307563782,0.24495677649974823
1761334275582774300,8.742774169921875,-0.34636032581329346,0.12156209349632263,0.347582072019577
1761334275601475600,8.7614755859375,-0.23029601573944092,0.07147117704153061,0.2981020212173462
1761334275620176600,8.7801767578125,-0.20463970303535461,0.1649334877729416,0.028099779039621353
1761334275638878200,8.798878173828125,-0.21807873249053955,0.2162461280822754,-0.29993459582328796
1761334275657579300,8.817579345703125,-0.12400554865598679,0.2052505612373352,-0.37323838472366333
1761334275676280800,8.83628076171875,0.08613193035125732,0.15515965223312378,-0.25473061203956604
1761334275694982100,8.854982177734374,0.2706131041049957,0.17226386070251465,-0.11667517572641373
1761334275713683500,8.873683349609376,0.3042106628417969,0.2559523284435272,0.036651886999607086
1761334275732384800,8.892384765625,0.3078758418560028,0.6120865345001221,0.2559523284435272
1761334275751086000,8.911086181640625,0.3952295184135437,0.516791582107544,0.3915643095970154
1761334275769787400,8.929787353515625,0.36285367608070374,-0.03543015569448471,0.23518294095993042
1761334275788488700,8.94848876953125,0.23457208275794983,-0.6786707639694214,-0.22174391150474548
1761334275807190000,8.96718994140625,0.2211330533027649,-0.5699368119239807,-0.656679630279541
1761334275825891300,8.985891357421876,0.3249800503253937,0.4007273018360138,-0.646905779838562
1761334275844593000,9.004593017578125,0.4379900395870209,1.05496346950531,-0.2767217457294464
1761334275863294000,9.0232939453125,0.3182605504989624,0.8002328872680664,-0.021380268037319183
1761334275881995500,9.04199560546875,0.06597339361906052,0.11972949653863907,0.05925388261675835
1761334275900696800,9.06069677734375,-0.09285144507884979,-0.26022839546203613,-0.028099779039621353
1761334275919398100,9.079398193359374,-0.07391463965177536,-0.14049890637397766,-0.19730933010578156
1761334275938099500,9.098099365234376,0.028099779039621353,0.27550002932548523,-0.19364413619041443
1761334275956800800,9.11680078125,0.10079269111156464,0.37690356373786926,-0.01649334840476513
1761334275975502000,9.135502197265625,0.13072505593299866,0.14049890637397766,0.22907429933547974
1761334275994203400,9.154203369140625,0.16737695038318634,-0.35185810923576355,0.5528326034545898
1761334276012904700,9.17290478515625,0.24434591829776764,-0.6646208763122559,0.8894191384315491
1761334276031606000,9.19160595703125,0.4404335021972656,-0.7739656567573547,1.1447606086730957
1761334276050307300,9.210307373046875,0.6438514590263367,-0.5699368119239807,0.9798271059989929
1761334276069008600,9.229008544921875,0.9095776677131653,-0.2706131041049957,0.36835145950317383
1761334276087710200,9.247710205078125,1.0341941118240356,-0.12156209349632263,-0.05192350596189499
1761334276106411300,9.266411376953124,0.8692606091499329,0.12583814561367035,-0.35185810923576355
1761334276125112600,9.285112548828126,0.6010909676551819,0.12095122784376144,-0.49113526940345764
1761334276143814100,9.303814208984376,0.4935787320137024,-0.1026252806186676,-0.5192350745201111
1761334276162515500,9.322515380859375,0.5522217750549316,-0.33536475896835327,-0.45387253165245056
1761334276181216800,9.341216796875,0.5852084755897522,-0.3946186602115631,-0.28527384996414185
1761334276199918000,9.35991796875,0.2809978127479553,-0.6151408553123474,0.07452550530433655
1761334276218619400,9.378619384765624,0.07330377399921417,-0.006719512399286032,-0.18264856934547424
1761334276237320700,9.39732080078125,0.10384701192378998,0.6371319890022278,-0.6805033683776855
1761334276256022000,9.41602197265625,0.19608759880065918,0.5711585879325867,-0.6530144214630127
1761334276274723300,9.434723388671875,0.37812530994415283,0.0818558782339096,-0.16065743565559387
1761334276293424600,9.453424560546875,0.4990765154361725,-0.22235478460788727,0.3042106628417969
1761334276312126000,9.4721259765625,0.47525280714035034,-0.3329212963581085,0.4679224193096161
1761334276330827300,9.4908271484375,0.4166097939014435,-0.3451386094093323,0.48502662777900696
1761334276349528600,9.509528564453126,0.3335321843624115,-0.29016077518463135,0.4874700903892517
1761334276368230000,9.52822998046875,0.25411975383758545,-0.2211330533027649,0.44470956921577454
1761334276386931500,9.546931396484375,0.19242240488529205,-0.2003636509180069,0.4001164436340332
1761334276405632800,9.5656328125,0.12767073512077332,-0.11728604137897491,0.36712974309921265
1761334276424333800,9.584333740234374,0.07086031138896942,-0.20647229254245758,0.3946186602115631
1761334276443035400,9.603035400390626,0.047036588191986084,-0.7202095985412598,0.7446441650390625
1761334276461736700,9.62173681640625,0.10751219838857651,-0.8356630206108093,0.46914416551589966
1761334276480438000,9.64043798828125,0.09101885557174683,-0.4929678738117218,-0.16004657745361328
1761334276499139300,9.659139404296875,-0.04520399495959282,-0.18264856934547424,-0.4679224193096161
1761334276517840600,9.677840576171874,-0.09468404203653336,-0.06230820715427399,-0.30482152104377747
