time,seconds_elapsed,z,y,x
1761334266895999200,0.055999267578125,-0.15088360011577606,-0.9738711714744568,0.6343830823898315
1761334266914700500,0.074700439453125,-0.3029889166355133,-1.0471749305725098,0.5592467188835144
1761334266933401900,0.09340185546875,-0.5314523577690125,-1.3245075941085815,0.39858928322792053
1761334266952103400,0.112103515625,-0.6420188546180725,-1.4356849193572998,0.10720676928758621
1761334266970804700,0.1308046875,-0.6701186895370483,-1.2683080434799194,-0.374765545129776
1761334266989506000,0.149506103515625,-0.4838049113750458,-0.5090031027793884,-0.731510579586029
1761334267008207400,0.168207275390625,-0.22296564280986786,0.44089165329933167,-0.7516691088676453
1761334267026908700,0.18690869140625,-0.04520399495959282,0.3260490894317627,-0.6423243284225464
1761334267045610000,0.20560986328125,0.000610864779446274,-0.25793763995170593,-0.5225948095321655
1761334267064311600,0.2243115234375,0.05864302068948746,-0.036804601550102234,-0.33750277757644653
1761334267083012900,0.243012939453125,0.2938259541988373,0.2845102846622467,-0.14569124579429626
1761334267101714200,0.261714111328125,0.7953459620475769,1.0877974033355713,0.003970621153712273
1761334267120415500,0.28041552734375,0.9022472500801086,1.6003129482269287,-0.0925460159778595
1761334267139116800,0.29911669921875,0.26022839546203613,1.3211477994918823,-0.4523453712463379
1761334267157818000,0.317818115234375,-0.2522871494293213,-0.03252854943275452,-0.44990190863609314
1761334267176519700,0.336519775390625,-0.47586366534233093,-0.9543235301971436,-0.1279761642217636
1761334267195221000,0.355220947265625,-0.5687150955200195,-0.7576250433921814,0.028405211865901947
1761334267213922300,0.37392236328125,-0.23945899307727814,-0.2328922003507614,-0.07849612087011337
1761334267232623600,0.39262353515625,-0.05742128938436508,0.21670427918434143,-0.029626941308379173
1761334267251325000,0.411324951171875,-0.04153880476951599,-0.10644318908452988,0.20616686344146729
1761334267270026200,0.430026123046875,-0.15515965223312378,-0.780837893486023,0.5739074349403381
1761334267288727800,0.448727783203125,-0.41905322670936584,-1.1980586051940918,1.0430516004562378
1761334267307429000,0.46742919921875,-0.564439058303833,-1.3397791385650635,1.3008365631103516
1761334267326130400,0.48613037109375,-0.5112938284873962,-1.1381938457489014,1.2067633867263794
1761334267344831700,0.504831787109375,-0.3854556679725647,-0.6641627550125122,0.888502836227417
1761334267363533000,0.523532958984375,-0.25411975383758545,-0.2707658112049103,0.4608974754810333
1761334267382234400,0.542234375,-0.05436696484684944,-0.016646064817905426,0.1328630894422531
1761334267400936000,0.56093603515625,0.19608759880065918,-0.09850194305181503,-0.013744457624852657
1761334267419637200,0.57963720703125,0.3860665261745453,-0.24205516278743744,0.011911863461136818
1761334267438338600,0.598338623046875,0.4612029194831848,-0.18952079117298126,-0.01435532234609127
1761334267457040000,0.617039794921875,0.3689623177051544,-0.08811724185943604,-0.15118902921676636
1761334267475741200,0.6357412109375,0.28527384996414185,-0.016035201027989388,-0.27947062253952026
1761334267494442500,0.6544423828125,0.3610210716724396,0.002901607658714056,-0.34605491161346436
1761334267513144000,0.67314404296875,0.5827649831771851,0.1305723488330841,-0.28557929396629333
1761334267531845400,0.691845458984375,0.6334667801856995,0.23564109206199646,0.05528326332569122
1761334267550546700,0.710546630859375,0.3231474757194519,0.39996370673179626,0.508544921875
1761334267569248000,0.729248046875,0.08368847519159317,0.6302597522735596,0.8903354406356812
1761334267587949300,0.74794921875,0.1747073233127594,0.7512109875679016,0.4560105502605438
1761334267606650600,0.766650634765625,0.3897317349910736,0.33948808908462524,-0.37843072414398193
1761334267625352200,0.785352294921875,0.5009090900421143,-0.7527381181716919,-0.9679152369499207
1761334267644053500,0.804053466796875,0.934012234210968,-1.2664754390716553,-0.8610138893127441
1761334267662754800,0.8227548828125,0.8772017955780029,-0.8712459206581116,0.0009162971982732415
1761334267681456000,0.8414560546875,0.45326167345046997,-0.5670352578163147,0.5757400393486023
1761334267700157400,0.860157470703125,0.2364046722650528,-0.4656316637992859,0.4425715208053589
1761334267718858800,0.878858642578125,0.031154103577136993,-0.44119709730148315,0.24709481000900269
1761334267737560300,0.897560302734375,-0.23823726177215576,-0.20601414144039154,0.12736530601978302
1761334267756261600,0.91626171875,-0.4202749729156494,0.060322895646095276,0.0870482325553894
1761334267774963000,0.934962890625,-0.4373791813850403,0.1623373180627823,0.3081812858581543
1761334267793664300,0.953664306640625,-0.5393936038017273,-0.1308777779340744,0.4535670876502991
1761334267812365600,0.972365478515625,-0.6872228980064392,-0.49739664793014526,0.3026835024356842
1761334267831067000,0.99106689453125,-0.750141978263855,-0.6226239204406738,-0.14691297709941864
1761334267849768200,1.009768310546875,-0.667064368724823,-0.5389354228973389,-0.5940660238265991
1761334267868469800,1.0284697265625,-0.4196641147136688,-0.34834563732147217,-0.8127555847167969
1761334267887171000,1.047171142578125,-0.22724169492721558,-0.24205516278743744,-0.7638863921165466
1761334267905872400,1.065872314453125,-0.23884813487529755,-0.2182314395904541,-0.5311469435691833
1761334267924573700,1.08457373046875,-0.3860665261745453,-0.08323032408952713,-0.20311254262924194
1761334267943275000,1.10327490234375,-0.3811796307563782,0.21059563755989075,-0.03023780696094036
1761334267961976300,1.121976318359375,-0.2919933497905731,0.268627792596817,0.11514800786972046
1761334267980678000,1.140677978515625,-0.20830489695072174,-0.06612611562013626,0.3546070158481598
1761334267999379200,1.159379150390625,-0.24740023910999298,-0.2231183648109436,0.8842267394065857
1761334268018080500,1.17808056640625,-0.5253437161445618,0.4494437575340271,1.0699297189712524
1761334268036781800,1.19678173828125,-0.47036588191986084,0.7078395485877991,0.14691297709941864
1761334268055483100,1.215483154296875,-0.15577052533626556,0.06215549260377884,-0.9117156863212585
1761334268074184400,1.234184326171875,0.3958403766155243,-1.1339176893234253,-1.7143919467926025
1761334268092886000,1.252885986328125,0.7018836140632629,-1.5322015285491943,-1.6551381349563599
1761334268111587300,1.27158740234375,0.555276095867157,-1.0551161766052246,-0.3802633285522461
1761334268130288600,1.29028857421875,0.21135921776294708,-0.6079631447792053,0.4975493550300598
1761334268148990000,1.308989990234375,-0.2657261788845062,-0.0032070400193333626,0.7150171995162964
1761334268167691300,1.327691162109375,-0.45937031507492065,0.7298306822776794,0.6960803866386414
1761334268186392600,1.346392578125,-0.49663305282592773,1.041982650756836,0.6887500286102295
1761334268205094100,1.36509423828125,-0.4679224193096161,0.8538362383842468,0.6411026120185852
1761334268223795500,1.38379541015625,-0.3799578845500946,0.1623373180627823,0.4511236250400543
1761334268242496800,1.402496826171875,-0.23273947834968567,-0.6268999576568604,0.23243404924869537
1761334268261198000,1.421197998046875,0.025045456364750862,-0.8199332356452942,-0.02412915788590908
1761334268279899400,1.4398994140625,0.2510654330253601,-0.5688678026199341,-0.27397283911705017
1761334268298600700,1.4586005859375,0.2632827162742615,-0.33368489146232605,-0.38820457458496094
1761334268317302300,1.47730224609375,0.1899789422750473,-0.21700970828533173,-0.2813032269477844
1761334268336003600,1.496003662109375,0.12461641430854797,-0.11866047978401184,-0.09621120244264603
1761334268354705000,1.514704833984375,-0.047036588191986084,0.1513417512178421,0.10109812021255493
1761334268373406200,1.53340625,-0.258395791053772,0.47693267464637756,0.29962918162345886
1761334268392107500,1.552107421875,-0.34147340059280396,0.523969292640686,0.5775726437568665
1761334268410808800,1.570808837890625,-0.39828383922576904,0.45249807834625244,0.814588189125061
1761334268429510400,1.589510498046875,-0.49541133642196655,0.9497420191764832,0.8897245526313782
1761334268448211700,1.608211669921875,-0.3860665261745453,1.216689944267273,0.7382301092147827
1761334268466913000,1.6269130859375,-0.12461641430854797,0.3248273432254791,0.17806708812713623
1761334268485614300,1.6456142578125,0.2211330533027649,-0.9421061873435974,-0.6545416116714478
1761334268504315600,1.664315673828125,0.6120865345001221,-1.7582215070724487,-1.479209065437317
1761334268523017000,1.683016845703125,0.35613417625427246,-0.7472403645515442,-1.5543454885482788
1761334268541718500,1.701718505859375,0.17104214429855347,1.2221877574920654,-1.1872156858444214
1761334268560419800,1.720419921875,0.017715077847242355,2.31685733795166,-0.9324851036071777
1761334268579121200,1.73912109375,0.01588248461484909,2.1329870223999023,-0.25381430983543396
1761334268597822500,1.757822509765625,0.06719512492418289,1.5569416284561157,0.6038398146629333
1761334268616523800,1.776523681640625,-0.031154103577136993,1.167820692062378,1.0442733764648438
1761334268635225000,1.79522509765625,-0.11972949653863907,0.9436333775520325,0.8988875150680542
1761334268653926700,1.8139267578125,0.04581485688686371,0.6449204683303833,0.38270679116249084
1761334268672627700,1.832627685546875,0.28038692474365234,0.2551887631416321,-0.06933315098285675
1761334268691329300,1.851329345703125,0.46975502371788025,-0.08628465235233307,-0.1945604383945465
1761334268710030600,1.870030517578125,0.48013970255851746,-0.22250749170780182,-0.12553271651268005
1761334268728732000,1.88873193359375,0.3402516841888428,-0.10949750989675522,0.022907428443431854
1761334268747433200,1.90743310546875,0.2260199636220932,0.16416990756988525,0.03817904740571976
1761334268766134800,1.926134765625,0.15149445831775665,0.3627009689807892,-0.11026109009981155
1761334268784836000,1.944836181640625,0.02932151034474373,0.24663665890693665,-0.08155044913291931
1761334268803537400,1.963537353515625,-0.034208428114652634,0.12324196845293045,0.21960589289665222
1761334268822238700,1.98223876953125,-0.06414080411195755,0.12690715491771698,0.5305360555648804
1761334268840940000,2.00093994140625,-0.18692462146282196,0.3266599476337433,0.7345649003982544
1761334268859641300,2.019641357421875,-0.30604326725006104,0.8043562173843384,1.1713331937789917
1761334268878343000,2.038343017578125,-0.3384190797805786,1.0370956659317017,1.4401136636734009
1761334268897044000,2.0570439453125,-0.0873536616563797,0.7713695168495178,0.7870992422103882
1761334268915745300,2.075745361328125,0.11606431007385254,-0.13454297184944153,-0.47006043791770935
1761334268934446800,2.09444677734375,0.3805687427520752,-1.8620685338974,-1.840230107307434
1761334268953148200,2.113148193359375,0.8362739086151123,-2.4888157844543457,-1.7986913919448853
1761334268971849500,2.131849365234375,0.7061597108840942,-1.089935541152954,-0.3399462401866913
1761334268990550800,2.15055078125,0.5259546041488647,-0.3379609286785126,0.30085089802742004
1761334269009252000,2.169252197265625,0.2419024556875229,-0.0795651376247406,-0.016798781231045723
1761334269027953400,2.187953369140625,-0.05925388261675835,0.4189005196094513,-0.4987711012363434
1761334269046655000,2.206655029296875,0.004886918235570192,1.004719853401184,-0.23487751185894012
1761334269065356300,2.225356201171875,0.16798780858516693,1.021213173866272,0.4718930423259735
1761334269084057600,2.2440576171875,0.14172062277793884,0.23686282336711884,0.7229584455490112
1761334269102759000,2.262759033203125,0.1185077652335167,-0.6708822250366211,0.43401941657066345
1761334269121460200,2.281460205078125,0.3084867000579834,-0.9647082090377808,-0.024740023538470268
1761334269140161500,2.30016162109375,0.5253437161445618,-0.7631227970123291,-0.3179551064968109
1761334269158863000,2.318863037109375,0.554665207862854,-0.5358811020851135,-0.3191768527030945
1761334269177564400,2.337564453125,0.36774060130119324,-0.5713112950325012,-0.3087921440601349
1761334269196265700,2.356265625,0.18325942754745483,-0.5731438994407654,-0.3533852696418762
1761334269214967000,2.374967041015625,0.10384701192378998,-0.2280052751302719,-0.3271180987358093
1761334269233668400,2.39366845703125,0.07391463965177536,0.13240493834018707,-0.22266021370887756
1761334269252369700,2.41236962890625,0.04520399495959282,0.145843967795372,0.14813470840454102
1761334269271071200,2.4310712890625,-0.09346231073141098,0.1611155867576599,0.7382301092147827
1761334269289772500,2.4497724609375,-0.24434591829776764,1.0041090250015259,1.497534990310669
1761334269308473900,2.468473876953125,-0.10567960888147354,1.566104531288147,1.6117666959762573
1761334269327175200,2.487175048828125,0.08979712426662445,0.7078395485877991,0.7938187718391418
1761334269345876500,2.50587646484375,0.328645259141922,-1.1045962572097778,-0.2306014597415924
1761334269364577800,2.524577880859375,0.720820426940918,-2.2139267921447754,-1.2122611999511719
1761334269383279000,2.543279052734375,0.6524035930633545,-0.9866993427276611,-0.9728021621704102
1761334269401980400,2.56198046875,0.3481929302215576,0.6968439817428589,-0.27030766010284424
1761334269420682000,2.580681884765625,0.18203771114349365,1.0358740091323853,0.003970621153712273
1761334269439383300,2.59938330078125,0.01893680728971958,0.7890845537185669,0.07299833744764328
1761334269458084600,2.618084716796875,-0.0977383628487587,0.6278162598609924,0.09071341902017593
1761334269476786000,2.636785888671875,-0.02626718580722809,0.7267763614654541,0.2263254076242447
1761334269495487200,2.6554873046875,-0.06108647957444191,0.8110756874084473,0.20922118425369263
1761334269514188500,2.6741884765625,-0.1533270627260208,0.6137663722038269,-0.06872228533029556
1761334269532890000,2.69289013671875,-0.02871064469218254,0.2857320010662079,-0.35766133666038513
1761334269551591400,2.71159130859375,0.26389357447624207,-0.0032070400193333626,-0.43951719999313354
1761334269570292700,2.730292724609375,0.41355544328689575,-0.3251327872276306,-0.3808741867542267
1761334269588994000,2.748994140625,0.3995055556297302,-0.6458367705345154,-0.2574795186519623
1761334269607695400,2.7676953125,0.337808221578598,-0.687986433506012,-0.09315688163042068
1761334269626396700,2.786396728515625,0.2510654330253601,-0.32330018281936646,-0.060781046748161316
1761334269645098000,2.805097900390625,0.16798780858516693,0.18677189946174622,-0.14996729791164398
1761334269663799600,2.823799560546875,0.06108647957444191,0.5765036344528198,-0.07055488228797913
1761334269682500600,2.84250048828125,-0.06902772188186646,0.5484038591384888,0.281914085149765
1761334269701202200,2.8612021484375,-0.1795942485332489,0.5667297840118408,0.6447677612304688
1761334269719903500,2.879903564453125,-0.11056652665138245,0.6272054314613342,0.4834994673728943
1761334269738604800,2.898604736328125,0.0720820426940918,0.2759581506252289,0.06627883017063141
1761334269757306000,2.91730615234375,0.3585776388645172,-0.7686206102371216,-0.499381959438324
1761334269776007400,2.93600732421875,0.6114756464958191,-1.7179044485092163,-0.9404263496398926
1761334269794708700,2.954708740234375,0.3170388340950012,-0.8681915402412415,-0.3094030022621155
1761334269813410300,2.973410400390625,0.08368847519159317,0.21426081657409668,0.17684535682201385
1761334269832111600,2.992111572265625,0.06108647957444191,0.5477929711341858,0.47555822134017944
1761334269850813000,3.01081298828125,-0.10629047453403473,0.5392408967018127,0.8659008145332336
1761334269869514200,3.02951416015625,-0.3243691921234131,0.5807796716690063,0.9214895367622375
1761334269888215600,3.048215576171875,-0.38179048895835876,0.7554870247840881,0.5635227560997009
1761334269906916900,3.066916748046875,-0.28954991698265076,0.7951932549476624,0.17195843160152435
1761334269925618400,3.085618408203125,-0.16004657745361328,0.4744892120361328,-0.07360920310020447
1761334269944319700,3.10431982421875,-0.04520399495959282,-0.0691804364323616,-0.19700388610363007
1761334269963020800,3.123020751953125,0.0873536616563797,-0.44730573892593384,-0.291687935590744
1761334269981722400,3.141722412109375,0.2254091054201126,-0.5920807123184204,-0.3900371491909027
1761334270000423700,3.160423583984375,0.24556763470172882,-0.5975784659385681,-0.49999281764030457
1761334270019125000,3.179125,0.1594357043504715,-0.4405862092971802,-0.5604684352874756
1761334270037826300,3.197826416015625,0.0873536616563797,-0.19074252247810364,-0.5164861679077148
1761334270056527600,3.216527587890625,0.12950333952903748,0.047494735568761826,-0.3796524703502655
1761334270075229000,3.23522900390625,0.10018182545900345,0.016340631991624832,-0.025350889191031456
1761334270093930500,3.253930419921875,-0.018325943499803543,0.010842849500477314,0.6246092319488525
1761334270112631800,3.2726318359375,-0.19242240488529205,0.2551887631416321,1.038164734840393
1761334270131333000,3.2913330078125,-0.11239911615848541,0.8208495378494263,0.7272345423698425
1761334270150034400,3.310034423828125,0.1698204129934311,0.5600103139877319,0.10720676928758621
1761334270168735700,3.32873583984375,0.3078758418560028,-0.9524909257888794,-0.5146535634994507
1761334270187437000,3.34743701171875,0.3237583339214325,-2.137568473815918,-0.926376461982727
1761334270206138600,3.366138671875,0.3659079968929291,-1.389870047569275,-0.37720900774002075
1761334270224840000,3.38483984375,0.2816086709499359,-0.17974695563316345,0.19211697578430176
1761334270243541200,3.403541259765625,-0.026878049597144127,0.3669770061969757,0.3894262909889221
1761334270262242600,3.42224267578125,-0.37812530994415283,0.5911644101142883,0.4932733178138733
1761334270280943900,3.44094384765625,-0.6725621223449707,0.7884737253189087,0.4059196412563324
1761334270299645200,3.459645263671875,-0.7067705392837524,0.9216422438621521,0.2617555558681488
1761334270318346500,3.478346435546875,-0.5864301919937134,0.8599448800086975,0.24892739951610565
1761334270337047800,3.4970478515625,-0.5247328281402588,0.5435169339179993,0.324063777923584
1761334270355749400,3.515749267578125,-0.43860089778900146,0.08414662629365921,0.3124573230743408
1761334270374450700,3.53445068359375,-0.2809978127479553,-0.10644318908452988,0.23854269087314606
1761334270393152000,3.553152099609375,0.011606430634856224,-0.09911280870437622,0.12980876863002777
1761334270411853300,3.571853271484375,0.24556763470172882,0.05238165333867073,0.13469567894935608
1761334270430554600,3.5905546875,0.3029889166355133,0.2808450758457184,0.18845178186893463
1761334270449256000,3.609255859375,0.30543237924575806,0.5422952175140381,0.21166464686393738
1761334270467957500,3.62795751953125,0.25534147024154663,0.5728384256362915,0.15546508133411407
1761334270486658800,3.646658935546875,0.18203771114349365,0.28328853845596313,-0.03390299528837204
1761334270505360100,3.665360107421875,0.1380554437637329,-0.08872810751199722,-0.032070402055978775
1761334270524061400,3.6840615234375,-0.017104214057326317,-0.356286883354187,0.22266021370887756
1761334270542762800,3.7027626953125,0.036651886999607086,-0.11927134543657303,0.24404047429561615
1761334270561464000,3.721464111328125,0.24862197041511536,0.2643517255783081,-0.23915356397628784
1761334270580165400,3.740165283203125,0.5681042671203613,-0.5377137064933777,-1.1071923971176147
1761334270598866700,3.75886669921875,0.6872228980064392,-1.0600031614303589,-0.8634573817253113
1761334270617568000,3.777568115234375,0.7531962990760803,-0.5578722357749939,0.17806708812713623
1761334270636269600,3.79626953125,0.5858193039894104,0.024892739951610565,0.39675667881965637
1761334270654971000,3.814970947265625,0.21319180727005005,0.5508472919464111,0.09498947113752365
1761334270673672200,3.833672119140625,-0.18753549456596375,0.8666644096374512,-0.05711585655808449
1761334270692373500,3.85237353515625,-0.1484401375055313,0.9943351149559021,0.07971785217523575
1761334270711074800,3.87107470703125,0.14599667489528656,0.9882264733314514,0.43890634179115295
1761334270729776000,3.889776123046875,0.3689623177051544,0.4586067199707031,0.5849030017852783
1761334270748477700,3.908477783203125,0.45875945687294006,-0.191964253783226,0.3943132162094116
1761334270767179000,3.927178955078125,0.5338957905769348,-0.5297724604606628,0.06811141967773438
1761334270785880300,3.94588037109375,0.685390293598175,-0.49861836433410645,-0.2306014597415924
1761334270804581600,3.96458154296875,0.7562506198883057,-0.2903134822845459,-0.3179551064968109
1761334270823283000,3.983282958984375,0.6811142563819885,-0.18952079117298126,-0.21410810947418213
1761334270841984300,4.001984375,0.4831940531730652,-0.1418733447790146,-0.13469567894935608
1761334270860685600,4.020685546875,0.25350889563560486,0.009621120058000088,-0.18600831925868988
1761334270879387000,4.039386962890625,0.05925388261675835,0.4079049527645111,-0.013133592903614044
1761334270898088200,4.058088134765625,-0.04276053607463837,0.9130901098251343,0.36132651567459106
1761334270916789800,4.076789794921875,-0.12522727251052856,1.2484549283981323,0.6924152374267578
1761334270935491000,4.095490966796875,-0.28588470816612244,0.9204205274581909,0.42791077494621277
1761334270954192400,4.1141923828125,-0.3042106628417969,0.37430739402770996,-0.4205803871154785
1761334270972893700,4.132893798828125,0.1496618688106537,-0.9427170753479004,-1.7314962148666382
1761334270991595000,4.151594970703125,0.7648026943206787,-1.529758095741272,-1.4309507608413696
1761334271010296300,4.17029638671875,0.6994401812553406,-0.6611084342002869,0.8457422852516174
1761334271028998000,4.188997802734375,0.38240134716033936,-0.15347976982593536,1.7412700653076172
1761334271047699000,4.207698974609375,0.2211330533027649,0.29794928431510925,1.109635829925537
1761334271066400500,4.226400390625,-0.0824667438864708,0.7958040833473206,0.47433650493621826
1761334271085101800,4.245101806640625,-0.23762640357017517,1.1000148057937622,0.23548837006092072
1761334271103803100,4.26380322265625,-0.1594357043504715,1.1238384246826172,0.26542073488235474
1761334271122504400,4.28250439453125,-0.04459312930703163,0.7768672704696655,0.36193737387657166
1761334271141205800,4.301205810546875,0.04214967042207718,0.24785839021205902,0.2837466895580292
1761334271159907000,4.319906982421875,0.18753549456596375,-0.1052214577794075,0.026572618633508682
1761334271178608600,4.338608642578125,0.3964512348175049,-0.20357069373130798,-0.2574795186519623
1761334271197310000,4.35731005859375,0.5106829404830933,-0.15409064292907715,-0.3601047992706299
1761334271216011300,4.37601123046875,0.5222893953323364,-0.11499529331922531,-0.30573782324790955
1761334271234712600,4.394712646484375,0.47952884435653687,-0.008093958720564842,-0.21410810947418213
1761334271253414000,4.413413818359375,0.35124725103378296,0.1256854236125946,-0.12736530601978302
1761334271272115200,4.432115234375,0.14110976457595825,0.5331322550773621,0.13713914155960083
1761334271290816500,4.45081640625,-0.015271619893610477,0.8177952170372009,0.3399462401866913
1761334271309517800,4.469517822265625,-0.1795942485332489,1.1085668802261353,0.31612253189086914
1761334271328219100,4.48821923828125,-0.18814635276794434,1.3034327030181885,0.01435532234609127
1761334271346920700,4.506920654296875,-0.017715077847242355,0.6553052067756653,-0.40775224566459656
1761334271365622000,4.5256220703125,0.31520622968673706,-0.8510873317718506,-1.028390884399414
1761334271384323300,4.5443232421875,0.5247328281402588,-1.3306162357330322,-0.6667588949203491
1761334271403024600,4.563024658203125,0.2919933497905731,-0.4405862092971802,0.4975493550300598
1761334271421726000,4.581725830078125,-0.010384701192378998,0.16478078067302704,0.6062833070755005
1761334271440427300,4.60042724609375,-0.19181154668331146,0.310166597366333,0.18417572975158691
1761334271459128800,4.61912890625,-0.45387253165245056,0.25579962134361267,0.11514800786972046
1761334271477830100,4.637830078125,-0.5583304166793823,0.2649625837802887,0.1847866028547287
1761334271496531500,4.656531494140625,-0.48502662777900696,0.2234237939119339,0.31062474846839905
1761334271515232800,4.675232666015625,-0.44959646463394165,-0.05451968312263489,0.2935205399990082
1761334271533934000,4.69393408203125,-0.4557051360607147,-0.347123920917511,0.032070402055978775
1761334271552635400,4.712635498046875,-0.3494146466255188,-0.39049530029296875,-0.33139413595199585
1761334271571336700,4.731336669921875,-0.10079269111156464,-0.40515607595443726,-0.5616901516914368
1761334271590038000,4.7500380859375,0.08491020649671555,-0.5059487819671631,-0.5684096813201904
1761334271608739300,4.7687392578125,0.1594357043504715,-0.513279139995575,-0.4871646761894226
1761334271627441000,4.78744091796875,0.18753549456596375,-0.3929387629032135,-0.4615083336830139
1761334271646142200,4.80614208984375,0.09468404203653336,-0.030695954337716103,-0.4156934916973114
1761334271664843500,4.824843505859375,-0.01588248461484909,0.21426081657409668,-0.29474225640296936
1761334271683544800,4.843544921875,-0.09346231073141098,0.2643517255783081,-0.0204639695584774
1761334271702246100,4.86224609375,-0.19669845700263977,0.4757109582424164,0.29474225640296936
1761334271720947500,4.880947509765625,-0.35124725103378296,0.7451022863388062,0.29962918162345886
1761334271739648800,4.899648681640625,-0.4575377106666565,0.9082031846046448,-0.07788526266813278
1761334271758350000,4.91835009765625,-0.2926042377948761,0.11713331937789917,-0.8555161356925964
1761334271777051600,4.9370517578125,-0.0360410213470459,-1.215773582458496,-1.2702933549880981
1761334271795753000,4.9557529296875,0.07513637095689774,-0.7686206102371216,0.14202606678009033
1761334271814454300,4.974454345703125,-0.11484257876873016,0.11591159552335739,1.2519673109054565
1761334271833155600,4.993155517578125,-0.32009315490722656,0.3926333487033844,1.0705405473709106
1761334271851857000,5.01185693359375,-0.4263836145401001,0.25152358412742615,0.8341358304023743
1761334271870558200,5.03055810546875,-0.5253437161445618,0.2130390852689743,0.9544762372970581
1761334271889259800,5.049259765625,-0.5222893953323364,0.2637408673763275,0.9483675956726074
1761334271907961000,5.067961181640625,-0.526565432548523,0.2906189262866974,0.7559451460838318
1761334271926662400,5.086662353515625,-0.5656607747077942,0.07559451460838318,0.37781986594200134
1761334271945363700,5.10536376953125,-0.5155698657035828,-0.18463388085365295,-0.06200277432799339
1761334271964065000,5.12406494140625,-0.35674503445625305,-0.3416261374950409,-0.4358520209789276
1761334271982766300,5.142766357421875,-0.11911863088607788,-0.5633700489997864,-0.6618719696998596
1761334272001467600,5.161467529296875,0.046425722539424896,-0.8119919896125793,-0.6979129910469055
1761334272020169000,5.1801689453125,0.0977383628487587,-0.9879210591316223,-0.664926290512085
1761334272038870500,5.19887060546875,0.10690133273601532,-0.9005674123764038,-0.6710349321365356
1761334272057571800,5.21757177734375,0.034208428114652634,-0.5743656158447266,-0.7870992422103882
1761334272076273200,5.236273193359375,-0.007330377586185932,-0.3379609286785126,-0.9147700071334839
1761334272094974500,5.254974365234375,-0.07391463965177536,-0.2805396616458893,-0.7822123765945435
1761334272113675800,5.27367578125,-0.4159989058971405,-0.08261945843696594,-0.2733619809150696
1761334272132377000,5.292377197265625,-0.5992583632469177,-0.1259908676147461,-0.281914085149765
1761334272151078400,5.311078369140625,-0.3689623177051544,-0.3000873327255249,-0.6740893125534058
1761334272169779700,5.32977978515625,-0.28954991698265076,-1.9909610748291016,-1.3643665313720703
1761334272188481000,5.34848095703125,-0.8454368710517883,-1.788153886795044,-1.0687079429626465
1761334272207182600,5.3671826171875,-0.8631519079208374,0.41034841537475586,-0.3087921440601349
1761334272225884000,5.3858837890625,-0.8918625712394714,1.172096848487854,-0.1750127524137497
1761334272244585200,5.404585205078125,-0.9841031432151794,0.6864593029022217,-0.05833758786320686
1761334272263286500,5.42328662109375,-0.813060998916626,-0.04108065739274025,0.3692677617073059
1761334272281987800,5.44198779296875,-0.5534434914588928,-0.39965829253196716,1.1523964405059814
1761334272300689200,5.460689208984375,-0.5687150955200195,-0.1766926348209381,1.3808598518371582
1761334272319390500,5.479390380859375,-0.4819723069667816,0.10369429737329483,0.712573766708374
1761334272338091800,5.498091796875,-0.25961753726005554,-0.020311253145337105,-0.008857538923621178
1761334272356793000,5.51679296875,-0.03237583488225937,-0.2487746775150299,-0.2629773020744324
1761334272375494700,5.53549462890625,0.23762640357017517,-0.40088000893592834,-0.20677772164344788
1761334272394196000,5.554196044921875,0.30604326725006104,-0.4754055142402649,-0.2006690800189972
1761334272412897300,5.572897216796875,0.19792018830776215,-0.471129447221756,-0.3197877109050751
1761334272431598600,5.5915986328125,0.1331685185432434,-0.41126471757888794,-0.46028661727905273
1761334272450300000,5.6102998046875,-0.010384701192378998,-0.21578797698020935,-0.46395179629325867
1761334272469001200,5.629001220703125,-0.143553227186203,0.018173227086663246,-0.4004218578338623
1761334272487702500,5.64770263671875,-0.13500112295150757,-0.0154243353754282,-0.210442915558815
1761334272506403800,5.66640380859375,-0.07330377399921417,0.008399390615522861,0.04734202101826668
1761334272525105400,5.68510546875,-0.1380554437637329,0.23747368156909943,0.04917461425065994
1761334272543806700,5.703806640625,-0.28954991698265076,0.26129740476608276,-0.48472121357917786
1761334272562508000,5.722508056640625,-0.1539379209280014,-0.6727148294448853,-1.3564252853393555
1761334272581209300,5.741209228515625,-0.1844811588525772,-1.5187625885009766,-1.9330816268920898
1761334272599910700,5.75991064453125,-0.5809323787689209,-0.3306305706501007,-1.4388920068740845
1761334272618612000,5.778612060546875,-0.6908880472183228,0.8294016718864441,-0.8946114778518677
1761334272637313500,5.7973134765625,-0.8344413042068481,1.0639737844467163,-0.05100720748305321
1761334272656014600,5.8160146484375,-0.8081740736961365,0.5936078429222107,1.0344995260238647
1761334272674716000,5.8347158203125,-0.7195987105369568,-0.0850629210472107,1.7883065938949585
1761334272693417500,5.85341748046875,-0.7373138070106506,-0.17608177661895752,1.7486004829406738
1761334272712118800,5.872118896484375,-0.8093958497047424,0.1049160286784172,0.9630283117294312
1761334272730820000,5.890820068359375,-0.7055488228797913,0.1153007298707962,0.17562362551689148
1761334272749521400,5.909521484375,-0.46608981490135193,-0.31230461597442627,-0.1383608728647232
1761334272768222700,5.92822265625,-0.17165300250053406,-0.771064043045044,-0.0974329337477684
1761334272786924000,5.946924072265625,-0.09407317638397217,-1.1088722944259644,-0.24953825771808624
1761334272805625600,5.96562548828125,-0.13133592903614044,-1.057559609413147,-0.6411026120185852
1761334272824326700,5.98432666015625,-0.1233946830034256,-0.74540776014328,-0.9691369533538818
1761334272843028200,6.0030283203125,-0.08857539296150208,-0.4534143805503845,-0.898276686668396
1761334272861729500,6.0217294921875,-0.14294235408306122,-0.439364492893219,-0.5256491303443909
1761334272880430800,6.040430908203125,-0.24434591829776764,-0.6079631447792053,-0.19700388610363007
1761334272899132200,6.059132080078125,-0.33047783374786377,-0.5542070865631104,-0.004581485874950886
1761334272917833500,6.07783349609375,-0.5290089249610901,-0.2182314395904541,0.08032871782779694
1761334272936534800,6.09653466796875,-0.6273581385612488,0.32360562682151794,-0.06627883017063141
1761334272955236400,6.115236328125,-0.36712974309921265,-0.23044873774051666,-0.8414662480354309
1761334272973937400,6.1339375,-0.39889469742774963,-1.2713623046875,-0.9447023868560791
1761334272992639000,6.152638916015625,-0.6487383842468262,-1.482110619544983,-0.805425226688385
1761334273011340300,6.17134033203125,-0.5143481492996216,0.07620538026094437,-0.24342961609363556
1761334273030041600,6.19004150390625,-0.6426297426223755,1.0163263082504272,0.30085089802742004
1761334273048743000,6.208742919921875,-0.739757239818573,0.6913462281227112,0.6997455954551697
1761334273067444200,6.2274443359375,-0.758694052696228,0.12385283410549164,1.1084141731262207
1761334273086145500,6.2461455078125,-0.8759800791740417,0.3065013885498047,1.135903000831604
1761334273104846800,6.264846923828125,-0.8924734592437744,0.476321816444397,0.6056724190711975
1761334273123548400,6.28354833984375,-0.7434224486351013,0.2545779049396515,0.12614357471466064
1761334273142249700,6.302249755859375,-0.5821541547775269,-0.07345648854970932,0.032681263983249664
1761334273160951000,6.320950927734375,-0.41294458508491516,-0.2280052751302719,0.057726722210645676
1761334273179652400,6.33965234375,-0.04886918142437935,-0.1766926348209381,-0.12614357471466064
1761334273198353700,6.358353759765625,0.2254091054201126,-0.2390008419752121,-0.3998109996318817
1761334273217055000,6.377054931640625,0.2626718580722809,-0.3202458620071411,-0.5445859432220459
1761334273235756300,6.39575634765625,0.22479823231697083,-0.2811505198478699,-0.499381959438324
1761334273254457600,6.41445751953125,0.2364046722650528,-0.0435241162776947,-0.2764163017272949
1761334273273159200,6.4331591796875,0.24740023910999298,0.2234237939119339,-0.013744457624852657
1761334273291860500,6.451860595703125,0.18142683804035187,0.14706569910049438,0.15302163362503052
1761334273310561500,6.4705615234375,0.036651886999607086,-0.12660172581672668,0.36254823207855225
1761334273329263000,6.48926318359375,-0.0054977829568088055,0.14767655730247498,0.8158099055290222
1761334273347964400,6.50796435546875,-0.0922405794262886,0.734106719493866,0.8756746649742126
1761334273366665700,6.526665771484375,-0.09957095980644226,0.2545779049396515,0.15179990231990814
1761334273385367000,6.545366943359375,0.004276053514331579,-0.7851139307022095,-0.5610793232917786
1761334273404068400,6.564068359375,-0.03787361457943916,-1.466839075088501,-1.3949097394943237
1761334273422769700,6.582769775390625,-0.08613193035125732,0.24785839021205902,-1.0558797121047974
1761334273441471200,6.60147119140625,0.053145237267017365,1.136055827140808,-0.5488619804382324
1761334273460172300,6.62017236328125,-0.08552107214927673,0.7371610999107361,0.09376774728298187
1761334273478873900,6.638873779296875,-0.18875721096992493,-0.12171480804681778,0.8170316219329834
1761334273497575200,6.6575751953125,-0.19792018830776215,-0.28664830327033997,1.0228930711746216
1761334273516276500,6.6762763671875,-0.2510654330253601,0.14278964698314667,0.6667588949203491
1761334273534977800,6.694977783203125,-0.27427828311920166,0.39629852771759033,0.2813032269477844
1761334273553679000,6.71367919921875,-0.2968802750110626,0.187382772564888,0.10965022444725037
1761334273572380400,6.73238037109375,-0.14538581669330597,-0.23105959594249725,0.10170898586511612
1761334273591081700,6.751081787109375,0.0922405794262886,-0.4143190383911133,0.0925460159778595
1761334273609783000,6.769782958984375,0.19792018830776215,-0.449138343334198,-0.010690134018659592
1761334273628484400,6.788484375,0.1588248461484909,-0.3868301212787628,-0.21288637816905975
1761334273647186000,6.80718603515625,0.08429934084415436,-0.20906847715377808,-0.36254823207855225
1761334273665887200,6.82588720703125,0.07880155742168427,0.019394956529140472,-0.23854269087314606
1761334273684588500,6.844588623046875,0.023212861269712448,0.268627792596817,0.1279761642217636
1761334273703289900,6.863289794921875,-0.08002328872680664,0.12263110280036926,0.41813695430755615
1761334273721991200,6.8819912109375,-0.10567960888147354,-0.3165806829929352,0.48594292998313904
1761334273740692500,6.9006923828125,-0.2419024556875229,-0.03802633285522461,0.6154462695121765
1761334273759393800,6.919393798828125,-0.27550002932548523,0.4433351159095764,0.16096286475658417
1761334273778095000,6.93809521484375,-0.29077163338661194,0.01695149764418602,-0.6404917240142822
1761334273796796700,6.956796630859375,-0.3750709891319275,-0.7429642677307129,-1.2898409366607666
1761334273815498000,6.975498046875,-0.12278381735086441,-0.6281217336654663,-1.2690715789794922
1761334273834199300,6.99419921875,0.1545487940311432,0.29184064269065857,-0.24709481000900269
1761334273852900600,7.012900634765625,-0.05558869615197182,0.3926333487033844,0.8298597931861877
1761334273871602000,7.031601806640625,-0.2632827162742615,-0.036193739622831345,1.6435316801071167
1761334273890303200,7.05030322265625,-0.32620179653167725,-0.11866047978401184,1.7760893106460571
1761334273909004500,7.069004638671875,-0.38301220536231995,0.27229297161102295,1.2550216913223267
1761334273927705900,7.087705810546875,-0.379347026348114,0.43050694465637207,0.6557633280754089
1761334273946407200,7.1064072265625,-0.3396408259868622,0.2136499583721161,0.3759872615337372
1761334273965108700,7.125108642578125,-0.31031930446624756,-0.09239330142736435,0.26419901847839355
1761334273983809800,7.143809814453125,-0.2809978127479553,-0.19624030590057373,0.19089524447917938
1761334274002511400,7.162511474609375,-0.2779434621334076,-0.2860374450683594,-0.05833758786320686
1761334274021212700,7.181212646484375,-0.3029889166355133,-0.2848156988620758,-0.5464185476303101
1761334274039914000,7.1999140625,-0.24312418699264526,-0.1357647031545639,-0.776103675365448
1761334274058615300,7.218615234375,-0.12278381735086441,-0.004428769461810589,-0.5885682106018066
1761334274077316600,7.237316650390625,-0.08307760953903198,0.0487164668738842,-0.08399390429258347
1761334274096018000,7.256017822265625,-0.12950333952903748,0.002901607658714056,0.4224129915237427
1761334274114719200,7.27471923828125,-0.16310089826583862,-0.1663079410791397,0.6740893125534058
1761334274133420500,7.293420654296875,-0.2315177470445633,-0.162031888961792,0.5067123174667358
1761334274152121900,7.312121826171875,-0.45020735263824463,0.4738783538341522,0.39370235800743103
1761334274170823400,7.330823486328125,-0.5589412450790405,0.3761399984359741,0.10965022444725037
1761334274189524700,7.349524658203125,-0.05497783049941063,-0.9543235301971436,-0.5946768522262573
1761334274208226000,7.36822607421875,0.27000224590301514,-2.2029311656951904,-1.4413354396820068
1761334274226927400,7.38692724609375,0.043982263654470444,-0.7619010806083679,-0.7492256760597229
1761334274245628700,7.405628662109375,-0.1997527778148651,0.4292852282524109,0.14691297709941864
1761334274264330000,7.424330078125,-0.3481929302215576,0.48731738328933716,0.6038398146629333
1761334274283031300,7.44303125,-0.370184063911438,0.4793761372566223,0.8634573817253113
1761334274301732600,7.461732666015625,-0.40317076444625854,0.6626355648040771,0.8958331942558289
1761334274320434200,7.48043408203125,-0.46547895669937134,0.6962331533432007,0.6643154621124268
1761334274339135500,7.499135498046875,-0.5430588126182556,0.5477929711341858,0.29413139820098877
1761334274357836500,7.51783642578125,-0.4459312856197357,0.2631300091743469,-0.11331541836261749
1761334274376538000,7.5365380859375,-0.19853104650974274,-0.06062832847237587,-0.47983428835868835
1761334274395239400,7.555239501953125,0.06108647957444191,-0.2842048406600952,-0.731510579586029
1761334274413940700,7.573940673828125,0.3640754222869873,-0.3324631452560425,-0.8176425099372864
1761334274432642000,7.59264208984375,0.5760455131530762,-0.30375251173973083,-0.6685914993286133
1761334274451343400,7.61134326171875,0.6707295179367065,-0.27320927381515503,-0.40225446224212646
1761334274470044700,7.630044677734375,0.5222893953323364,-0.16569706797599792,-0.2525925934314728
1761334274488746000,7.64874609375,0.2309068888425827,0.09819651395082474,-0.3796524703502655
1761334274507447300,7.667447265625,0.09285144507884979,0.12263110280036926,-0.5427533388137817
1761334274526148600,7.686148681640625,0.039706211537122726,0.11285726726055145,-0.20738859474658966
1761334274544850000,7.704849853515625,-0.16676609218120575,0.5661189556121826,0.5513054728507996
1761334274563551500,7.723551513671875,-0.37812530994415283,0.06582067906856537,0.6233875155448914
1761334274582252800,7.742252685546875,-0.3298669755458832,-0.7215840220451355,0.23548837006092072
1761334274600954000,7.7609541015625,-0.11362084746360779,-1.0056360960006714,-0.2861901521682739
1761334274619655400,7.779655517578125,0.23396120965480804,-1.1638500690460205,-1.2153154611587524
1761334274638356700,7.798356689453125,0.3750709891319275,-0.0001527161948615685,-1.2959495782852173
1761334274657058000,7.81705810546875,0.07452550530433655,0.7506000995635986,-0.5763509273529053
1761334274675759400,7.83575927734375,-0.08613193035125732,0.3352120518684387,0.10537417232990265
1761334274694460700,7.854460693359375,-0.20891575515270233,-0.21639885008335114,0.7278453707695007
1761334274713162000,7.873161865234375,-0.38789913058280945,-0.1870773434638977,1.036942958831787
1761334274731863300,7.89186328125,-0.3555232882499695,0.1519526094198227,0.8921679854393005
1761334274750564900,7.91056494140625,-0.1692095398902893,0.2887863218784332,0.39858928322792053
1761334274769266200,7.92926611328125,-0.06108647957444191,0.20570871233940125,-0.05345066636800766
1761334274787967500,7.947967529296875,0.010995565913617611,0.040775224566459656,-0.21349723637104034
1761334274806668800,7.966668701171875,0.19608759880065918,-0.16447533667087555,-0.22754712402820587
1761334274825370000,7.9853701171875,0.3121519088745117,-0.397825688123703,-0.31001389026641846
1761334274844071400,8.004071533203126,0.24495677649974823,-0.42103853821754456,-0.3533852696418762
1761334274862772700,8.022772705078125,0.16187916696071625,-0.16569706797599792,-0.28008151054382324
1761334274881474000,8.04147412109375,0.07941242307424545,0.2692386507987976,-0.1805105358362198
1761334274900175400,8.06017529296875,-0.027488915249705315,0.44089165329933167,-0.10903936624526978
1761334274918876700,8.078876708984374,-0.12217295914888382,0.383470356464386,0.0772743970155716
1761334274937578000,8.097577880859374,-0.24984370172023773,0.34926193952560425,0.24465134739875793
1761334274956279600,8.116279541015626,-0.3280344009399414,0.425009161233902,0.33567020297050476
1761334274974980900,8.13498095703125,-0.2211330533027649,0.14950916171073914,-0.011300998739898205
1761334274993682200,8.15368212890625,-0.023823726922273636,-0.38499751687049866,-0.5690205693244934
1761334275012383500,8.172383544921875,0.26511532068252563,-1.1100940704345703,-1.2873975038528442
1761334275031084800,8.191084716796874,0.41905322670936584,-0.5291616320610046,-1.702785611152649
1761334275049786000,8.2097861328125,0.401949018239975,1.0584759712219238,-0.5592467188835144
1761334275068487400,8.2284873046875,0.3488037884235382,0.8697187304496765,0.6698132157325745
1761334275087188700,8.247188720703125,0.0769689604640007,-0.04169152304530144,1.4871503114700317
1761334275105890000,8.26589013671875,-0.21319180727005005,-0.27809619903564453,1.570227861404419
1761334275124591400,8.28459130859375,-0.28038692474365234,0.31322091817855835,0.7254019379615784
1761334275143292700,8.303292724609374,-0.21380266547203064,0.8629992008209229,-0.15546508133411407
1761334275161994200,8.321994140625,-0.11239911615848541,0.7420479655265808,-0.3894262909889221
1761334275180695600,8.340695556640625,-0.0054977829568088055,0.24113887548446655,-0.19944734871387482
1761334275199396900,8.35939697265625,0.10506874322891235,-0.14859285950660706,-0.012522728182375431
1761334275218098200,8.37809814453125,0.21380266547203064,-0.2438877671957016,-0.14202606678009033
1761334275236799500,8.396799560546874,0.39400777220726013,-0.25060728192329407,-0.4413498044013977
1761334275255500800,8.415500732421876,0.4557051360607147,-0.20357069373130798,-0.6050615906715393
1761334275274202000,8.4342021484375,0.379347026348114,-0.16936226189136505,-0.499381959438324
1761334275292903400,8.4529033203125,0.4404335021972656,-0.029474224895238876,-0.16523891687393188
1761334275311604700,8.471604736328125,0.4770853817462921,0.06582067906856537,0.31062474846839905
1761334275330306000,8.49030615234375,0.40255987644195557,0.007788525894284248,0.702799916267395
1761334275349007400,8.50900732421875,0.3090975880622864,0.01511890348047018,0.48533207178115845
1761334275367709000,8.527708984375,0.1948658674955368,0.5227475166320801,-0.25381430983543396
1761334275386410000,8.546409912109375,0.15577052533626556,0.33887723088264465,-1.0424407720565796
1761334275405111600,8.565111572265625,0.27977606654167175,-0.9604321718215942,-1.7883065938949585
1761334275423812900,8.583812744140625,0.3952295184135437,-0.5145008563995361,-1.7351614236831665
1761334275442514200,8.60251416015625,0.5858193039894104,0.8471167087554932,-0.4059196412563324
1761334275461215500,8.621215576171876,0.3836230933666229,0.20021092891693115,0.6447677612304688
1761334275479916800,8.639916748046875,-0.02260199747979641,-0.4802924394607544,1.0607666969299316
1761334275498618000,8.6586181640625,-0.25961753726005554,-0.033139415085315704,0.9966259002685547
1761334275517319400,8.6773193359375,-0.35185810923576355,0.505032479763031,0.5989528894424438
1761334275536020700,8.696020751953125,-0.4520399272441864,0.6791289448738098,0.22693626582622528
1761334275554722000,8.71472216796875,-0.4685332775115967,0.5282453298568726,0.1701258420944214
1761334275573423400,8.73342333984375,-0.40255987644195557,0.2582430839538574,0.31123560667037964
1761334275592124700,8.752124755859375,-0.29565855860710144,0.07192932814359665,0.34177884459495544
1761334275610826200,8.770826171875,-0.21197007596492767,0.1305723488330841,0.19211697578430176
1761334275629527600,8.789527587890625,-0.22907429933547974,0.2136499583721161,-0.15729768574237823
1761334275648228600,8.808228515625,-0.19853104650974274,0.23136503994464874,-0.3796524703502655
1761334275666930200,8.82693017578125,-0.03787361457943916,0.1928805559873581,-0.32589635252952576
1761334275685631500,8.845631591796876,0.18570289015769958,0.18066325783729553,-0.18417572975158691
1761334275704332800,8.864332763671875,0.29443681240081787,0.20570871233940125,-0.04550942778587341
1761334275723034000,8.8830341796875,0.287106454372406,0.4592176079750061,0.1334739476442337
1761334275741735400,8.9017353515625,0.34208428859710693,0.6406444311141968,0.35216355323791504
1761334275760436700,8.920436767578124,0.3903425931930542,0.3113883137702942,0.35155269503593445
1761334275779138000,8.939137939453126,0.29077163338661194,-0.40515607595443726,0.032681263983249664
1761334275797839400,8.95783935546875,0.19242240488529205,-0.7319687008857727,-0.476779967546463
1761334275816541000,8.976541015625,0.2577849328517914,-0.1363755613565445,-0.7235693335533142
1761334275835242000,8.995241943359375,0.3860665261745453,0.874605655670166,-0.46944957971572876
1761334275853943300,9.013943359375,0.401949018239975,1.032208800315857,-0.13041962683200836
1761334275872644900,9.032644775390626,0.185092031955719,0.485484778881073,0.04245510324835777
1761334275891346200,9.05134619140625,-0.04886918142437935,-0.11438442766666412,0.025961752980947495
1761334275910047500,9.070047607421875,-0.10751219838857651,-0.24816381931304932,-0.11514800786972046
1761334275928748800,9.088748779296875,-0.04153880476951599,0.09330959618091583,-0.22937972843647003
1761334275947450000,9.1074501953125,0.06475166976451874,0.3889681398868561,-0.11881320178508759
1761334275966151400,9.1261513671875,0.10506874322891235,0.31383177638053894,0.09621120244264603
1761334275984852700,9.144852783203126,0.14049890637397766,-0.06001746281981468,0.3753764033317566
1761334276003554000,9.163553955078125,0.1740964651107788,-0.585972011089325,0.7486147880554199
1761334276022255400,9.18225537109375,0.34636032581329346,-0.7289143800735474,1.0235038995742798
1761334276040956700,9.200956787109375,0.5186241865158081,-0.7026472091674805,1.1475094556808472
1761334276059658000,9.219657958984374,0.7696896195411682,-0.36361727118492126,0.6704241037368774
1761334276078359300,9.238359375,0.9896009564399719,-0.191964253783226,0.13103049993515015
1761334276097060600,9.257060546875,0.9773836731910706,0.021227551624178886,-0.21899501979351044
1761334276115762200,9.27576220703125,0.7165443897247314,0.1824958473443985,-0.4407389461994171
1761334276134463500,9.29446337890625,0.5027416944503784,0.02672533318400383,-0.5256491303443909
1761334276153164800,9.313164794921875,0.5406153202056885,-0.16508620977401733,-0.4932733178138733
1761334276171866000,9.3318662109375,0.5100721120834351,-0.36544984579086304,-0.37354379892349243
1761334276190567400,9.3505673828125,0.43310311436653137,-0.6012436747550964,-0.09865466505289078
1761334276209268700,9.369268798828125,0.1490510106086731,-0.4289797842502594,0.032681263983249664
1761334276227970000,9.387969970703125,0.06536252796649933,0.4500546157360077,-0.46883872151374817
1761334276246671400,9.40667138671875,0.13683371245861053,0.6583595275878906,-0.731510579586029
1761334276265372700,9.42537255859375,0.2632827162742615,0.34193155169487,-0.4523453712463379
1761334276284074000,9.444073974609376,0.45326167345046997,-0.05635227635502815,0.10842850059270859
1761334276302775300,9.462775390625,0.49113526940345764,-0.2945895493030548,0.4169152081012726
1761334276321476600,9.4814765625,0.43310311436653137,-0.3312414288520813,0.4780016839504242
1761334276340178000,9.500177978515625,0.3689623177051544,-0.31413722038269043,0.48594292998313904
1761334276358879200,9.518879150390624,0.28038692474365234,-0.22434009611606598,0.4725039005279541
1761334276377580800,9.537580810546874,0.21380266547203064,-0.20601414144039154,0.4150826036930084
1761334276396281900,9.55628173828125,0.1490510106086731,-0.13759729266166687,0.37843072414398193
1761334276414983400,9.5749833984375,0.0818558782339096,-0.1107192412018776,0.36743515729904175
1761334276433684700,9.593684814453125,0.047036588191986084,-0.38072147965431213,0.5378664135932922
1761334276452386000,9.612385986328125,0.053756099194288254,-0.9280562996864319,0.6527090072631836
1761334276471087400,9.63108740234375,0.10567960888147354,-0.6464476585388184,0.15241076052188873
1761334276489788700,9.64978857421875,0.01954767294228077,-0.29153522849082947,-0.383928507566452
1761334276508490000,9.668489990234375,-0.10690133273601532,-0.09605848789215088,-0.42363473773002625
