time,seconds_elapsed,z,y,x
1761315249382240500,0.064240478515625,-0.88427734375,-0.4225616455078125,-0.0017242431640625
1761315249392287500,0.07428759765625,-0.898284912109375,-0.4299163818359375,0.02142333984375
1761315249402335700,0.084335693359375,-0.918243408203125,-0.4276580810546875,0.041748046875
1761315249412382700,0.0943828125,-0.9367218017578125,-0.4178924560546875,0.056060791015625
1761315249422429400,0.104429443359375,-0.9510040283203125,-0.4107513427734375,0.0683746337890625
1761315249432476400,0.114476318359375,-0.964019775390625,-0.4112548828125,0.0728607177734375
1761315249442524700,0.124524658203125,-0.9808502197265625,-0.4074859619140625,0.0708465576171875
1761315249452571600,0.134571533203125,-0.9895477294921875,-0.3985137939453125,0.063140869140625
1761315249462618600,0.14461865234375,-0.989166259765625,-0.3974609375,0.054168701171875
1761315249472666600,0.15466650390625,-0.9776763916015625,-0.406097412109375,0.0516357421875
1761315249482713600,0.164713623046875,-0.9889373779296875,-0.40692138671875,0.0428009033203125
1761315249492760600,0.174760498046875,-1.0123748779296875,-0.4003143310546875,0.031341552734375
1761315249502807600,0.1848076171875,-1.010162353515625,-0.401641845703125,0.0304412841796875
1761315249512855600,0.19485546875,-0.993927001953125,-0.404937744140625,0.0269775390625
1761315249522902500,0.204902587890625,-0.9951934814453125,-0.3984375,0.020782470703125
1761315249532949800,0.21494970703125,-1.0013885498046875,-0.38677978515625,0.0122833251953125
1761315249542997500,0.22499755859375,-0.997344970703125,-0.37994384765625,0.0061187744140625
1761315249553044500,0.23504443359375,-0.99444580078125,-0.3779449462890625,-0.0013885498046875
1761315249563091500,0.245091552734375,-0.9880828857421875,-0.3748779296875,-0.008209228515625
1761315249573138400,0.255138427734375,-0.971038818359375,-0.372039794921875,-0.0129547119140625
1761315249583186700,0.265186767578125,-0.9684600830078125,-0.3684844970703125,-0.0193634033203125
1761315249593233700,0.275233642578125,-0.9759368896484375,-0.360565185546875,-0.0304107666015625
1761315249603280600,0.28528076171875,-0.965362548828125,-0.347503662109375,-0.045196533203125
1761315249613328600,0.29532861328125,-0.9402618408203125,-0.3357696533203125,-0.0512847900390625
1761315249623375600,0.305375732421875,-0.922576904296875,-0.3271484375,-0.0506439208984375
1761315249633422600,0.315422607421875,-0.92156982421875,-0.3260040283203125,-0.0449371337890625
1761315249643469600,0.325469482421875,-0.921142578125,-0.330596923828125,-0.0361328125
1761315249653517600,0.335517578125,-0.9156646728515625,-0.3232879638671875,-0.02655029296875
1761315249663564800,0.345564697265625,-0.923095703125,-0.3136444091796875,-0.01983642578125
1761315249673611500,0.355611572265625,-0.9153594970703125,-0.3173828125,-0.0090789794921875
1761315249683659500,0.365659423828125,-0.9011383056640625,-0.323516845703125,0.0120849609375
1761315249693706500,0.37570654296875,-0.8951416015625,-0.324951171875,0.0288543701171875
1761315249703753500,0.38575341796875,-0.889801025390625,-0.3301239013671875,0.0397186279296875
1761315249713800700,0.39580078125,-0.880859375,-0.33740234375,0.049713134765625
1761315249723848700,0.4058486328125,-0.8697967529296875,-0.3482513427734375,0.0597381591796875
1761315249733895400,0.4158955078125,-0.8646087646484375,-0.36187744140625,0.0668182373046875
1761315249743942400,0.4259423828125,-0.8705902099609375,-0.371917724609375,0.0715179443359375
1761315249753990700,0.43599072265625,-0.87396240234375,-0.3873138427734375,0.075775146484375
1761315249764037600,0.44603759765625,-0.875274658203125,-0.402801513671875,0.0764923095703125
1761315249774084600,0.456084716796875,-0.8844757080078125,-0.4040374755859375,0.0728912353515625
1761315249784131600,0.466131591796875,-0.902496337890625,-0.3968353271484375,0.0610504150390625
1761315249794179600,0.4761796875,-0.9117584228515625,-0.3954925537109375,0.04949951171875
1761315249804226600,0.4862265625,-0.9187164306640625,-0.393890380859375,0.029144287109375
1761315249814273500,0.4962734375,-0.923980712890625,-0.3865814208984375,0.0019378662109375
1761315249824321500,0.506321533203125,-0.9117431640625,-0.372955322265625,-0.0263671875
1761315249834368500,0.516368408203125,-0.8952789306640625,-0.3637847900390625,-0.045013427734375
1761315249844415700,0.526415771484375,-0.8786468505859375,-0.361328125,-0.0521240234375
1761315249854462700,0.536462646484375,-0.8670501708984375,-0.353271484375,-0.0457305908203125
1761315249864510500,0.546510498046875,-0.88079833984375,-0.3399658203125,-0.0186004638671875
1761315249874557400,0.556557373046875,-0.880950927734375,-0.339019775390625,0.016693115234375
1761315249884604700,0.566604736328125,-0.8527679443359375,-0.3708953857421875,0.0583648681640625
1761315249894652700,0.576652587890625,-0.7983551025390625,-0.4021148681640625,0.0849609375
1761315249904699600,0.58669970703125,-0.7425384521484375,-0.4176025390625,0.09356689453125
1761315249914746600,0.59674658203125,-0.708282470703125,-0.444854736328125,0.09320068359375
1761315249924793600,0.606793701171875,-0.7318572998046875,-0.548797607421875,0.06097412109375
1761315249934841600,0.616841552734375,-0.76483154296875,-0.427154541015625,0.0929107666015625
1761315249944888600,0.626888671875,-0.660064697265625,-0.3307952880859375,0.09930419921875
1761315249954935600,0.636935546875,-0.7342681884765625,-0.3669586181640625,0.1166534423828125
1761315249964983800,0.64698388671875,-0.83642578125,-0.4229583740234375,0.1514892578125
1761315249975030800,0.65703076171875,-0.8235321044921875,-0.44891357421875,0.1721954345703125
1761315249985077500,0.667077392578125,-0.8099517822265625,-0.455780029296875,0.1806488037109375
1761315249995124500,0.67712451171875,-0.8471832275390625,-0.461334228515625,0.175994873046875
1761315250005172500,0.68717236328125,-0.88775634765625,-0.448455810546875,0.1698455810546875
1761315250015219700,0.6972197265625,-0.895965576171875,-0.4182891845703125,0.16619873046875
1761315250025266700,0.7072666015625,-0.8772125244140625,-0.40191650390625,0.1577606201171875
1761315250035314400,0.717314453125,-0.8697509765625,-0.4044189453125,0.1312408447265625
1761315250045361400,0.727361328125,-0.8601837158203125,-0.41326904296875,0.097442626953125
1761315250055408400,0.737408447265625,-0.8184356689453125,-0.4290924072265625,0.07952880859375
1761315250065455600,0.74745556640625,-0.80279541015625,-0.464263916015625,0.0770111083984375
1761315250075503600,0.757503662109375,-0.810302734375,-0.49444580078125,0.09039306640625
1761315250085550600,0.767550537109375,-0.8191680908203125,-0.5236358642578125,0.087890625
1761315250095597600,0.77759765625,-0.8691864013671875,-0.5152740478515625,0.0704193115234375
1761315250105645600,0.7876455078125,-0.8975982666015625,-0.48468017578125,0.0601348876953125
1761315250115692500,0.797692626953125,-0.8842926025390625,-0.4552764892578125,0.0590057373046875
1761315250125739500,0.807739501953125,-0.8673553466796875,-0.4392242431640625,0.1047515869140625
1761315250135786500,0.817786376953125,-0.8800506591796875,-0.4942169189453125,0.236785888671875
1761315250145834800,0.827834716796875,-1.0166778564453125,-0.6182861328125,0.2730865478515625
1761315250155881700,0.8378818359375,-0.97308349609375,-0.66455078125,0.2510986328125
1761315250165928700,0.8479287109375,-0.985504150390625,-0.5881195068359375,0.2009735107421875
1761315250175976400,0.8579765625,-1.0369873046875,-0.512237548828125,0.16595458984375
1761315250186023400,0.8680234375,-1.0330963134765625,-0.5011444091796875,0.1500396728515625
1761315250196070700,0.878070556640625,-1.019439697265625,-0.4972991943359375,0.1546478271484375
1761315250206118700,0.88811865234375,-1.0052642822265625,-0.488250732421875,0.1471405029296875
1761315250216165600,0.89816552734375,-1.010528564453125,-0.4958648681640625,0.130218505859375
1761315250226212600,0.908212646484375,-0.9810028076171875,-0.4976348876953125,0.0838165283203125
1761315250236259600,0.918259521484375,-0.9123687744140625,-0.48931884765625,0.0483245849609375
1761315250246307600,0.9283076171875,-0.9076385498046875,-0.474151611328125,0.022186279296875
1761315250256354600,0.9383544921875,-0.9199981689453125,-0.4612274169921875,0.0003662109375
1761315250266401500,0.948401611328125,-0.912353515625,-0.4391021728515625,-0.0186920166015625
1761315250276449800,0.95844970703125,-0.9027099609375,-0.4136962890625,-0.0356597900390625
1761315250286496500,0.96849658203125,-0.8943328857421875,-0.393341064453125,-0.0455322265625
1761315250296543500,0.97854345703125,-0.874176025390625,-0.3818359375,-0.0462646484375
1761315250306590500,0.988590576171875,-0.838592529296875,-0.3720703125,-0.0377960205078125
1761315250316638500,0.998638427734375,-0.8302154541015625,-0.3589630126953125,-0.0321807861328125
1761315250326685700,1.008685791015625,-0.8387908935546875,-0.3482513427734375,-0.035614013671875
1761315250336732200,1.018732177734375,-0.8515472412109375,-0.332672119140625,-0.0539398193359375
1761315250346780400,1.028780517578125,-0.83233642578125,-0.3209075927734375,-0.06817626953125
1761315250356827100,1.0388271484375,-0.8212127685546875,-0.3124542236328125,-0.0642852783203125
1761315250366874000,1.0488740234375,-0.853729248046875,-0.3132171630859375,-0.0516815185546875
1761315250376921000,1.058921142578125,-0.8764495849609375,-0.33453369140625,-0.0290679931640625
1761315250386969000,1.068968994140625,-0.8919219970703125,-0.35748291015625,0.0065155029296875
1761315250397016300,1.079016357421875,-0.915130615234375,-0.374267578125,0.033660888671875
1761315250407063300,1.089063232421875,-0.928497314453125,-0.4097442626953125,0.0498504638671875
1761315250417111000,1.099111083984375,-0.910675048828125,-0.444610595703125,0.0552520751953125
1761315250427158000,1.109157958984375,-0.8723602294921875,-0.4406280517578125,0.0742340087890625
1761315250437205200,1.119205322265625,-0.7839508056640625,-0.4393768310546875,0.106353759765625
1761315250447252200,1.129252197265625,-0.8572540283203125,-0.4968414306640625,0.0762939453125
1761315250457300200,1.13930029296875,-0.944122314453125,-0.5014495849609375,0.022735595703125
1761315250467347200,1.14934716796875,-0.9405364990234375,-0.3806610107421875,-0.0027313232421875
1761315250477394200,1.159394287109375,-0.9249725341796875,-0.283721923828125,-0.0244598388671875
1761315250487442200,1.169442138671875,-0.920074462890625,-0.2605438232421875,-0.0753631591796875
1761315250497489200,1.1794892578125,-0.916046142578125,-0.2490692138671875,-0.1183319091796875
1761315250507536100,1.1895361328125,-0.8444671630859375,-0.26934814453125,-0.108123779296875
1761315250517584400,1.19958447265625,-0.8541107177734375,-0.3024749755859375,-0.0770721435546875
1761315250527631400,1.20963134765625,-0.8864288330078125,-0.322296142578125,-0.032379150390625
1761315250537678300,1.21967822265625,-0.8779449462890625,-0.328765869140625,0.0196685791015625
1761315250547725300,1.229725341796875,-0.864166259765625,-0.3370361328125,0.0752105712890625
1761315250557773000,1.23977294921875,-0.87176513671875,-0.3625030517578125,0.123260498046875
1761315250567820300,1.2498203125,-0.8862457275390625,-0.4042510986328125,0.153778076171875
1761315250577867300,1.2598671875,-0.888702392578125,-0.4327545166015625,0.1620941162109375
1761315250587915300,1.269915283203125,-0.88629150390625,-0.4375457763671875,0.1487274169921875
1761315250597962200,1.279962158203125,-0.8880767822265625,-0.42291259765625,0.121978759765625
1761315250608009200,1.29000927734375,-0.8919830322265625,-0.39990234375,0.0876312255859375
1761315250618056200,1.30005615234375,-0.884185791015625,-0.3835601806640625,0.0553741455078125
1761315250628104200,1.310104248046875,-0.8761749267578125,-0.377471923828125,0.0325164794921875
1761315250638151200,1.320151123046875,-0.87451171875,-0.376678466796875,0.0199127197265625
1761315250648198100,1.3301982421875,-0.8833465576171875,-0.3797607421875,0.0203399658203125
1761315250658246400,1.340246337890625,-0.916961669921875,-0.382476806640625,0.026153564453125
1761315250668293000,1.350293212890625,-0.9406890869140625,-0.3829193115234375,0.02923583984375
1761315250678340000,1.360340087890625,-0.9463958740234375,-0.377288818359375,0.03216552734375
1761315250688388000,1.37038818359375,-0.959869384765625,-0.3692626953125,0.0360870361328125
1761315250698435300,1.380435302734375,-0.9808502197265625,-0.3592376708984375,0.033782958984375
1761315250708482300,1.390482421875,-0.9808349609375,-0.3492584228515625,0.0319061279296875
1761315250718529300,1.400529296875,-0.975433349609375,-0.3393707275390625,0.034515380859375
1761315250728577000,1.410576904296875,-0.99005126953125,-0.3334808349609375,0.0385894775390625
1761315250738624000,1.4206240234375,-1.01214599609375,-0.3347625732421875,0.0355987548828125
1761315250748671200,1.430671142578125,-1.0203094482421875,-0.3394622802734375,0.0376739501953125
1761315250758719200,1.44071923828125,-1.0285186767578125,-0.3377532958984375,0.0387725830078125
1761315250768766200,1.45076611328125,-1.02484130859375,-0.333587646484375,0.0305023193359375
1761315250778813200,1.460813232421875,-1.012237548828125,-0.3373260498046875,0.0229949951171875
1761315250788860400,1.4708603515625,-1.01409912109375,-0.34954833984375,0.026214599609375
1761315250798908200,1.480908203125,-1.0084075927734375,-0.3620758056640625,0.0254974365234375
1761315250808955100,1.490955078125,-0.99493408203125,-0.36834716796875,0.02362060546875
1761315250819002000,1.501002197265625,-0.985198974609375,-0.375274658203125,0.02349853515625
1761315250829050400,1.51105029296875,-0.977996826171875,-0.395233154296875,0.0298309326171875
1761315250839097300,1.521097412109375,-0.975341796875,-0.416473388671875,0.035369873046875
1761315250849144300,1.531144287109375,-0.9752349853515625,-0.4110107421875,0.032470703125
1761315250859192000,1.541192138671875,-0.967742919921875,-0.4021453857421875,0.028106689453125
1761315250869239000,1.551239013671875,-0.9689483642578125,-0.4102783203125,0.02996826171875
1761315250879286300,1.561286376953125,-0.9754791259765625,-0.4281158447265625,0.03363037109375
1761315250889333200,1.571333251953125,-0.96954345703125,-0.438323974609375,0.0358123779296875
1761315250899381200,1.58138134765625,-0.9775543212890625,-0.4327239990234375,0.027069091796875
1761315250909428200,1.59142822265625,-0.992919921875,-0.4222412109375,0.0143280029296875
1761315250919475200,1.60147509765625,-0.9997100830078125,-0.40997314453125,-0.0084381103515625
1761315250929523200,1.611523193359375,-0.9890594482421875,-0.38714599609375,-0.032470703125
1761315250939570200,1.621570068359375,-0.9686431884765625,-0.3548583984375,-0.0494537353515625
1761315250949617200,1.6316171875,-0.95458984375,-0.3262176513671875,-0.05450439453125
1761315250959664000,1.6416640625,-0.955291748046875,-0.314483642578125,-0.047637939453125
1761315250969712400,1.65171240234375,-0.9471893310546875,-0.309600830078125,-0.04168701171875
1761315250979759000,1.661759033203125,-0.9208221435546875,-0.3023834228515625,-0.035247802734375
1761315250989806000,1.67180615234375,-0.892425537109375,-0.2936553955078125,-0.02984619140625
1761315250999854300,1.681854248046875,-0.8710174560546875,-0.292449951171875,-0.0177154541015625
1761315251009901300,1.6919013671875,-0.856170654296875,-0.3024749755859375,-0.0014190673828125
1761315251019948300,1.7019482421875,-0.8429107666015625,-0.3131866455078125,0.0106964111328125
1761315251029996000,1.71199609375,-0.835968017578125,-0.318634033203125,0.0195159912109375
1761315251040043000,1.72204296875,-0.83856201171875,-0.320343017578125,0.0313568115234375
1761315251050090200,1.73209033203125,-0.831268310546875,-0.32049560546875,0.0358734130859375
1761315251060137200,1.74213720703125,-0.8120574951171875,-0.321014404296875,0.0358123779296875
1761315251070185200,1.752185302734375,-0.8032989501953125,-0.3224334716796875,0.039703369140625
1761315251080232200,1.762232177734375,-0.80078125,-0.3267059326171875,0.049957275390625
1761315251090279200,1.772279052734375,-0.808837890625,-0.3397674560546875,0.05963134765625
1761315251100327200,1.7823271484375,-0.8287200927734375,-0.3623504638671875,0.0688629150390625
1761315251110374100,1.7923740234375,-0.8499908447265625,-0.3880462646484375,0.08197021484375
1761315251120421000,1.802421142578125,-0.8599395751953125,-0.4050140380859375,0.0844879150390625
1761315251130469400,1.812469482421875,-0.8692626953125,-0.4051666259765625,0.0733489990234375
1761315251140516400,1.822516357421875,-0.8786468505859375,-0.3935394287109375,0.0531158447265625
1761315251150563300,1.832563232421875,-0.8885955810546875,-0.3819732666015625,0.027679443359375
1761315251160610300,1.8426103515625,-0.910736083984375,-0.3714447021484375,-0.0001678466796875
1761315251170658000,1.852657958984375,-0.94610595703125,-0.35723876953125,-0.0339508056640625
1761315251180705300,1.862705322265625,-0.9631195068359375,-0.3443603515625,-0.061248779296875
1761315251190752300,1.872752197265625,-0.9810028076171875,-0.337982177734375,-0.0751190185546875
1761315251200800300,1.88280029296875,-1.0076904296875,-0.3402862548828125,-0.0806884765625
1761315251210847200,1.89284716796875,-1.0171051025390625,-0.3343963623046875,-0.0873565673828125
1761315251220894200,1.902894287109375,-1.01092529296875,-0.3111114501953125,-0.0938568115234375
1761315251230941200,1.912941162109375,-0.995880126953125,-0.2866973876953125,-0.0947723388671875
1761315251240989200,1.9229892578125,-0.9745635986328125,-0.2786102294921875,-0.085784912109375
1761315251251036200,1.9330361328125,-0.9492645263671875,-0.29052734375,-0.0600128173828125
1761315251261083100,1.943083251953125,-0.9359893798828125,-0.3084716796875,-0.0279998779296875
1761315251271131400,1.95313134765625,-0.923004150390625,-0.32843017578125,-0.00518798828125
1761315251281178000,1.96317822265625,-0.8922576904296875,-0.350128173828125,0.0121917724609375
1761315251291225000,1.97322509765625,-0.860809326171875,-0.371978759765625,0.0228271484375
1761315251301273000,1.983273193359375,-0.838287353515625,-0.39398193359375,0.0243682861328125
1761315251311320300,1.9933203125,-0.8079833984375,-0.4107208251953125,0.0175323486328125
1761315251321367300,2.0033671875,-0.775970458984375,-0.4204864501953125,0.0132293701171875
1761315251331414300,2.013414306640625,-0.7769622802734375,-0.427520751953125,0.0157470703125
1761315251341462000,2.0234619140625,-0.77935791015625,-0.4357757568359375,0.0099945068359375
1761315251351508700,2.0335087890625,-0.7625885009765625,-0.441864013671875,0.0074310302734375
1761315251361555700,2.0435556640625,-0.7593536376953125,-0.4426116943359375,0.0097808837890625
1761315251371604000,2.05360400390625,-0.776397705078125,-0.4424591064453125,0.01318359375
1761315251381651000,2.06365087890625,-0.7971954345703125,-0.4477081298828125,0.019744873046875
1761315251391698000,2.073697998046875,-0.8146820068359375,-0.4518280029296875,0.02923583984375
1761315251401746000,2.083745849609375,-0.846343994140625,-0.452362060546875,0.0347137451171875
1761315251411793000,2.09379296875,-0.8723297119140625,-0.4437408447265625,0.02667236328125
1761315251421840000,2.10383984375,-0.8829803466796875,-0.428924560546875,0.0131072998046875
1761315251431886800,2.113886962890625,-0.901275634765625,-0.415771484375,0.001678466796875
1761315251441934800,2.123934814453125,-0.9320526123046875,-0.4130401611328125,-0.015380859375
1761315251451982000,2.133982177734375,-0.9324798583984375,-0.4146575927734375,-0.0371246337890625
1761315251462029000,2.144029052734375,-0.9192657470703125,-0.4089813232421875,-0.054107666015625
1761315251472076800,2.154076904296875,-0.9244537353515625,-0.4023895263671875,-0.0612945556640625
1761315251482123800,2.164123779296875,-0.9309539794921875,-0.4052886962890625,-0.0640106201171875
1761315251492170800,2.174170654296875,-0.932220458984375,-0.41650390625,-0.06146240234375
1761315251502219000,2.184218994140625,-0.934417724609375,-0.421478271484375,-0.0621185302734375
1761315251512266000,2.194265869140625,-0.92724609375,-0.413970947265625,-0.0659942626953125
1761315251522313000,2.20431298828125,-0.9203338623046875,-0.4082183837890625,-0.06317138671875
1761315251532360000,2.21435986328125,-0.9185028076171875,-0.409393310546875,-0.0588836669921875
1761315251542408000,2.224407958984375,-0.9196319580078125,-0.4109649658203125,-0.0545806884765625
1761315251552455000,2.234454833984375,-0.9190216064453125,-0.4059295654296875,-0.0507049560546875
1761315251562502000,2.244501953125,-0.91900634765625,-0.40472412109375,-0.048919677734375
1761315251572550000,2.2545498046875,-0.9199676513671875,-0.4046478271484375,-0.050323486328125
1761315251582597000,2.26459716796875,-0.9213104248046875,-0.401641845703125,-0.0580596923828125
1761315251592644000,2.27464404296875,-0.929656982421875,-0.3940277099609375,-0.06707763671875
1761315251602691800,2.28469189453125,-0.9385986328125,-0.3878173828125,-0.0738677978515625
1761315251612738800,2.29473876953125,-0.944000244140625,-0.3809051513671875,-0.0805816650390625
1761315251622785800,2.304785888671875,-0.949249267578125,-0.37017822265625,-0.0829620361328125
1761315251632833000,2.3148330078125,-0.9566650390625,-0.3549041748046875,-0.0814361572265625
1761315251642881000,2.324881103515625,-0.9638214111328125,-0.337249755859375,-0.0782928466796875
1761315251652928000,2.334927978515625,-0.9609222412109375,-0.326629638671875,-0.0753326416015625
1761315251662974700,2.344974609375,-0.9365692138671875,-0.3356781005859375,-0.063629150390625
1761315251673023000,2.35502294921875,-0.9091949462890625,-0.3601837158203125,-0.034912109375
1761315251683070000,2.365070068359375,-0.91552734375,-0.3849945068359375,-0.00042724609375
1761315251693117000,2.375116943359375,-0.9515838623046875,-0.40185546875,0.029388427734375
1761315251703165000,2.3851650390625,-0.9746856689453125,-0.414276123046875,0.035308837890625
1761315251713212000,2.3952119140625,-0.9795074462890625,-0.420013427734375,0.0248565673828125
1761315251723259000,2.4052587890625,-1.0085296630859375,-0.3986663818359375,0.003265380859375
1761315251733305900,2.415305908203125,-1.055389404296875,-0.3457489013671875,-0.0390167236328125
1761315251743353900,2.425353759765625,-1.0881805419921875,-0.2941131591796875,-0.07916259765625
1761315251753400800,2.43540087890625,-1.088897705078125,-0.25897216796875,-0.1015777587890625
1761315251763448000,2.445447998046875,-1.057464599609375,-0.226715087890625,-0.105224609375
1761315251773495800,2.455495849609375,-1.0157470703125,-0.1845855712890625,-0.102935791015625
1761315251783542800,2.465542724609375,-0.9842376708984375,-0.15008544921875,-0.093994140625
1761315251793589800,2.47558984375,-0.9492034912109375,-0.136138916015625,-0.085113525390625
1761315251803638000,2.485637939453125,-0.89984130859375,-0.128662109375,-0.0710601806640625
1761315251813685000,2.49568505859375,-0.860809326171875,-0.1298065185546875,-0.050933837890625
1761315251823732000,2.50573193359375,-0.8462371826171875,-0.1578369140625,-0.03033447265625
1761315251833779000,2.515779052734375,-0.8598175048828125,-0.1836700439453125,0.0078125
1761315251843827000,2.525826904296875,-0.876556396484375,-0.1887359619140625,0.0375823974609375
1761315251853874000,2.5358740234375,-0.8907470703125,-0.1992645263671875,0.0471343994140625
1761315251863921000,2.5459208984375,-0.91070556640625,-0.218994140625,0.0555419921875
1761315251873969000,2.555968994140625,-0.9276885986328125,-0.22808837890625,0.0536651611328125
1761315251884015900,2.566015869140625,-0.9493865966796875,-0.2300567626953125,0.0484466552734375
1761315251894063000,2.57606298828125,-0.969573974609375,-0.2313232421875,0.041534423828125
1761315251904110800,2.58611083984375,-0.976593017578125,-0.2252349853515625,0.032196044921875
1761315251914157800,2.59615771484375,-0.979888916015625,-0.210296630859375,0.022064208984375
1761315251924204800,2.606204833984375,-0.997039794921875,-0.1885986328125,0.0154876708984375
1761315251934252000,2.616251953125,-1.0239105224609375,-0.1752471923828125,0.000457763671875
1761315251944300000,2.626300048828125,-1.0328826904296875,-0.1734161376953125,-0.02301025390625
1761315251954347000,2.636346923828125,-1.0290374755859375,-0.1739044189453125,-0.0457305908203125
1761315251964393700,2.646393798828125,-1.0329132080078125,-0.1717071533203125,-0.061492919921875
1761315251974442000,2.65644189453125,-1.038909912109375,-0.1526336669921875,-0.067138671875
1761315251984489000,2.666489013671875,-1.042633056640625,-0.125732421875,-0.056060791015625
1761315251994536000,2.676535888671875,-1.042449951171875,-0.1241455078125,-0.0487518310546875
1761315252004584000,2.686583984375,-1.025421142578125,-0.1471405029296875,-0.06988525390625
1761315252014631000,2.696630859375,-0.9859161376953125,-0.170654296875,-0.1063232421875
1761315252024678000,2.706677978515625,-0.9551544189453125,-0.20257568359375,-0.13226318359375
1761315252034724900,2.716724853515625,-0.94659423828125,-0.2144927978515625,-0.131622314453125
1761315252044772900,2.72677294921875,-0.95166015625,-0.206695556640625,-0.116363525390625
1761315252054819800,2.73681982421875,-0.962188720703125,-0.189544677734375,-0.102813720703125
1761315252064867000,2.7468671875,-0.9786376953125,-0.1790618896484375,-0.0934906005859375
1761315252074914800,2.756914794921875,-1.0144805908203125,-0.1741180419921875,-0.0865325927734375
1761315252084961800,2.7669619140625,-1.0397186279296875,-0.1719818115234375,-0.0915679931640625
1761315252095008800,2.7770087890625,-1.029541015625,-0.1745758056640625,-0.1115875244140625
1761315252105057000,2.78705712890625,-1.0257720947265625,-0.1827392578125,-0.1314239501953125
1761315252115104000,2.79710400390625,-1.0428619384765625,-0.1692047119140625,-0.1451873779296875
1761315252125151000,2.80715087890625,-1.0700225830078125,-0.1555938720703125,-0.1586456298828125
1761315252135198000,2.817197998046875,-1.0608673095703125,-0.1549530029296875,-0.172637939453125
1761315252145246000,2.827245849609375,-1.0218353271484375,-0.164947509765625,-0.170623779296875
1761315252155293000,2.83729296875,-0.9972991943359375,-0.1811065673828125,-0.160888671875
1761315252165340000,2.84733984375,-0.9977569580078125,-0.19097900390625,-0.1533203125
1761315252175388000,2.857387939453125,-1.013092041015625,-0.199432373046875,-0.1323699951171875
1761315252185435000,2.867434814453125,-1.0146636962890625,-0.19659423828125,-0.106658935546875
1761315252195482000,2.877482177734375,-1.00189208984375,-0.18194580078125,-0.0938262939453125
1761315252205529900,2.88752978515625,-0.976287841796875,-0.167755126953125,-0.0850830078125
1761315252215576800,2.897576904296875,-0.9453277587890625,-0.1565399169921875,-0.0679168701171875
1761315252225623800,2.907623779296875,-0.923187255859375,-0.1511993408203125,-0.0436553955078125
1761315252235670800,2.9176708984375,-0.9062042236328125,-0.1533660888671875,-0.0230560302734375
1761315252245719000,2.927718994140625,-0.9070892333984375,-0.164703369140625,-0.003448486328125
1761315252255766000,2.93776611328125,-0.925750732421875,-0.177947998046875,0.0149383544921875
1761315252265813000,2.94781298828125,-0.92578125,-0.1912689208984375,0.0204010009765625
1761315252275861000,2.957861083984375,-0.906036376953125,-0.200164794921875,0.0227203369140625
1761315252285908000,2.967907958984375,-0.861480712890625,-0.17755126953125,0.02911376953125
1761315252295955000,2.977954833984375,-0.867523193359375,-0.1829071044921875,0.032379150390625
1761315252306003000,2.9880029296875,-0.9458465576171875,-0.2430419921875,0.0297698974609375
1761315252316050000,2.9980498046875,-0.9934844970703125,-0.31671142578125,0.0511932373046875
1761315252326097000,3.008096923828125,-0.9449462890625,-0.3442230224609375,0.0689544677734375
1761315252336144400,3.018144287109375,-0.9092559814453125,-0.3657989501953125,0.06939697265625
1761315252346192600,3.028192626953125,-0.907562255859375,-0.3637237548828125,0.0473480224609375
1761315252356239600,3.038239501953125,-0.9109954833984375,-0.34820556640625,0.0224609375
1761315252366286600,3.04828662109375,-0.9160308837890625,-0.34210205078125,0.0165863037109375
1761315252376334300,3.058334228515625,-0.9359893798828125,-0.3469085693359375,0.0206451416015625
1761315252386381600,3.068381591796875,-0.95953369140625,-0.352264404296875,0.026275634765625
1761315252396428500,3.078428466796875,-0.9787139892578125,-0.345184326171875,0.0318603515625
1761315252406476500,3.0884765625,-0.9927215576171875,-0.329803466796875,0.037872314453125
1761315252416523500,3.0985234375,-1.0055694580078125,-0.316650390625,0.0491790771484375
1761315252426570800,3.10857080078125,-1.0170135498046875,-0.3144989013671875,0.0638885498046875
1761315252436618500,3.118618408203125,-1.018890380859375,-0.3099822998046875,0.0763397216796875
1761315252446665500,3.12866552734375,-1.008575439453125,-0.3041839599609375,0.0890045166015625
1761315252456712400,3.13871240234375,-0.9861907958984375,-0.318511962890625,0.1116485595703125
1761315252466759400,3.148759521484375,-0.97821044921875,-0.318023681640625,0.126983642578125
1761315252476807700,3.1588076171875,-0.9693756103515625,-0.312225341796875,0.1371612548828125
1761315252486854700,3.168854736328125,-0.95135498046875,-0.31591796875,0.159027099609375
1761315252496901600,3.178901611328125,-0.940185546875,-0.3306121826171875,0.185577392578125
1761315252506949400,3.188949462890625,-0.9343109130859375,-0.351470947265625,0.2088775634765625
1761315252516996600,3.19899658203125,-0.924957275390625,-0.37860107421875,0.231689453125
1761315252527043600,3.209043701171875,-0.914276123046875,-0.407379150390625,0.25628662109375
1761315252537091600,3.219091552734375,-0.921661376953125,-0.430755615234375,0.2781829833984375
1761315252547138600,3.229138671875,-0.9569244384765625,-0.4487762451171875,0.2867889404296875
1761315252557185500,3.239185546875,-0.980926513671875,-0.455810546875,0.2751922607421875
1761315252567232500,3.249232421875,-0.9857635498046875,-0.439208984375,0.2418975830078125
1761315252577280500,3.259280517578125,-0.9832611083984375,-0.401123046875,0.19354248046875
1761315252587327500,3.269327392578125,-0.9889068603515625,-0.36468505859375,0.153839111328125
1761315252597374500,3.27937451171875,-0.9866485595703125,-0.339447021484375,0.12103271484375
1761315252607422500,3.28942236328125,-0.982421875,-0.3172607421875,0.103118896484375
1761315252617469400,3.299469482421875,-0.9837646484375,-0.3058624267578125,0.0978546142578125
1761315252627516400,3.309516357421875,-0.971771240234375,-0.30706787109375,0.1067962646484375
1761315252637564700,3.319564697265625,-0.9659881591796875,-0.3106536865234375,0.12353515625
1761315252647611600,3.329611572265625,-0.9703826904296875,-0.314849853515625,0.134368896484375
1761315252657658600,3.33965869140625,-0.9645843505859375,-0.3193359375,0.14031982421875
1761315252667705600,3.34970556640625,-0.94561767578125,-0.3311767578125,0.1402130126953125
1761315252677753300,3.35975341796875,-0.9188995361328125,-0.3373565673828125,0.1219635009765625
1761315252687800600,3.369800537109375,-0.8993682861328125,-0.3278350830078125,0.0880584716796875
1761315252697847600,3.37984765625,-0.90850830078125,-0.318206787109375,0.0692901611328125
1761315252707895600,3.3898955078125,-0.9522705078125,-0.306640625,0.067840576171875
1761315252717942500,3.399942626953125,-0.993438720703125,-0.2729034423828125,0.062530517578125
1761315252727989500,3.409989501953125,-0.9993896484375,-0.221771240234375,0.0570831298828125
1761315252738037500,3.42003759765625,-0.985870361328125,-0.17694091796875,0.0593719482421875
1761315252748084500,3.43008447265625,-0.9672088623046875,-0.1745147705078125,0.0778045654296875
1761315252758131500,3.44013134765625,-0.9108123779296875,-0.2052154541015625,0.111083984375
1761315252768178400,3.450178466796875,-0.9200286865234375,-0.215545654296875,0.1527862548828125
1761315252778226700,3.460226806640625,-0.9617156982421875,-0.2227783203125,0.199310302734375
1761315252788273700,3.470273681640625,-0.9682159423828125,-0.2467803955078125,0.212493896484375
1761315252798320600,3.480320556640625,-0.9430389404296875,-0.2607269287109375,0.2047576904296875
1761315252808368400,3.490368408203125,-0.9332122802734375,-0.2588348388671875,0.1787567138671875
1761315252818415600,3.50041552734375,-0.921539306640625,-0.2532196044921875,0.1387176513671875
1761315252828462600,3.510462646484375,-0.914642333984375,-0.2489471435546875,0.0982818603515625
1761315252838510600,3.520510498046875,-0.9201507568359375,-0.240203857421875,0.066009521484375
1761315252848557600,3.5305576171875,-0.930877685546875,-0.226715087890625,0.0403900146484375
1761315252858604500,3.5406044921875,-0.943511962890625,-0.2241973876953125,0.0188140869140625
1761315252868651500,3.550651611328125,-0.9525604248046875,-0.2357177734375,0.0020751953125
1761315252878699500,3.560699462890625,-0.9546051025390625,-0.2455596923828125,-0.009796142578125
1761315252888746500,3.57074658203125,-0.9474639892578125,-0.2504730224609375,-0.024871826171875
1761315252898793500,3.58079345703125,-0.9334869384765625,-0.2529144287109375,-0.035614013671875
1761315252908841700,3.590841796875,-0.9197845458984375,-0.257049560546875,-0.0402984619140625
1761315252918888400,3.600888427734375,-0.907257080078125,-0.2673492431640625,-0.0364227294921875
1761315252928935400,3.610935302734375,-0.8982086181640625,-0.284698486328125,-0.0278472900390625
1761315252938983400,3.6209833984375,-0.893890380859375,-0.298553466796875,-0.0235443115234375
1761315252949030700,3.63103076171875,-0.887786865234375,-0.3030548095703125,-0.02294921875
1761315252959077600,3.64107763671875,-0.8768463134765625,-0.3077392578125,-0.0253753662109375
1761315252969124600,3.65112451171875,-0.86309814453125,-0.3184814453125,-0.027557373046875
1761315252979172400,3.66117236328125,-0.8540191650390625,-0.335205078125,-0.02520751953125
1761315252989219300,3.67121923828125,-0.860504150390625,-0.3542327880859375,-0.0189056396484375
1761315252999266600,3.6812666015625,-0.8580780029296875,-0.3597564697265625,-0.022552490234375
1761315253009314600,3.691314453125,-0.846771240234375,-0.353179931640625,-0.0272979736328125
1761315253019361500,3.701361572265625,-0.832122802734375,-0.346435546875,-0.0304412841796875
1761315253029408500,3.711408447265625,-0.8232421875,-0.3572998046875,-0.0242919921875
1761315253039456500,3.72145654296875,-0.82989501953125,-0.378814697265625,-0.0230255126953125
1761315253049503500,3.73150341796875,-0.8495330810546875,-0.39422607421875,-0.0205841064453125
1761315253059550500,3.741550537109375,-0.8708648681640625,-0.410064697265625,-0.01214599609375
1761315253069597400,3.751597412109375,-0.87548828125,-0.4302520751953125,-0.0045166015625
1761315253079645700,3.761645751953125,-0.889190673828125,-0.431671142578125,0.005157470703125
1761315253089692700,3.771692626953125,-0.8976287841796875,-0.4161834716796875,0.00665283203125
1761315253099739600,3.78173974609375,-0.8878021240234375,-0.3977813720703125,0.004547119140625
1761315253109787400,3.791787353515625,-0.8845672607421875,-0.3896026611328125,0.0097503662109375
1761315253119834400,3.80183447265625,-0.8896026611328125,-0.394927978515625,0.0154876708984375
1761315253129881600,3.811881591796875,-0.8985748291015625,-0.3984375,0.0149993896484375
1761315253139929600,3.8219296875,-0.9044952392578125,-0.3954315185546875,0.013580322265625
1761315253149976600,3.8319765625,-0.912017822265625,-0.39678955078125,0.01123046875
1761315253160023600,3.8420234375,-0.9216156005859375,-0.398834228515625,0.0049285888671875
1761315253170071600,3.852071533203125,-0.93450927734375,-0.3997650146484375,-0.001434326171875
1761315253180118500,3.862118408203125,-0.9510650634765625,-0.397491455078125,-0.0054473876953125
1761315253190165500,3.87216552734375,-0.9568634033203125,-0.3905181884765625,-0.009765625
1761315253200212500,3.88221240234375,-0.9622802734375,-0.3851318359375,-0.011566162109375
1761315253210260700,3.8922607421875,-0.96868896484375,-0.38641357421875,-0.009735107421875
1761315253220307700,3.9023076171875,-0.97479248046875,-0.3907470703125,-0.007080078125
1761315253230354400,3.9123544921875,-0.972412109375,-0.3951263427734375,-0.0100555419921875
1761315253240402400,3.92240234375,-0.96551513671875,-0.4014434814453125,-0.017333984375
1761315253250449700,3.93244970703125,-0.963134765625,-0.406463623046875,-0.029083251953125
1761315253260496600,3.94249658203125,-0.9662322998046875,-0.4089202880859375,-0.03631591796875
1761315253270544600,3.952544677734375,-0.9756927490234375,-0.41143798828125,-0.0410308837890625
1761315253280591400,3.96259130859375,-0.9800567626953125,-0.408172607421875,-0.047332763671875
1761315253290638300,3.972638427734375,-0.987701416015625,-0.40252685546875,-0.0528106689453125
1761315253300685600,3.982685546875,-1.0003204345703125,-0.4056243896484375,-0.0503692626953125
1761315253310733600,3.992733642578125,-1.0006561279296875,-0.4196929931640625,-0.036651611328125
1761315253320780500,4.002780517578125,-1.0054473876953125,-0.432098388671875,-0.02191162109375
1761315253330827500,4.01282763671875,-1.0285491943359375,-0.4311676025390625,-0.010833740234375
1761315253340875800,4.022875732421875,-1.04290771484375,-0.4257049560546875,-0.0089263916015625
1761315253350922800,4.0329228515625,-1.04150390625,-0.4268341064453125,-0.01177978515625
1761315253360969700,4.0429697265625,-1.0504302978515625,-0.41748046875,-0.0221099853515625
1761315253371017700,4.053017822265625,-1.071807861328125,-0.3909149169921875,-0.0444183349609375
1761315253381065000,4.06306494140625,-1.087921142578125,-0.3551483154296875,-0.0707855224609375
1761315253391112000,4.07311181640625,-1.088714599609375,-0.3215484619140625,-0.1001434326171875
1761315253401159000,4.083158935546875,-1.079681396484375,-0.2865753173828125,-0.12701416015625
1761315253411206700,4.09320654296875,-1.0597381591796875,-0.25201416015625,-0.159912109375
1761315253421253600,4.103253662109375,-1.028289794921875,-0.2199249267578125,-0.1830291748046875
1761315253431300900,4.11330078125,-0.9891510009765625,-0.195556640625,-0.1959075927734375
1761315253441348900,4.123348876953125,-0.9509429931640625,-0.1837615966796875,-0.2043914794921875
1761315253451395800,4.133395751953125,-0.920745849609375,-0.169158935546875,-0.1983489990234375
1761315253461442800,4.14344287109375,-0.897003173828125,-0.1538238525390625,-0.1814117431640625
1761315253471490800,4.15349072265625,-0.8758392333984375,-0.147308349609375,-0.1549224853515625
1761315253481537800,4.163537841796875,-0.8541412353515625,-0.14776611328125,-0.1183319091796875
1761315253491584800,4.173584716796875,-0.843505859375,-0.1521759033203125,-0.0828857421875
1761315253501631700,4.1836318359375,-0.8481903076171875,-0.16778564453125,-0.042510986328125
1761315253511680000,4.193679931640625,-0.845611572265625,-0.206024169921875,0.0028839111328125
1761315253521726700,4.203726806640625,-0.8559112548828125,-0.2424774169921875,0.029998779296875
1761315253531773700,4.213773681640625,-0.8720245361328125,-0.262176513671875,0.0406494140625
1761315253541821700,4.22382177734375,-0.873046875,-0.277435302734375,0.03033447265625
1761315253551868700,4.23386865234375,-0.8710479736328125,-0.2846832275390625,0.011138916015625
1761315253561916000,4.243916015625,-0.88189697265625,-0.281982421875,-0.0128021240234375
1761315253571964000,4.2539638671875,-0.8871917724609375,-0.27142333984375,-0.037994384765625
1761315253582010600,4.2640107421875,-0.893280029296875,-0.2602691650390625,-0.05810546875
1761315253592057600,4.2740576171875,-0.912933349609375,-0.25433349609375,-0.0830535888671875
1761315253602104800,4.284104736328125,-0.9221649169921875,-0.2510833740234375,-0.1043853759765625
1761315253612152800,4.29415283203125,-0.91961669921875,-0.2458648681640625,-0.1196746826171875
1761315253622199800,4.30419970703125,-0.9037933349609375,-0.2487030029296875,-0.1325836181640625
1761315253632246800,4.314246826171875,-0.873291015625,-0.262725830078125,-0.1426849365234375
1761315253642294800,4.324294677734375,-0.845977783203125,-0.2777862548828125,-0.1519622802734375
1761315253652341800,4.334341796875,-0.828033447265625,-0.2875213623046875,-0.1588134765625
1761315253662388700,4.344388671875,-0.8154296875,-0.2949981689453125,-0.1569976806640625
1761315253672436700,4.354436767578125,-0.807769775390625,-0.3037567138671875,-0.1433868408203125
1761315253682483700,4.364483642578125,-0.8117828369140625,-0.3189849853515625,-0.1207733154296875
1761315253692531000,4.374531005859375,-0.820159912109375,-0.3475189208984375,-0.09747314453125
1761315253702578000,4.384577880859375,-0.8199615478515625,-0.37884521484375,-0.072998046875
1761315253712625700,4.394625732421875,-0.818328857421875,-0.393218994140625,-0.051544189453125
1761315253722672600,4.404672607421875,-0.821197509765625,-0.402099609375,-0.0367279052734375
1761315253732719900,4.414719970703125,-0.8331298828125,-0.4195709228515625,-0.0247039794921875
1761315253742767900,4.424767822265625,-0.8415069580078125,-0.4343719482421875,-0.02227783203125
1761315253752814800,4.43481494140625,-0.8373565673828125,-0.434814453125,-0.0316619873046875
1761315253762861800,4.44486181640625,-0.838592529296875,-0.4265289306640625,-0.04119873046875
1761315253772909800,4.454909912109375,-0.8490142822265625,-0.4253692626953125,-0.049713134765625
1761315253782956800,4.464956787109375,-0.8640289306640625,-0.4295196533203125,-0.0572052001953125
1761315253793003800,4.475003662109375,-0.87548828125,-0.427703857421875,-0.0624237060546875
1761315253803050800,4.48505078125,-0.88873291015625,-0.4151153564453125,-0.0675506591796875
1761315253813099000,4.49509912109375,-0.905303955078125,-0.397369384765625,-0.069183349609375
1761315253823146000,4.50514599609375,-0.9211883544921875,-0.3817901611328125,-0.0660858154296875
1761315253833192700,4.515192626953125,-0.9299163818359375,-0.3759918212890625,-0.0554656982421875
1761315253843240700,4.52524072265625,-0.9403228759765625,-0.376678466796875,-0.03759765625
1761315253853287700,4.53528759765625,-0.9591827392578125,-0.3719329833984375,-0.0206451416015625
1761315253863335000,4.5453349609375,-0.972320556640625,-0.3594207763671875,-0.0066070556640625
1761315253873383000,4.5553828125,-0.9946136474609375,-0.35205078125,0.0050811767578125
1761315253883430000,4.565429931640625,-1.0136260986328125,-0.3468170166015625,0.0106201171875
1761315253893476600,4.5754765625,-1.021881103515625,-0.34063720703125,0.0094451904296875
1761315253903523600,4.585523681640625,-1.0303497314453125,-0.330810546875,-0.0013427734375
1761315253913571800,4.59557177734375,-1.027069091796875,-0.32232666015625,-0.0184326171875
1761315253923618800,4.605618896484375,-1.0110015869140625,-0.3234100341796875,-0.0196533203125
1761315253933665800,4.615665771484375,-1.0179290771484375,-0.315216064453125,-0.0194244384765625
1761315253943713800,4.6257138671875,-1.026123046875,-0.298248291015625,-0.018157958984375
1761315253953760800,4.6357607421875,-1.028167724609375,-0.3001708984375,-0.0133514404296875
1761315253963807700,4.645807861328125,-1.037353515625,-0.3057708740234375,-0.01055908203125
1761315253973855700,4.655855712890625,-1.055023193359375,-0.290130615234375,-0.0169219970703125
1761315253983902700,4.66590283203125,-1.087554931640625,-0.2602081298828125,-0.02972412109375
1761315253993950000,4.675949951171875,-1.1219940185546875,-0.24346923828125,-0.0510101318359375
1761315254003997000,4.685996826171875,-1.1273193359375,-0.2410125732421875,-0.0813446044921875
1761315254014044700,4.696044677734375,-1.1190643310546875,-0.23565673828125,-0.1048583984375
1761315254024091600,4.706091552734375,-1.11944580078125,-0.2270965576171875,-0.1198577880859375
1761315254034138600,4.716138671875,-1.1007537841796875,-0.21142578125,-0.1294403076171875
1761315254044187000,4.726186767578125,-1.0731658935546875,-0.19158935546875,-0.133056640625
1761315254054233900,4.73623388671875,-1.035064697265625,-0.1731109619140625,-0.1319427490234375
1761315254064280800,4.74628076171875,-0.971466064453125,-0.162750244140625,-0.111297607421875
1761315254074328800,4.756328857421875,-0.9042816162109375,-0.1682281494140625,-0.0746612548828125
1761315254084375800,4.766375732421875,-0.8629150390625,-0.190277099609375,-0.029876708984375
1761315254094422800,4.7764228515625,-0.838470458984375,-0.23046875,0.02215576171875
1761315254104469800,4.7864697265625,-0.81951904296875,-0.2776031494140625,0.0748291015625
1761315254114517800,4.796517822265625,-0.7962493896484375,-0.3232269287109375,0.1210174560546875
1761315254124565000,4.80656494140625,-0.783782958984375,-0.3669281005859375,0.159027099609375
1761315254134612000,4.816612060546875,-0.797088623046875,-0.402191162109375,0.1760406494140625
1761315254144659700,4.82665966796875,-0.812774658203125,-0.4241180419921875,0.18524169921875
1761315254154706700,4.836706787109375,-0.83453369140625,-0.4307403564453125,0.1840362548828125
1761315254164753700,4.846753662109375,-0.86505126953125,-0.43359375,0.1672210693359375
1761315254174802000,4.856802001953125,-0.8892974853515625,-0.430023193359375,0.142120361328125
1761315254184849000,4.866848876953125,-0.92083740234375,-0.409088134765625,0.1077728271484375
1761315254194896000,4.876895751953125,-0.95428466796875,-0.374755859375,0.0701904296875
1761315254204942600,4.886942626953125,-0.98699951171875,-0.33416748046875,0.0345306396484375
1761315254214990800,4.896990966796875,-1.012359619140625,-0.2947540283203125,0.006744384765625
1761315254225034800,4.90703466796875,-1.0457611083984375,-0.2646331787109375,-0.01617431640625
1761315254235082800,4.917082763671875,-1.0810394287109375,-0.2444000244140625,-0.034515380859375
1761315254245129700,4.927129638671875,-1.0935516357421875,-0.232940673828125,-0.045745849609375
1761315254255176700,4.9371767578125,-1.0868988037109375,-0.2228546142578125,-0.0599212646484375
1761315254265224700,4.947224609375,-1.06109619140625,-0.2098846435546875,-0.074066162109375
1761315254275272000,4.95727197265625,-1.0191802978515625,-0.2021636962890625,-0.084625244140625
1761315254285319000,4.96731884765625,-0.9792633056640625,-0.2099609375,-0.0843963623046875
1761315254295366000,4.977365966796875,-0.95245361328125,-0.2315826416015625,-0.07244873046875
1761315254305413600,4.98741357421875,-0.92974853515625,-0.260040283203125,-0.0612945556640625
1761315254315460600,4.997460693359375,-0.901153564453125,-0.28594970703125,-0.0572662353515625
1761315254325507800,5.0075078125,-0.8735504150390625,-0.3076171875,-0.0546417236328125
1761315254335555800,5.017555908203125,-0.85858154296875,-0.327972412109375,-0.047607421875
1761315254345603000,5.02760302734375,-0.8524169921875,-0.3444366455078125,-0.0449676513671875
1761315254355650000,5.037650146484375,-0.8444976806640625,-0.3519744873046875,-0.0513153076171875
1761315254365697000,5.047697021484375,-0.8419952392578125,-0.3542938232421875,-0.0610809326171875
1761315254375744800,5.057744873046875,-0.838653564453125,-0.3477935791015625,-0.07513427734375
1761315254385792000,5.0677919921875,-0.8260498046875,-0.337066650390625,-0.0840606689453125
1761315254395839000,5.0778388671875,-0.817169189453125,-0.329925537109375,-0.0872039794921875
1761315254405887000,5.087886962890625,-0.82196044921875,-0.3232421875,-0.0875396728515625
1761315254415934000,5.097933837890625,-0.83782958984375,-0.3177337646484375,-0.086151123046875
1761315254425981000,5.10798095703125,-0.8583221435546875,-0.3106689453125,-0.0883331298828125
1761315254436029000,5.11802880859375,-0.870574951171875,-0.3065032958984375,-0.0930023193359375
1761315254446076000,5.128075927734375,-0.8841400146484375,-0.3024749755859375,-0.09942626953125
1761315254456123000,5.138122802734375,-0.9017791748046875,-0.2985992431640625,-0.1065216064453125
1761315254466171100,5.148171142578125,-0.9203033447265625,-0.296539306640625,-0.1134185791015625
1761315254476218000,5.158218017578125,-0.9197998046875,-0.29620361328125,-0.1153411865234375
1761315254486264800,5.168264892578125,-0.9212799072265625,-0.300445556640625,-0.11541748046875
1761315254496311800,5.178311767578125,-0.9305877685546875,-0.3142547607421875,-0.1144561767578125
1761315254506359800,5.18835986328125,-0.9368438720703125,-0.3294219970703125,-0.10833740234375
1761315254516407000,5.198406982421875,-0.942047119140625,-0.341552734375,-0.1024932861328125
1761315254526454000,5.2084541015625,-0.9457244873046875,-0.3481292724609375,-0.1051025390625
1761315254536501800,5.218501708984375,-0.938995361328125,-0.35760498046875,-0.10198974609375
1761315254546548700,5.228548828125,-0.9349365234375,-0.377044677734375,-0.0908203125
1761315254556595700,5.238595703125,-0.9529571533203125,-0.39410400390625,-0.0877532958984375
1761315254566643000,5.248642822265625,-0.962860107421875,-0.4002838134765625,-0.0896759033203125
1761315254576691000,5.25869091796875,-0.964263916015625,-0.4063720703125,-0.0929107666015625
1761315254586738000,5.268738037109375,-0.981109619140625,-0.4078216552734375,-0.1015777587890625
1761315254596785000,5.278784912109375,-1.008758544921875,-0.398590087890625,-0.1203155517578125
1761315254606833000,5.2888330078125,-1.0467987060546875,-0.38116455078125,-0.144927978515625
1761315254616879900,5.2988798828125,-1.0700225830078125,-0.355438232421875,-0.172698974609375
1761315254626926800,5.3089267578125,-1.0716705322265625,-0.321746826171875,-0.200347900390625
1761315254636974800,5.318974853515625,-1.068817138671875,-0.2821044921875,-0.2236480712890625
1761315254647022000,5.32902197265625,-1.0582427978515625,-0.2396087646484375,-0.2382965087890625
1761315254657069000,5.339069091796875,-1.036834716796875,-0.1996002197265625,-0.2490997314453125
1761315254667116000,5.349115966796875,-1.003936767578125,-0.1678314208984375,-0.2550048828125
1761315254677163800,5.359163818359375,-0.9538116455078125,-0.1479034423828125,-0.245941162109375
1761315254687210800,5.369210693359375,-0.90618896484375,-0.1396942138671875,-0.2202606201171875
1761315254697258000,5.379258056640625,-0.862030029296875,-0.1408538818359375,-0.1893768310546875
1761315254707306000,5.389305908203125,-0.8199920654296875,-0.15142822265625,-0.151519775390625
1761315254717353000,5.39935302734375,-0.79302978515625,-0.1674346923828125,-0.111602783203125
1761315254727400000,5.40939990234375,-0.77294921875,-0.1907806396484375,-0.071014404296875
1761315254737448000,5.419447998046875,-0.761566162109375,-0.2182769775390625,-0.033355712890625
1761315254747495000,5.429494873046875,-0.758056640625,-0.243743896484375,0.0086669921875
1761315254757542000,5.4395419921875,-0.767730712890625,-0.276275634765625,0.0545654296875
1761315254767588900,5.4495888671875,-0.78271484375,-0.316314697265625,0.0914154052734375
1761315254777637000,5.45963720703125,-0.79766845703125,-0.35235595703125,0.1138916015625
1761315254787683800,5.469683837890625,-0.821685791015625,-0.377105712890625,0.1177520751953125
1761315254797730800,5.479730712890625,-0.85601806640625,-0.3886566162109375,0.1042633056640625
1761315254807778800,5.48977880859375,-0.8924713134765625,-0.38525390625,0.0706634521484375
1761315254817828900,5.499828857421875,-0.93902587890625,-0.3589019775390625,0.0225372314453125
1761315254827875800,5.509875732421875,-0.9950103759765625,-0.3260498046875,-0.0253448486328125
1761315254837922800,5.5199228515625,-1.0483856201171875,-0.318511962890625,-0.05902099609375
1761315254847971000,5.52997119140625,-1.081024169921875,-0.3280181884765625,-0.0819549560546875
1761315254858018000,5.54001806640625,-1.10540771484375,-0.3221893310546875,-0.1038818359375
1761315254868064800,5.550064697265625,-1.1170806884765625,-0.298675537109375,-0.118438720703125
1761315254878111700,5.56011181640625,-1.0927886962890625,-0.2672576904296875,-0.1245574951171875
1761315254888160000,5.570159912109375,-1.042022705078125,-0.2440338134765625,-0.1128387451171875
1761315254898207000,5.58020703125,-0.989715576171875,-0.2359466552734375,-0.0865631103515625
1761315254908254000,5.59025390625,-0.953887939453125,-0.245697021484375,-0.0504150390625
1761315254918301700,5.6003017578125,-0.920379638671875,-0.2714996337890625,-0.0157623291015625
1761315254928349000,5.610348876953125,-0.882598876953125,-0.30450439453125,0.01416015625
1761315254938396000,5.62039599609375,-0.85296630859375,-0.340728759765625,0.03955078125
1761315254948444000,5.63044384765625,-0.8409881591796875,-0.374847412109375,0.057952880859375
1761315254958491000,5.640490966796875,-0.8395233154296875,-0.402008056640625,0.067840576171875
1761315254968537900,5.650537841796875,-0.8474578857421875,-0.415252685546875,0.068267822265625
1761315254978585000,5.660585205078125,-0.8541107177734375,-0.4141387939453125,0.051788330078125
1761315254988632800,5.6706328125,-0.8621978759765625,-0.40679931640625,0.0296630859375
1761315254998679800,5.6806796875,-0.875823974609375,-0.4051971435546875,0.0042724609375
1761315255008726800,5.690726806640625,-0.88519287109375,-0.4049530029296875,-0.017242431640625
1761315255018775000,5.700775146484375,-0.8874969482421875,-0.4021453857421875,-0.0352325439453125
1761315255028822000,5.710822021484375,-0.8891754150390625,-0.4010162353515625,-0.049896240234375
1761315255038869000,5.720868896484375,-0.88970947265625,-0.40447998046875,-0.0574493408203125
1761315255048916700,5.730916748046875,-0.8971405029296875,-0.408447265625,-0.058013916015625
1761315255058964000,5.7409638671875,-0.912628173828125,-0.4062652587890625,-0.0608367919921875
1761315255069011000,5.751010986328125,-0.9168548583984375,-0.392791748046875,-0.0701141357421875
1761315255079058000,5.761057861328125,-0.9147796630859375,-0.37799072265625,-0.07965087890625
1761315255089106000,5.77110595703125,-0.9139404296875,-0.368927001953125,-0.0850677490234375
1761315255099153000,5.78115283203125,-0.9176025390625,-0.3664398193359375,-0.0809173583984375
1761315255109200100,5.7912001953125,-0.9303436279296875,-0.368499755859375,-0.0717010498046875
1761315255119248000,5.801247802734375,-0.94476318359375,-0.3717041015625,-0.062225341796875
1761315255129294800,5.811294921875,-0.9592742919921875,-0.3709564208984375,-0.0526580810546875
1761315255139341800,5.821341796875,-0.9775238037109375,-0.3704071044921875,-0.040496826171875
1761315255149390000,5.83139013671875,-1.0003509521484375,-0.364715576171875,-0.0351715087890625
1761315255159437000,5.84143701171875,-1.0120849609375,-0.3497467041015625,-0.035797119140625
1761315255169483800,5.85148388671875,-1.011016845703125,-0.32470703125,-0.0407867431640625
1761315255179530800,5.86153076171875,-1.0170440673828125,-0.2961273193359375,-0.040496826171875
1761315255189579000,5.8715791015625,-1.019378662109375,-0.2794036865234375,-0.036773681640625
1761315255199626000,5.8816259765625,-0.9989166259765625,-0.2835235595703125,-0.02545166015625
1761315255209673000,5.8916728515625,-0.9822235107421875,-0.3074493408203125,-0.0068359375
1761315255219721000,5.901720947265625,-0.9911651611328125,-0.3265380859375,0.00970458984375
1761315255229767700,5.911767578125,-1.0084228515625,-0.3438568115234375,0.0192413330078125
1761315255239815000,5.92181494140625,-1.0128021240234375,-0.3649444580078125,0.021087646484375
1761315255249862000,5.93186181640625,-1.0245819091796875,-0.378326416015625,0.0116424560546875
1761315255259910000,5.941909912109375,-1.0497894287109375,-0.38201904296875,-0.0063629150390625
1761315255269956900,5.951956787109375,-1.0702056884765625,-0.371734619140625,-0.0322265625
1761315255280004000,5.962004150390625,-1.0830535888671875,-0.3608245849609375,-0.055267333984375
1761315255290051800,5.9720517578125,-1.0963592529296875,-0.3563995361328125,-0.076080322265625
1761315255300098800,5.982098876953125,-1.0992584228515625,-0.34832763671875,-0.092254638671875
1761315255310145800,5.992145751953125,-1.08868408203125,-0.3347320556640625,-0.1042938232421875
1761315255320194000,6.002194091796875,-1.06707763671875,-0.3220062255859375,-0.1127471923828125
1761315255330241000,6.012240966796875,-1.0311279296875,-0.3129425048828125,-0.1163177490234375
1761315255340287200,6.022287353515625,-0.98773193359375,-0.3042755126953125,-0.11285400390625
1761315255350334500,6.03233447265625,-0.9460601806640625,-0.2980804443359375,-0.10015869140625
1761315255360382200,6.04238232421875,-0.9131011962890625,-0.29443359375,-0.0862579345703125
1761315255370429200,6.05242919921875,-0.88372802734375,-0.292083740234375,-0.0750885009765625
1761315255380476200,6.06247607421875,-0.85888671875,-0.2962188720703125,-0.068084716796875
1761315255390524400,6.0725244140625,-0.8382415771484375,-0.3137664794921875,-0.0683746337890625
1761315255400571400,6.0825712890625,-0.8177642822265625,-0.3387908935546875,-0.0709228515625
1761315255410618400,6.092618408203125,-0.8129730224609375,-0.3606109619140625,-0.059814453125
1761315255420666000,6.102666015625,-0.815093994140625,-0.3690185546875,-0.0368804931640625
1761315255430713000,6.112713134765625,-0.815216064453125,-0.3724365234375,-0.0054779052734375
1761315255440760300,6.12276025390625,-0.821075439453125,-0.384552001953125,0.032806396484375
1761315255450808300,6.132808349609375,-0.8329010009765625,-0.4073944091796875,0.07232666015625
1761315255460855300,6.142855224609375,-0.8466644287109375,-0.4326934814453125,0.109954833984375
1761315255470902300,6.15290234375,-0.8570404052734375,-0.4449920654296875,0.130584716796875
1761315255480949500,6.162949462890625,-0.8661651611328125,-0.441986083984375,0.1331329345703125
1761315255490997200,6.172997314453125,-0.87591552734375,-0.433441162109375,0.1223297119140625
1761315255501044200,6.183044189453125,-0.8935546875,-0.419952392578125,0.100921630859375
1761315255511091200,6.19309130859375,-0.9256591796875,-0.406463623046875,0.073211669921875
1761315255521139500,6.203139404296875,-0.941436767578125,-0.38031005859375,0.0452423095703125
1761315255531186400,6.2131865234375,-0.9512786865234375,-0.34234619140625,0.0170440673828125
1761315255541233400,6.2232333984375,-0.9711761474609375,-0.32080078125,-0.0048065185546875
1761315255551280400,6.2332802734375,-0.9742584228515625,-0.3123321533203125,-0.022186279296875
1761315255561328000,6.243328125,-0.9568328857421875,-0.2975006103515625,-0.033203125
1761315255571375400,6.253375244140625,-0.93646240234375,-0.2850494384765625,-0.038116455078125
1761315255581422300,6.26342236328125,-0.9192352294921875,-0.2817840576171875,-0.0382080078125
1761315255591470300,6.27347021484375,-0.8942108154296875,-0.2877655029296875,-0.0323486328125
1761315255601517300,6.283517333984375,-0.864227294921875,-0.299896240234375,-0.0227203369140625
1761315255611564300,6.293564208984375,-0.83282470703125,-0.3220062255859375,-0.014068603515625
1761315255621612300,6.3036123046875,-0.813446044921875,-0.3450469970703125,-0.004913330078125
1761315255631659300,6.3136591796875,-0.815582275390625,-0.367584228515625,0.00390625
1761315255641706200,6.323706298828125,-0.817779541015625,-0.3816986083984375,0.0035400390625
1761315255651753200,6.333753173828125,-0.816986083984375,-0.385162353515625,0.002105712890625
1761315255661801200,6.34380126953125,-0.82489013671875,-0.385833740234375,0.003570556640625
1761315255671848200,6.35384814453125,-0.8313751220703125,-0.388946533203125,0.01019287109375
1761315255681895200,6.363895263671875,-0.8383941650390625,-0.391143798828125,0.0175628662109375
1761315255691943400,6.373943359375,-0.8464508056640625,-0.3924102783203125,0.023040771484375
1761315255701990400,6.383990478515625,-0.8452911376953125,-0.3955535888671875,0.0262298583984375
1761315255712037400,6.394037353515625,-0.83941650390625,-0.402984619140625,0.0274658203125
1761315255722085000,6.404085205078125,-0.837188720703125,-0.4131011962890625,0.0294952392578125
1761315255732132000,6.414132080078125,-0.8423614501953125,-0.420074462890625,0.030487060546875
1761315255742179300,6.424179443359375,-0.86260986328125,-0.4253387451171875,0.0303497314453125
1761315255752226300,6.434226318359375,-0.884613037109375,-0.4253692626953125,0.028656005859375
1761315255762274300,6.4442744140625,-0.8892669677734375,-0.4226837158203125,0.0234375
1761315255772321300,6.4543212890625,-0.888702392578125,-0.4249114990234375,0.0197296142578125
1761315255782368300,6.4643681640625,-0.888702392578125,-0.4312591552734375,0.0121307373046875
1761315255792416300,6.474416259765625,-0.8990478515625,-0.423828125,-0.0036773681640625
1761315255802463200,6.484463134765625,-0.9036865234375,-0.4019317626953125,-0.0283660888671875
1761315255812510200,6.49451025390625,-0.8953094482421875,-0.3857421875,-0.0434417724609375
1761315255822558500,6.504558349609375,-0.880218505859375,-0.3802032470703125,-0.046295166015625
1761315255832605400,6.51460546875,-0.883697509765625,-0.372589111328125,-0.0468292236328125
1761315255842652400,6.52465234375,-0.908660888671875,-0.372589111328125,-0.0321502685546875
1761315255852699400,6.534699462890625,-0.9244232177734375,-0.3793792724609375,-0.0071258544921875
1761315255862747100,6.5447470703125,-0.9296112060546875,-0.3780517578125,0.0037689208984375
1761315255872794400,6.55479443359375,-0.9156036376953125,-0.3747100830078125,0.013397216796875
1761315255882841300,6.56484130859375,-0.9139404296875,-0.3762359619140625,0.02532958984375
1761315255892889300,6.574889404296875,-0.941864013671875,-0.385009765625,0.030364990234375
1761315255902936300,6.584936279296875,-0.9645233154296875,-0.39117431640625,0.031494140625
1761315255912983300,6.5949833984375,-0.97119140625,-0.383514404296875,0.0417633056640625
1761315255923031300,6.60503125,-0.992156982421875,-0.3402557373046875,0.040924072265625
1761315255933078300,6.615078369140625,-0.9763031005859375,-0.3646240234375,0.011505126953125
1761315255943125200,6.625125244140625,-0.952850341796875,-0.3971099853515625,0.0093536376953125
1761315255953172200,6.635172119140625,-0.9831390380859375,-0.395538330078125,0.0140228271484375
1761315255963220500,6.645220458984375,-1.0475006103515625,-0.3837432861328125,0.024200439453125
1761315255973267200,6.65526708984375,-1.098846435546875,-0.373809814453125,0.0399932861328125
1761315255983314200,6.665314208984375,-1.099700927734375,-0.370819091796875,0.0462646484375
1761315255993362200,6.675362060546875,-1.0594635009765625,-0.3599395751953125,0.039703369140625
1761315256003409400,6.685409423828125,-1.0327911376953125,-0.3293914794921875,0.0260162353515625
1761315256013456400,6.695456298828125,-1.021942138671875,-0.297332763671875,0.000518798828125
1761315256023504400,6.70550439453125,-0.99560546875,-0.2730712890625,-0.0302734375
1761315256033551000,6.715551025390625,-0.9745941162109375,-0.238800048828125,-0.0615692138671875
1761315256043598000,6.72559814453125,-0.9775543212890625,-0.20172119140625,-0.079620361328125
1761315256053645300,6.735645263671875,-0.95635986328125,-0.2213897705078125,-0.1010894775390625
1761315256063693300,6.745693359375,-0.9402618408203125,-0.2270355224609375,-0.0996246337890625
1761315256073740300,6.755740234375,-0.967559814453125,-0.2204742431640625,-0.0823516845703125
1761315256083787300,6.765787353515625,-0.9781494140625,-0.1949920654296875,-0.051666259765625
1761315256093835300,6.775835205078125,-0.965240478515625,-0.150299072265625,0.0055999755859375
1761315256103882200,6.78588232421875,-1.06982421875,-0.189056396484375,0.0336456298828125
1761315256113929200,6.79592919921875,-1.0413970947265625,-0.243438720703125,0.0179290771484375
1761315256123977200,6.805977294921875,-0.9699859619140625,-0.287200927734375,0.0099334716796875
1761315256134024400,6.8160244140625,-0.919891357421875,-0.2669830322265625,-0.00238037109375
1761315256144071400,6.826071533203125,-0.8974456787109375,-0.23443603515625,-0.0283355712890625
1761315256154118400,6.836118408203125,-0.8945159912109375,-0.2344818115234375,-0.0342254638671875
1761315256164166100,6.846166259765625,-0.910888671875,-0.2587738037109375,-0.027740478515625
1761315256174213400,6.85621337890625,-0.922515869140625,-0.2707977294921875,-0.01934814453125
1761315256184260400,6.86626025390625,-0.9248809814453125,-0.2535552978515625,-0.01165771484375
