time,seconds_elapsed,z,y,x
1761315249387264500,0.069264404296875,0.05230901017785072,0.21206964552402496,0.061464425176382065
1761315249397311700,0.079311767578125,0.044976796954870224,0.2522761821746826,0.04333069548010826
1761315249407358700,0.089358642578125,0.03997831046581268,0.23082736134529114,0.032155271619558334
1761315249417405700,0.09940576171875,0.06053684651851654,0.15802079439163208,0.03549381345510483
1761315249427453400,0.109453369140625,0.11374014616012573,0.05818421021103859,0.061052966862916946
1761315249437500400,0.11950048828125,0.18599890172481537,-0.05909474566578865,0.10565612465143204
1761315249447547600,0.129547607421875,0.2473812997341156,-0.1656145304441452,0.18379592895507812
1761315249457595600,0.139595703125,0.2790404260158539,-0.21442361176013947,0.2810575067996979
1761315249467642600,0.149642578125,0.28582775592803955,-0.19780628383159637,0.3872012495994568
1761315249477689600,0.159689697265625,0.26197436451911926,-0.21250933408737183,0.4745257794857025
1761315249487737600,0.169737548828125,0.20429880917072296,-0.28038904070854187,0.4993187189102173
1761315249497784600,0.17978466796875,0.13684013485908508,-0.3260878324508667,0.49465233087539673
1761315249507831600,0.18983154296875,0.08869072049856186,-0.32579779624938965,0.4682055413722992
1761315249517878500,0.19987841796875,0.05644836276769638,-0.3348134160041809,0.4185149669647217
1761315249527926800,0.2099267578125,0.04519064724445343,-0.34467563033103943,0.34449559450149536
1761315249537973800,0.219973876953125,0.045994654297828674,-0.33343228697776794,0.2596512734889984
1761315249548020500,0.2300205078125,0.06317630410194397,-0.3106926381587982,0.1792810708284378
1761315249558067500,0.2400673828125,0.09943018108606339,-0.271859735250473,0.08847633749246597
1761315249568115500,0.250115478515625,0.14727413654327393,-0.19736208021640778,0.010131197050213814
1761315249578162700,0.26016259765625,0.20148278772830963,-0.13317057490348816,-0.05511118844151497
1761315249588209700,0.270209716796875,0.24647369980812073,-0.09748261421918869,-0.10316234081983566
1761315249598257700,0.280257568359375,0.2705811560153961,-0.0481499508023262,-0.12145505845546722
1761315249608304400,0.290304443359375,0.2701675593852997,0.044566135853528976,-0.10487661510705948
1761315249618351600,0.3003515625,0.2526349127292633,0.13012097775936127,-0.07118815928697586
1761315249628398600,0.310398681640625,0.21705828607082367,0.1649833619594574,-0.0331433042883873
1761315249638446600,0.320446533203125,0.16419214010238647,0.16777221858501434,0.004311125259846449
1761315249648493600,0.33049365234375,0.10930465161800385,0.13988333940505981,0.04664286971092224
1761315249658540500,0.34054052734375,0.06727970391511917,0.0792684555053711,0.09008541703224182
1761315249668588500,0.350588623046875,0.06077999249100685,0.0593474805355072,0.1597374677658081
1761315249678635500,0.360635498046875,0.07847723364830017,0.06888079643249512,0.24615411460399628
1761315249688682500,0.3706826171875,0.11788642406463623,0.08171723037958145,0.33370766043663025
1761315249698730500,0.38073046875,0.1622736006975174,0.09099408984184265,0.4085656702518463
1761315249708777700,0.39077783203125,0.20979583263397217,0.09658006578683853,0.4636041522026062
1761315249718824700,0.40082470703125,0.2476406842470169,0.114420585334301,0.48711639642715454
1761315249728871700,0.41087158203125,0.2770369350910187,0.12587164342403412,0.4679647982120514
1761315249738919400,0.42091943359375,0.3007281422615051,0.10523773729801178,0.4114474654197693
1761315249748966700,0.430966552734375,0.31803202629089355,0.0792548730969429,0.3230310380458832
1761315249759013600,0.441013671875,0.34300050139427185,0.051787830889225006,0.22501420974731445
1761315249769060600,0.451060546875,0.35186031460762024,0.0002966761530842632,0.11958285421133041
1761315249779108600,0.461108642578125,0.3397301435470581,-0.0620841421186924,0.03423626720905304
1761315249789155600,0.471155517578125,0.31358587741851807,-0.10567928850650787,-0.037100229412317276
1761315249799202600,0.48120263671875,0.2832695245742798,-0.12426655739545822,-0.09261994808912277
1761315249809250600,0.49125048828125,0.24681538343429565,-0.09054827690124512,-0.12556831538677216
1761315249819297500,0.501297607421875,0.1999160498380661,0.03639182820916176,-0.12516723573207855
1761315249829344500,0.511344482421875,0.15492114424705505,0.23419146239757538,-0.08990219235420227
1761315249839391500,0.5213916015625,0.12995266914367676,0.5061273574829102,0.011452924460172653
1761315249849439700,0.531439697265625,0.14938628673553467,0.786172091960907,0.16773760318756104
1761315249859486500,0.541486572265625,0.18452243506908417,0.9398077130317688,0.3303914964199066
1761315249869533400,0.551533447265625,0.21372640132904053,0.9707642793655396,0.4619812071323395
1761315249879581700,0.561581787109375,0.24403823912143707,0.9510630369186401,0.5194405317306519
1761315249889628700,0.571628662109375,0.2757663428783417,0.9801300764083862,0.5345464944839478
1761315249899675600,0.581675537109375,0.32383957505226135,1.0924742221832275,0.4953250586986542
1761315249909722600,0.59172265625,0.38455885648727417,1.2389941215515137,0.38684943318367004
1761315249919770400,0.601770263671875,0.4000083804130554,1.281841516494751,0.29285505414009094
1761315249929817600,0.611817626953125,0.33990857005119324,1.2235608100891113,0.22119763493537903
1761315249939864600,0.621864501953125,0.155243918299675,1.309575080871582,0.13612587749958038
1761315249949912600,0.63191259765625,-0.01435124222189188,1.1144689321517944,0.06493958830833435
1761315249959959600,0.64195947265625,-0.11012144386768341,0.6780085563659668,0.015248994342982769
1761315249970006500,0.652006591796875,-0.10120917856693268,0.35962340235710144,0.013674266636371613
1761315249980053800,0.6620537109375,0.020329240709543228,0.19949127733707428,0.0773850679397583
1761315249990101500,0.6721015625,0.20417949557304382,0.06256670504808426,0.1897217333316803
1761315250000148500,0.6821484375,0.3620847165584564,-0.08251165598630905,0.335072785615921
1761315250010195500,0.692195556640625,0.420101135969162,-0.20238852500915527,0.4979083240032196
1761315250020243700,0.70224365234375,0.377731591463089,-0.23229075968265533,0.6382145881652832
1761315250030290700,0.712290771484375,0.27689817547798157,-0.22622594237327576,0.7006326913833618
1761315250040337700,0.722337646484375,0.18241988122463226,-0.14708931744098663,0.6946520209312439
1761315250050385400,0.732385498046875,0.1245214194059372,0.06559738516807556,0.640099048614502
1761315250060432600,0.7424326171875,0.09032483398914337,0.30895569920539856,0.5621064901351929
1761315250070479600,0.752479736328125,0.0329747274518013,0.5177379250526428,0.47595322132110596
1761315250080526600,0.762526611328125,-0.06806586682796478,0.6814262270927429,0.3920420706272125
1761315250090574600,0.77257470703125,-0.20657794177532196,0.6793974041938782,0.31101033091545105
1761315250100621800,0.782621826171875,-0.3631747364997864,0.6108034253120422,0.23805516958236694
1761315250110668500,0.79266845703125,-0.4996929168701172,0.591623067855835,0.19817912578582764
1761315250120716500,0.802716552734375,-0.6122655272483826,0.5524144172668457,0.2081550657749176
1761315250130763500,0.812763427734375,-0.6322506666183472,0.1866724044084549,0.18751263618469238
1761315250140810500,0.822810546875,-0.48012906312942505,-0.4049791693687439,0.08675406873226166
1761315250150857700,0.832857666015625,-0.24762524664402008,-0.6735422015190125,0.0653848648071289
1761315250160905500,0.842905517578125,-0.0984264388680458,-0.7724897861480713,0.14594095945358276
1761315250170952400,0.852952392578125,-0.13310372829437256,-0.8209612369537354,0.28232836723327637
1761315250180999400,0.86299951171875,-0.271073579788208,-0.8233932256698608,0.42988160252571106
1761315250191047700,0.873047607421875,-0.4284062087535858,-0.9218489527702332,0.49535036087036133
1761315250201094700,0.8830947265625,-0.55156010389328,-1.1589202880859375,0.4019807279109955
1761315250211141600,0.8931416015625,-0.6099834442138672,-1.5201454162597656,0.16753439605236053
1761315250221188600,0.903188720703125,-0.5784255266189575,-1.728128433227539,-0.08288343250751495
1761315250231236600,0.913236572265625,-0.4986891746520996,-1.6150788068771362,-0.3040887713432312
1761315250241283600,0.92328369140625,-0.4024291932582855,-1.3584734201431274,-0.48982882499694824
1761315250251330600,0.93333056640625,-0.3211279511451721,-1.0566514730453491,-0.6272404789924622
1761315250261378600,0.943378662109375,-0.29271256923675537,-0.7460001707077026,-0.7277867794036865
1761315250271425500,0.953425537109375,-0.2890573740005493,-0.46591177582740784,-0.790958821773529
1761315250281472800,0.96347265625,-0.30143892765045166,-0.2840575575828552,-0.8213803768157959
1761315250291519700,0.973519775390625,-0.3171688914299011,-0.20843710005283356,-0.8144274353981018
1761315250301567500,0.9835673828125,-0.3335087299346924,-0.1981908529996872,-0.7892099618911743
1761315250311614500,0.993614501953125,-0.3709444999694824,-0.30010923743247986,-0.7429398894309998
1761315250321661400,1.003661376953125,-0.41616764664649963,-0.478753000497818,-0.6763132214546204
1761315250331709200,1.013709228515625,-0.4676777124404907,-0.6405611038208008,-0.5536530613899231
1761315250341756200,1.023756103515625,-0.5077590942382812,-0.6373471617698669,-0.36270415782928467
1761315250351803400,1.033803466796875,-0.507556676864624,-0.49703001976013184,-0.1350363790988922
1761315250361851100,1.04385107421875,-0.46046480536460876,-0.3677031695842743,0.07790997624397278
1761315250371898000,1.053898193359375,-0.3777201175689697,-0.26078739762306213,0.2732003927230835
1761315250381945000,1.063945068359375,-0.3326317369937897,-0.19695407152175903,0.4026281535625458
1761315250391992000,1.073991943359375,-0.33543846011161804,-0.23260287940502167,0.44618362188339233
1761315250402040300,1.084040283203125,-0.37152454257011414,-0.3405549228191376,0.4037834107875824
1761315250412087300,1.09408740234375,-0.3916490077972412,-0.4338499903678894,0.2937171161174774
1761315250422134300,1.10413427734375,-0.37186968326568604,-0.44532260298728943,0.10130957514047623
1761315250432182300,1.114182373046875,-0.22860334813594818,-0.2502543032169342,-0.18642473220825195
1761315250442229200,1.124229248046875,0.008134093135595322,-0.268157958984375,-0.6005345582962036
1761315250452276200,1.134276123046875,0.24117134511470795,-0.5055257678031921,-1.0336697101593018
1761315250462323200,1.1443232421875,0.294196754693985,-0.7091904878616333,-1.409471869468689
1761315250472371200,1.15437109375,0.200670525431633,-0.7778472900390625,-1.6395971775054932
1761315250482418200,1.164418212890625,0.03069772571325302,-0.7007021903991699,-1.7236406803131104
1761315250492465200,1.174465087890625,-0.17955271899700165,-0.4223368763923645,-1.6279387474060059
1761315250502513200,1.18451318359375,-0.37039750814437866,0.12136158347129822,-1.3794766664505005
1761315250512560000,1.19456005859375,-0.4872266352176666,0.6197748184204102,-1.0656555891036987
1761315250522607400,1.204607421875,-0.5248757600784302,0.9203383922576904,-0.7492284178733826
1761315250532654300,1.214654296875,-0.4779641628265381,1.0582318305969238,-0.4609377980232239
1761315250542702000,1.2247021484375,-0.3872174918651581,1.0441654920578003,-0.2557215094566345
1761315250552749000,1.2347490234375,-0.27208423614501953,0.8688338994979858,-0.14855778217315674
1761315250562796000,1.244796142578125,-0.13553598523139954,0.5841750502586365,-0.10871689021587372
1761315250572844300,1.25484423828125,0.0007456850726157427,0.2901596426963806,-0.09646528959274292
1761315250582891300,1.264891357421875,0.10986445099115372,0.04216929152607918,-0.09302128851413727
1761315250592938200,1.274938232421875,0.18409126996994019,-0.13710139691829681,-0.06847679615020752
1761315250602986000,1.284986083984375,0.20859394967556,-0.26459571719169617,-0.023011043667793274
1761315250613033200,1.295033203125,0.18062810599803925,-0.29481059312820435,0.03019758313894272
1761315250623080200,1.305080078125,0.10610965639352798,-0.2516769766807556,0.06302210688591003
1761315250633127200,1.315127197265625,0.00624111806973815,-0.16009752452373505,0.0550166480243206
1761315250643175200,1.325175048828125,-0.09361783415079117,-0.07290855795145035,0.006431001238524914
1761315250653222400,1.335222412109375,-0.17774362862110138,-0.037521008402109146,-0.08000881224870682
1761315250663269400,1.345269287109375,-0.21829691529273987,-0.03285355493426323,-0.17948773503303528
1761315250673317000,1.355317138671875,-0.21808412671089172,-0.021270668134093285,-0.269207239151001
1761315250683364000,1.365364013671875,-0.1838499903678894,-0.018001370131969452,-0.347206175327301
1761315250693411000,1.3754111328125,-0.13025520741939545,-0.014340323396027088,-0.3782719373703003
1761315250703458300,1.385458251953125,-0.06531642377376556,0.03256140649318695,-0.3628716766834259
1761315250713506300,1.39550634765625,0.008380435407161713,0.11414121836423874,-0.3014381527900696
1761315250723553300,1.40555322265625,0.08935331553220749,0.17705707252025604,-0.20304127037525177
1761315250733600300,1.415600341796875,0.1804957389831543,0.20831245183944702,-0.071617990732193
1761315250743648300,1.425648193359375,0.2574613690376282,0.22673487663269043,0.08133586496114731
1761315250753695200,1.4356953125,0.28908348083496094,0.22280538082122803,0.23914414644241333
1761315250763742200,1.4457421875,0.3009340167045593,0.2088155299425125,0.3935462236404419
1761315250773789200,1.4557890625,0.3036879897117615,0.19387120008468628,0.53513103723526
1761315250783837400,1.46583740234375,0.30915892124176025,0.14860013127326965,0.6423725485801697
1761315250793884200,1.47588427734375,0.31622108817100525,0.08524751663208008,0.725132405757904
1761315250803931100,1.48593115234375,0.3296556770801544,0.0314527302980423,0.7768123745918274
1761315250813979100,1.495979248046875,0.34814944863319397,-0.009849967435002327,0.8109522461891174
1761315250824026000,1.506026123046875,0.36449113488197327,-0.025261947885155678,0.8455634713172913
1761315250834073300,1.5160732421875,0.35973259806632996,-0.03628663346171379,0.884725034236908
1761315250844121300,1.526121337890625,0.32050958275794983,-0.04045234993100166,0.8978541493415833
1761315250854168000,1.53616796875,0.2627623975276947,-0.038710109889507294,0.8694397807121277
1761315250864215000,1.546215087890625,0.20690284669399261,-0.05897090956568718,0.7951330542564392
1761315250874262000,1.556261962890625,0.1592722088098526,-0.09225296229124069,0.6815969347953796
1761315250884310300,1.566310302734375,0.12116317451000214,-0.12228303402662277,0.5326367616653442
1761315250894357200,1.576357177734375,0.0921027660369873,-0.17425648868083954,0.3398750126361847
1761315250904404200,1.586404296875,0.07108137011528015,-0.24460895359516144,0.1261661946773529
1761315250914452200,1.5964521484375,0.06210251897573471,-0.27860739827156067,-0.0706680417060852
1761315250924499200,1.606499267578125,0.054972171783447266,-0.2303764820098877,-0.22566747665405273
1761315250934546200,1.616546142578125,0.049494583159685135,-0.10858559608459473,-0.3143289089202881
1761315250944593200,1.62659326171875,0.035531360656023026,0.030424218624830246,-0.3347463011741638
1761315250954641200,1.63664111328125,0.02377643622457981,0.14614549279212952,-0.2921229302883148
1761315250964688400,1.6466884765625,0.024865934625267982,0.2547622621059418,-0.1971772462129593
1761315250974735400,1.6567353515625,0.029319006949663162,0.36580461263656616,-0.06437712162733078
1761315250984783000,1.666783203125,0.03296966850757599,0.4697760343551636,0.08049004524946213
1761315250994830000,1.676830078125,0.03099706396460533,0.5299291014671326,0.2054133415222168
1761315251004877000,1.686876953125,0.044686246663331985,0.5394512414932251,0.2931583821773529
1761315251014925300,1.69692529296875,0.07310909777879715,0.48779842257499695,0.34558162093162537
1761315251024972300,1.70697216796875,0.10844418406486511,0.38634905219078064,0.3728087246417999
1761315251035019300,1.717019287109375,0.12713877856731415,0.25524935126304626,0.393756628036499
1761315251045066200,1.727066162109375,0.14980919659137726,0.1417084038257599,0.4269888699054718
1761315251055114200,1.7371142578125,0.17183567583560944,0.08207622915506363,0.4857344925403595
1761315251065161200,1.7471611328125,0.18588198721408844,0.05439905822277069,0.5517451763153076
1761315251075208200,1.757208251953125,0.1850830316543579,0.04165023937821388,0.5957568287849426
1761315251085256200,1.767256103515625,0.1743835210800171,0.005261074751615524,0.6053892374038696
1761315251095303400,1.777303466796875,0.16875067353248596,-0.08812932670116425,0.5711777210235596
1761315251105350100,1.78735009765625,0.16873016953468323,-0.20355525612831116,0.5029236078262329
1761315251115398100,1.797398193359375,0.17597076296806335,-0.309966117143631,0.41909393668174744
1761315251125445000,1.807445068359375,0.1857946366071701,-0.3916284739971161,0.3223050832748413
1761315251135492400,1.817492431640625,0.16767555475234985,-0.45713984966278076,0.21147149801254272
1761315251145539300,1.827539306640625,0.12577523291110992,-0.5071324706077576,0.0828741118311882
1761315251155587000,1.837587158203125,0.07147524505853653,-0.5642518997192383,-0.07169628888368607
1761315251165634000,1.847634033203125,0.0024796691723167896,-0.641754686832428,-0.24595144391059875
1761315251175681000,1.857680908203125,-0.07926952093839645,-0.6822824478149414,-0.41788166761398315
1761315251185729300,1.867729248046875,-0.15697789192199707,-0.6782485246658325,-0.5747066736221313
1761315251195776300,1.8777763671875,-0.2202652543783188,-0.6262109279632568,-0.6853394508361816
1761315251205823200,1.8878232421875,-0.2683989703655243,-0.5042423605918884,-0.7242727279663086
1761315251215871000,1.89787109375,-0.3172232210636139,-0.30644088983535767,-0.6739485859870911
1761315251225918200,1.907918212890625,-0.3460993468761444,-0.06705626845359802,-0.5500298738479614
1761315251235965200,1.917965087890625,-0.36117151379585266,0.18380339443683624,-0.37442418932914734
1761315251246012200,1.92801220703125,-0.36095792055130005,0.39423972368240356,-0.148146852850914
1761315251256060200,1.93806005859375,-0.3380856215953827,0.4871443510055542,0.07140227407217026
1761315251266107400,1.948107421875,-0.3041606843471527,0.4386868178844452,0.25215208530426025
1761315251276154400,1.958154296875,-0.2772049605846405,0.3132449984550476,0.3759904205799103
1761315251286202000,1.9682021484375,-0.2592984139919281,0.1533815711736679,0.4426594376564026
1761315251296249000,1.9782490234375,-0.2537952661514282,-0.02286643348634243,0.45332062244415283
1761315251306296000,1.988296142578125,-0.259796679019928,-0.15208381414413452,0.41479453444480896
1761315251316344300,1.99834423828125,-0.28374674916267395,-0.22294199466705322,0.34691375494003296
1761315251326391300,2.008391357421875,-0.3086710274219513,-0.29461565613746643,0.25156939029693604
1761315251336438000,2.01843798828125,-0.329875111579895,-0.33478865027427673,0.15701411664485931
1761315251346485000,2.028485107421875,-0.34565645456314087,-0.30499106645584106,0.07763753831386566
1761315251356532700,2.03853271484375,-0.38055452704429626,-0.25708213448524475,0.022718096151947975
1761315251366580000,2.048580078125,-0.4240604639053345,-0.23827248811721802,-0.03761928156018257
1761315251376627000,2.058626953125,-0.4742051362991333,-0.266178160905838,-0.09565355628728867
1761315251386675000,2.068675048828125,-0.5130593180656433,-0.31358587741851807,-0.1532209813594818
1761315251396722000,2.078721923828125,-0.5528876781463623,-0.3952021896839142,-0.19393298029899597
1761315251406769000,2.088768798828125,-0.5751056671142578,-0.48608094453811646,-0.2055310606956482
1761315251416815900,2.09881591796875,-0.5909618139266968,-0.5578278303146362,-0.19133134186267853
1761315251426863900,2.10886376953125,-0.6170983910560608,-0.6157625317573547,-0.1597134917974472
1761315251436910800,2.118910888671875,-0.6508957147598267,-0.6730372905731201,-0.10978588461875916
1761315251446957800,2.128957763671875,-0.69554203748703,-0.6464197635650635,-0.04199858382344246
1761315251457006000,2.139006103515625,-0.7663893103599548,-0.549237847328186,0.03622617945075035
1761315251467053000,2.149052978515625,-0.8583045601844788,-0.4611572325229645,0.09989437460899353
1761315251477099800,2.159099853515625,-0.9465247392654419,-0.41110551357269287,0.1364356130361557
1761315251487147800,2.169147705078125,-1.0102286338806152,-0.39579927921295166,0.1476384550333023
1761315251497195000,2.179195068359375,-1.065933108329773,-0.4201059341430664,0.13318948447704315
1761315251507242000,2.189241943359375,-1.1209052801132202,-0.4454006254673004,0.1049911305308342
1761315251517289000,2.1992890625,-1.1752468347549438,-0.4763028919696808,0.07374266535043716
1761315251527337000,2.2093369140625,-1.2151048183441162,-0.5146803855895996,0.055085089057683945
1761315251537384000,2.219384033203125,-1.2547470331192017,-0.5553628206253052,0.03993836045265198
1761315251547431000,2.229430908203125,-1.2870393991470337,-0.5925973057746887,0.038829952478408813
1761315251557479000,2.23947900390625,-1.316980242729187,-0.6225016713142395,0.0428561195731163
1761315251567526000,2.24952587890625,-1.3400582075119019,-0.63480144739151,0.05476311221718788
1761315251577572900,2.25957275390625,-1.361721158027649,-0.6373658180236816,0.061774685978889465
1761315251587620900,2.269620849609375,-1.3985803127288818,-0.6447531580924988,0.05385710671544075
1761315251597667800,2.279667724609375,-1.4463393688201904,-0.652958333492279,0.043363187462091446
1761315251607714800,2.28971484375,-1.5093516111373901,-0.6454330682754517,0.033477798104286194
1761315251617761800,2.29976171875,-1.5832690000534058,-0.6253498792648315,0.0343174934387207
1761315251627810000,2.30981005859375,-1.6591781377792358,-0.6167556047439575,0.04995344579219818
1761315251637857000,2.31985693359375,-1.729943871498108,-0.6347894668579102,0.08888060599565506
1761315251647904000,2.329904052734375,-1.7877262830734253,-0.6464261412620544,0.13902632892131805
1761315251657951700,2.33995166015625,-1.8350178003311157,-0.5802724361419678,0.21213355660438538
1761315251667999000,2.3499990234375,-1.8705772161483765,-0.4156970679759979,0.3002051115036011
1761315251678046000,2.3600458984375,-1.9035199880599976,-0.23427721858024597,0.34554940462112427
1761315251688094000,2.370093994140625,-1.928822636604309,-0.11320911347866058,0.31866878271102905
1761315251698141000,2.380140869140625,-1.9106894731521606,-0.040715739130973816,0.2247026115655899
1761315251708188000,2.39018798828125,-1.8846759796142578,-0.014181332662701607,0.0857151672244072
1761315251718235100,2.400235107421875,-1.8946551084518433,-0.09814547747373581,-0.10427713394165039
1761315251728283000,2.410282958984375,-1.9686270952224731,-0.30848753452301025,-0.3261387050151825
1761315251738329900,2.420329833984375,-2.1110379695892334,-0.5827739238739014,-0.5437831282615662
1761315251748376800,2.430376953125,-2.3114118576049805,-0.8134146332740784,-0.6969151496887207
1761315251758425000,2.440425048828125,-2.5405986309051514,-0.9129933714866638,-0.7420986294746399
1761315251768472000,2.45047216796875,-2.751816749572754,-0.8922292590141296,-0.6893869638442993
1761315251778519000,2.46051904296875,-2.908907890319824,-0.8041854500770569,-0.5499557852745056
1761315251788566800,2.47056689453125,-2.9796905517578125,-0.6590639352798462,-0.35377565026283264
1761315251798614000,2.480614013671875,-2.9774913787841797,-0.46055349707603455,-0.15076100826263428
1761315251808661000,2.490660888671875,-2.919917583465576,-0.26566281914711,0.017346765846014023
1761315251818709000,2.500708984375,-2.7861390113830566,-0.15332643687725067,0.16390478610992432
1761315251828756000,2.510755859375,-2.6243221759796143,-0.16266721487045288,0.27869635820388794
1761315251838802700,2.520802734375,-2.4665496349334717,-0.25986167788505554,0.3726297616958618
1761315251848850000,2.530849853515625,-2.3224434852600098,-0.39996179938316345,0.4666489362716675
1761315251858898000,2.54089794921875,-2.2315263748168945,-0.5552871823310852,0.5353766083717346
1761315251868945000,2.55094482421875,-2.205068826675415,-0.7106770277023315,0.5901485085487366
1761315251878992000,2.560991943359375,-2.2324016094207764,-0.8665614724159241,0.6321060657501221
1761315251889040000,2.571039794921875,-2.2875208854675293,-1.0059539079666138,0.6443643569946289
1761315251899086800,2.5810869140625,-2.3451437950134277,-1.1046661138534546,0.6366928219795227
1761315251909133800,2.5911337890625,-2.382045030593872,-1.1795235872268677,0.6107603311538696
1761315251919181800,2.601181884765625,-2.4120872020721436,-1.283884882926941,0.5409253239631653
1761315251929229000,2.61122900390625,-2.41899037361145,-1.417014479637146,0.4290972948074341
1761315251939276000,2.621276123046875,-2.418642520904541,-1.5569771528244019,0.2954220473766327
1761315251949323000,2.631322998046875,-2.4498414993286133,-1.662753701210022,0.15209925174713135
1761315251959370800,2.641370849609375,-2.5271811485290527,-1.7706575393676758,0.041912827640771866
1761315251969417700,2.651417724609375,-2.666701555252075,-1.8805369138717651,-0.00005805691034765914
1761315251979465000,2.66146484375,-2.8493518829345703,-1.9751899242401123,0.0035095135681331158
1761315251989513000,2.671512939453125,-2.985168218612671,-2.0448036193847656,0.013652695342898369
1761315251999560000,2.681559814453125,-3.00518798828125,-2.016050100326538,0.00942013319581747
1761315252009607000,2.69160693359375,-2.936032295227051,-1.8886927366256714,-0.011859855614602566
1761315252019655000,2.701655029296875,-2.806368589401245,-1.7228447198867798,-0.04621303454041481
1761315252029702000,2.711701904296875,-2.688317060470581,-1.5578514337539673,-0.09160927683115005
1761315252039748900,2.721748779296875,-2.6384520530700684,-1.432481050491333,-0.11868856847286224
1761315252049795800,2.7317958984375,-2.660060405731201,-1.3720520734786987,-0.13557487726211548
1761315252059844000,2.741843994140625,-2.7439420223236084,-1.395051121711731,-0.1230849102139473
1761315252069891000,2.75189111328125,-2.853972911834717,-1.4859799146652222,-0.10369949787855148
1761315252079938000,2.76193798828125,-2.9276247024536133,-1.5807735919952393,-0.11221575736999512
1761315252089985800,2.77198583984375,-2.954664707183838,-1.5836771726608276,-0.11797856539487839
1761315252100032800,2.78203271484375,-2.9723830223083496,-1.502360224723816,-0.08462727069854736
1761315252110080000,2.792080078125,-2.998356819152832,-1.3950239419937134,-0.040293894708156586
1761315252120128000,2.8021279296875,-2.9898581504821777,-1.3247915506362915,-0.011668107472360134
1761315252130175000,2.812175048828125,-2.9325666427612305,-1.2412303686141968,0.022520754486322403
1761315252140222000,2.822221923828125,-2.858869791030884,-1.0859920978546143,0.05407362058758736
1761315252150269000,2.83226904296875,-2.7806150913238525,-0.9014310240745544,0.07017429172992706
1761315252160317000,2.84231689453125,-2.6863608360290527,-0.765626847743988,0.061418354511260986
1761315252170364000,2.852364013671875,-2.622169256210327,-0.7054638862609863,0.034637339413166046
1761315252180411000,2.862410888671875,-2.593688726425171,-0.6965359449386597,0.0019739349372684956
1761315252190459100,2.872459228515625,-2.5976271629333496,-0.7281543016433716,-0.017106017097830772
1761315252200505900,2.882505859375,-2.621471405029297,-0.7688215970993042,0.0036906085442751646
1761315252210552800,2.892552734375,-2.6533472537994385,-0.8131376504898071,0.055146075785160065
1761315252220600800,2.902600830078125,-2.688173294067383,-0.858123779296875,0.1303420215845108
1761315252230647800,2.912647705078125,-2.707066059112549,-0.9107078909873962,0.21093806624412537
1761315252240695000,2.922695068359375,-2.6936228275299072,-0.9868830442428589,0.29075565934181213
1761315252250742000,2.932741943359375,-2.650283098220825,-1.093481421470642,0.3737946152687073
1761315252260789800,2.942789794921875,-2.567889928817749,-1.1846598386764526,0.4652819335460663
1761315252270836700,2.952836669921875,-2.4645824432373047,-1.2160207033157349,0.5654436945915222
1761315252280884000,2.962884033203125,-2.434399366378784,-1.0977632999420166,0.6929305195808411
1761315252290932000,2.972931884765625,-2.448066234588623,-0.9700252413749695,0.7946755290031433
1761315252300979000,2.98297900390625,-2.4321389198303223,-1.0484808683395386,0.8029033541679382
1761315252311026000,2.99302587890625,-2.374924659729004,-1.2555789947509766,0.6778210997581482
1761315252321074000,3.003073974609375,-2.3210361003875732,-1.3699220418930054,0.5335182547569275
1761315252331121000,3.013120849609375,-2.295077085494995,-1.3863564729690552,0.3743128776550293
1761315252341168600,3.023168701171875,-2.2999167442321777,-1.387572169303894,0.1845030039548874
1761315252351215600,3.033215576171875,-2.335273265838623,-1.3861979246139526,-0.029736056923866272
1761315252361263600,3.043263671875,-2.374537467956543,-1.3261631727218628,-0.24519804120063782
1761315252371310600,3.053310546875,-2.3870792388916016,-1.2318403720855713,-0.43676134943962097
1761315252381357300,3.063357421875,-2.362657070159912,-1.1346544027328491,-0.5834413170814514
1761315252391405600,3.073405517578125,-2.318617582321167,-1.0310715436935425,-0.6942543983459473
1761315252401452500,3.08345263671875,-2.2573444843292236,-0.8971385359764099,-0.7656505703926086
1761315252411499500,3.09349951171875,-2.181509256362915,-0.7650063037872314,-0.7908901572227478
1761315252421547800,3.1035478515625,-2.094688892364502,-0.6769334673881531,-0.752629816532135
1761315252431594500,3.113594482421875,-1.9983718395233154,-0.6026813387870789,-0.6721552014350891
1761315252441641500,3.123641357421875,-1.8946102857589722,-0.5161656141281128,-0.5553090572357178
1761315252451689500,3.133689453125,-1.762294888496399,-0.39946484565734863,-0.3937789797782898
1761315252461736400,3.143736328125,-1.610522747039795,-0.2997102737426758,-0.21127761900424957
1761315252471783700,3.15378369140625,-1.4652410745620728,-0.21349923312664032,-0.02400999516248703
1761315252481830700,3.16383056640625,-1.3238699436187744,-0.14310017228126526,0.14746882021427155
1761315252491878400,3.17387841796875,-1.2079079151153564,-0.1055820882320404,0.27877891063690186
1761315252501925400,3.18392529296875,-1.0962518453598022,-0.11315105855464935,0.3600660264492035
1761315252511972400,3.193972412109375,-0.9771116375923157,-0.1422002911567688,0.40231388807296753
1761315252522020600,3.2040205078125,-0.8598654866218567,-0.1926669180393219,0.41946864128112793
1761315252532067600,3.214067626953125,-0.7587510943412781,-0.2951940894126892,0.3961348235607147
1761315252542114600,3.224114501953125,-0.6741885542869568,-0.48901575803756714,0.30490291118621826
1761315252552161500,3.23416162109375,-0.6021577715873718,-0.7021293640136719,0.18894807994365692
1761315252562209500,3.24420947265625,-0.5433799624443054,-0.8598044514656067,0.0703202337026596
1761315252572256500,3.254256591796875,-0.49347415566444397,-0.912149965763092,-0.03817188739776611
1761315252582303500,3.264303466796875,-0.4588261544704437,-0.857901930809021,-0.12092668563127518
1761315252592351500,3.2743515625,-0.43979814648628235,-0.70952308177948,-0.19217130541801453
1761315252602398700,3.284398681640625,-0.4337290823459625,-0.5145317912101746,-0.22159869968891144
1761315252612445700,3.29444580078125,-0.42613694071769714,-0.2943440079689026,-0.23251765966415405
1761315252622493400,3.304493408203125,-0.3983295261859894,-0.05712054297327995,-0.23455871641635895
1761315252632540400,3.31454052734375,-0.35881462693214417,0.12539707124233246,-0.25138428807258606
1761315252642587400,3.32458740234375,-0.2974846661090851,0.21324622631072998,-0.307386577129364
1761315252652634600,3.334634521484375,-0.21759997308254242,0.2464531809091568,-0.41406455636024475
1761315252662682600,3.3446826171875,-0.1352211982011795,0.3211303651332855,-0.5667715668678284
1761315252672729600,3.3547294921875,-0.06773297488689423,0.49026423692703247,-0.7637042999267578
1761315252682776600,3.364776611328125,-0.002680737990885973,0.7366839051246643,-0.9844657182693481
1761315252692824600,3.374824462890625,0.06466900557279587,0.9858130216598511,-1.1572750806808472
1761315252702871600,3.38487158203125,0.14149640500545502,1.1445361375808716,-1.1970858573913574
1761315252712918500,3.39491845703125,0.2036396712064743,1.1916450262069702,-1.086694598197937
1761315252722966500,3.404966552734375,0.23174108564853668,1.1687772274017334,-0.8430585265159607
1761315252733013500,3.415013427734375,0.23069952428340912,1.08122980594635,-0.538329005241394
1761315252743060500,3.425060546875,0.22038057446479797,0.9240561723709106,-0.2409023642539978
1761315252753108500,3.4351083984375,0.23633237183094025,0.7753399014472961,0.05999409407377243
1761315252763155500,3.445155517578125,0.24408191442489624,0.5314561724662781,0.2907162606716156
1761315252773202700,3.45520263671875,0.20201195776462555,0.12166891247034073,0.43428540229797363
1761315252783249700,3.465249755859375,0.1636541783809662,-0.3311645984649658,0.5338386297225952
1761315252793297400,3.47529736328125,0.13022485375404358,-0.7154209613800049,0.5992181897163391
1761315252803344400,3.485344482421875,0.11210283637046814,-0.9831399917602539,0.615829348564148
1761315252813391400,3.495391357421875,0.11932586133480072,-1.126196265220642,0.5755429267883301
1761315252823439600,3.505439697265625,0.145159050822258,-1.1877927780151367,0.5376533269882202
1761315252833486600,3.515486572265625,0.16807901859283447,-1.185677170753479,0.48917022347450256
1761315252843533600,3.525533447265625,0.15806899964809418,-1.1453715562820435,0.4385227560997009
1761315252853581300,3.535581298828125,0.11714313179254532,-1.072116494178772,0.38524675369262695
1761315252863628500,3.545628662109375,0.06823498010635376,-0.9728277325630188,0.34215760231018066
1761315252873675500,3.555675537109375,0.013998373411595821,-0.8551911115646362,0.30334657430648804
1761315252883722500,3.565722412109375,-0.038655515760183334,-0.7118722796440125,0.2659110426902771
1761315252893770500,3.5757705078125,-0.09411212056875229,-0.5514506697654724,0.23003533482551575
1761315252903817700,3.585817626953125,-0.13825134932994843,-0.39558061957359314,0.19207143783569336
1761315252913864700,3.59586474609375,-0.1633540391921997,-0.2647504210472107,0.14992745220661163
1761315252923912400,3.605912353515625,-0.179808109998703,-0.1704399138689041,0.1055796891450882
1761315252933959400,3.61595947265625,-0.18566174805164337,-0.13253940641880035,0.05807662010192871
1761315252944006400,3.62600634765625,-0.18730305135250092,-0.13241688907146454,0.008372445590794086
1761315252954054700,3.6360546875,-0.19350874423980713,-0.14807601273059845,-0.04538692161440849
1761315252964101600,3.6461015625,-0.18088962137699127,-0.1585475653409958,-0.10283610224723816
1761315252974148600,3.656148681640625,-0.1574000120162964,-0.15796060860157013,-0.14997032284736633
1761315252984195600,3.666195556640625,-0.12161724269390106,-0.18419140577316284,-0.17086921632289886
1761315252994243600,3.67624365234375,-0.08296332508325577,-0.21003791689872742,-0.1557890623807907
1761315253004290600,3.68629052734375,-0.05482756346464157,-0.2162175178527832,-0.11244212090969086
1761315253014337500,3.696337646484375,-0.048941176384687424,-0.19694209098815918,-0.08135771006345749
1761315253024385500,3.706385498046875,-0.06987176090478897,-0.14834073185920715,-0.07158949971199036
1761315253034432800,3.716432861328125,-0.11312362551689148,-0.09128943085670471,-0.0929001122713089
1761315253044479500,3.7264794921875,-0.20210117101669312,-0.05458361655473709,-0.14854232966899872
1761315253054527500,3.736527587890625,-0.32630568742752075,-0.03995167836546898,-0.2271687090396881
1761315253064574500,3.746574462890625,-0.438068687915802,-0.027823109179735184,-0.2934819459915161
1761315253074621400,3.756621337890625,-0.5146332383155823,-0.043777573853731155,-0.34263086318969727
1761315253084668700,3.766668701171875,-0.5550161004066467,-0.0744614526629448,-0.3735096752643585
1761315253094716700,3.776716552734375,-0.5563018321990967,-0.08082933723926544,-0.3782818019390106
1761315253104763400,3.786763427734375,-0.5154878497123718,-0.06193633750081062,-0.372018039226532
1761315253114810400,3.796810302734375,-0.447522908449173,-0.028901955112814903,-0.34399518370628357
1761315253124858600,3.806858642578125,-0.37524259090423584,0.0062272693030536175,-0.3045859932899475
1761315253134905600,3.816905517578125,-0.30743131041526794,0.03807761147618294,-0.25614577531814575
1761315253144952600,3.82695263671875,-0.25424718856811523,0.04849350079894066,-0.19923187792301178
1761315253155000600,3.83700048828125,-0.21998296678066254,0.0383407324552536,-0.13062112033367157
1761315253165047600,3.847047607421875,-0.20227347314357758,-0.0065377941355109215,-0.058104049414396286
1761315253175094500,3.857094482421875,-0.2072509229183197,-0.0787544697523117,0.014769624918699265
1761315253185141500,3.8671416015625,-0.21220600605010986,-0.155877485871315,0.09447856992483139
1761315253195189500,3.877189453125,-0.22479556500911713,-0.226243793964386,0.18409714102745056
1761315253205236500,3.887236572265625,-0.23829112946987152,-0.2938936650753021,0.26324042677879333
1761315253215283700,3.89728369140625,-0.2546418607234955,-0.3428684175014496,0.3337406814098358
1761315253225331500,3.90733154296875,-0.271036833524704,-0.36017629504203796,0.3853146731853485
1761315253235378400,3.91737841796875,-0.28445038199424744,-0.33749762177467346,0.41416576504707336
1761315253245425400,3.92742529296875,-0.28893059492111206,-0.2944191098213196,0.4219200909137726
1761315253255473700,3.9374736328125,-0.27833229303359985,-0.25092968344688416,0.4094700813293457
1761315253265520600,3.947520751953125,-0.27678340673446655,-0.2128603458404541,0.38100939989089966
1761315253275567600,3.957567626953125,-0.29884690046310425,-0.18017509579658508,0.3561362624168396
1761315253285614600,3.967614501953125,-0.3384590148925781,-0.16419373452663422,0.3251786231994629
1761315253295662600,3.97766259765625,-0.3878236413002014,-0.16819486021995544,0.30005383491516113
1761315253305709600,3.98770947265625,-0.421591192483902,-0.14830584824085236,0.29021957516670227
1761315253315756500,3.997756591796875,-0.45821231603622437,-0.1314307302236557,0.28477394580841064
1761315253325804500,4.007804443359375,-0.5054687857627869,-0.14998097717761993,0.2508077323436737
1761315253335852000,4.01785205078125,-0.5612119436264038,-0.16379666328430176,0.1842643767595291
1761315253345898800,4.027898681640625,-0.5910824537277222,-0.148668572306633,0.09028542041778564
1761315253355946800,4.03794677734375,-0.6102417707443237,-0.15292775630950928,-0.0346037819981575
1761315253365993700,4.04799365234375,-0.6365266442298889,-0.21147575974464417,-0.19448906183242798
1761315253376040700,4.058040771484375,-0.6770167946815491,-0.322516530752182,-0.36916419863700867
1761315253386088000,4.068087890625,-0.7393667697906494,-0.4215424358844757,-0.5255208015441895
1761315253396135700,4.0781357421875,-0.8076472878456116,-0.4887039065361023,-0.6406388282775879
1761315253406182700,4.0881826171875,-0.8884869813919067,-0.504192054271698,-0.6986784338951111
1761315253416229600,4.098229736328125,-0.9834715723991394,-0.44420886039733887,-0.7167162895202637
1761315253426278000,4.10827783203125,-1.0444835424423218,-0.28890690207481384,-0.6948224306106567
1761315253436324900,4.118324951171875,-1.051344394683838,-0.056174322962760925,-0.6287251710891724
1761315253446371800,4.128371826171875,-1.001940369606018,0.20509828627109528,-0.5153397917747498
1761315253456419600,4.138419677734375,-0.9212995171546936,0.44703900814056396,-0.36319923400878906
1761315253466466800,4.148466796875,-0.8245945572853088,0.6486429572105408,-0.1791311353445053
1761315253476513800,4.158513671875,-0.7288296818733215,0.7876405119895935,0.016695888713002205
1761315253486560800,4.168560791015625,-0.6366848349571228,0.8228989243507385,0.1924554705619812
1761315253496608800,4.17860888671875,-0.5551689267158508,0.7357988953590393,0.3180251121520996
1761315253506655700,4.18865576171875,-0.48081961274147034,0.5629001259803772,0.4117542505264282
1761315253516703000,4.198702880859375,-0.4032348096370697,0.31243112683296204,0.4547126591205597
1761315253526750700,4.208750732421875,-0.33730852603912354,0.0030272151343524456,0.4525166153907776
1761315253536797700,4.218797607421875,-0.2977166473865509,-0.28923606872558594,0.4164179861545563
1761315253546844700,4.2288447265625,-0.27631068229675293,-0.5345733761787415,0.3726864755153656
1761315253556893000,4.238892822265625,-0.30362406373023987,-0.7375571131706238,0.33152705430984497
1761315253566940000,4.24893994140625,-0.37080949544906616,-0.8912843465805054,0.288113534450531
1761315253576987000,4.25898681640625,-0.45296400785446167,-1.0170018672943115,0.21465158462524414
1761315253587034600,4.26903466796875,-0.5258725881576538,-1.1620421409606934,0.11026791483163834
1761315253597081900,4.279081787109375,-0.5732787251472473,-1.2780115604400635,-0.009239837527275085
1761315253607128800,4.28912890625,-0.5931578874588013,-1.316429853439331,-0.12437068670988083
1761315253617175800,4.29917578125,-0.593926191329956,-1.2400513887405396,-0.21894273161888123
1761315253627223800,4.309223876953125,-0.5644532442092896,-1.0260118246078491,-0.2653328776359558
1761315253637270800,4.319270751953125,-0.5145919322967529,-0.704362154006958,-0.26433923840522766
1761315253647317800,4.32931787109375,-0.47200241684913635,-0.3388260006904602,-0.22342616319656372
1761315253657365800,4.33936572265625,-0.45464712381362915,0.016512131318449974,-0.1716891974210739
1761315253667412700,4.349412841796875,-0.4489106833934784,0.28047773241996765,-0.12698803842067719
1761315253677459700,4.359459716796875,-0.4572376012802124,0.40535762906074524,-0.11516919732093811
1761315253687506700,4.369506591796875,-0.4355349540710449,0.40445294976234436,-0.12526631355285645
1761315253697555000,4.379554931640625,-0.41621214151382446,0.33240512013435364,-0.1268455684185028
1761315253707601700,4.3896015625,-0.39859744906425476,0.22279712557792664,-0.12670361995697021
1761315253717648600,4.399648681640625,-0.3981958329677582,0.09271741658449173,-0.12403832376003265
1761315253727697000,4.40969677734375,-0.4002262353897095,-0.04351551830768585,-0.11164264380931854
1761315253737744000,4.419743896484375,-0.4044204354286194,-0.13802045583724976,-0.08287570625543594
1761315253747790800,4.429790771484375,-0.4185810089111328,-0.18175701797008514,-0.0521678626537323
1761315253757838800,4.4398388671875,-0.4487879276275635,-0.18898935616016388,-0.041799645870923996
1761315253767885600,4.449885498046875,-0.45816516876220703,-0.1824190765619278,-0.06518539786338806
1761315253777932800,4.459932861328125,-0.4684425890445709,-0.16344670951366425,-0.09528124332427979
1761315253787979800,4.469979736328125,-0.4757409691810608,-0.11125887930393219,-0.1205597072839737
1761315253798027800,4.48002783203125,-0.495038777589798,-0.04368569701910019,-0.1323644369840622
1761315253808074800,4.49007470703125,-0.5140672922134399,0.021099958568811417,-0.1328941285610199
1761315253818122000,4.5001220703125,-0.5209382772445679,0.08878552913665771,-0.12846024334430695
1761315253828169700,4.510169677734375,-0.5018332600593567,0.17889651656150818,-0.11081360280513763
1761315253838216700,4.520216796875,-0.4484720528125763,0.2667800188064575,-0.06945071369409561
1761315253848263700,4.530263671875,-0.37847086787223816,0.33568906784057617,-0.0005320995696820319
1761315253858312000,4.54031201171875,-0.29213786125183105,0.36630740761756897,0.0877266526222229
1761315253868359000,4.55035888671875,-0.19184772670269012,0.34192192554473877,0.18401271104812622
1761315253878406000,4.560406005859375,-0.0819566547870636,0.2761855125427246,0.2820063829421997
1761315253888452900,4.570452880859375,0.024809209629893303,0.1985357254743576,0.3827739953994751
1761315253898500600,4.58050048828125,0.11498624086380005,0.12755796313285828,0.46799570322036743
1761315253908547800,4.5905478515625,0.16554714739322662,0.11525415629148483,0.5456848740577698
1761315253918594800,4.6005947265625,0.19366240501403809,0.17284049093723297,0.5918052792549133
1761315253928642800,4.610642822265625,0.19972269237041473,0.1992739588022232,0.5815669894218445
1761315253938689800,4.620689697265625,0.19986304640769958,0.1929396241903305,0.48575925827026367
1761315253948737000,4.630737060546875,0.2281215786933899,0.158250093460083,0.3271610736846924
1761315253958784800,4.64078466796875,0.28162768483161926,0.08655646443367004,0.13253673911094666
1761315253968831700,4.650831787109375,0.3303014934062958,-0.04585510492324829,-0.08423072099685669
1761315253978878700,4.660878662109375,0.3484669029712677,-0.2663145065307617,-0.3216235637664795
1761315253988925700,4.67092578125,0.33883798122406006,-0.5306670665740967,-0.5563780069351196
1761315253998974000,4.680973876953125,0.32006508111953735,-0.7278043627738953,-0.7329205870628357
1761315254009021000,4.69102099609375,0.28361332416534424,-0.8263253569602966,-0.8333424925804138
1761315254019067600,4.701067626953125,0.22467918694019318,-0.8498988747596741,-0.8385766744613647
1761315254029115600,4.71111572265625,0.14121730625629425,-0.7731888890266418,-0.7499461770057678
1761315254039163000,4.721162841796875,0.05864546820521355,-0.6239847540855408,-0.5601807236671448
1761315254049209900,4.7312099609375,-0.00941986683756113,-0.42509669065475464,-0.2845848500728607
1761315254059257900,4.7412578125,-0.040999364107847214,-0.18138231337070465,0.032944899052381516
1761315254069304800,4.751304931640625,-0.044310737401247025,0.06118692457675934,0.3546299934387207
1761315254079351800,4.761351806640625,-0.011421498842537403,0.22984784841537476,0.6117621660232544
1761315254089398800,4.771398681640625,0.059955745935440063,0.29119935631752014,0.7753574848175049
1761315254099446800,4.78144677734375,0.16824786365032196,0.24936161935329437,0.8392398357391357
1761315254109493800,4.79149365234375,0.2859867513179779,0.15293362736701965,0.807907223701477
1761315254119540700,4.801540771484375,0.40757817029953003,0.010291519574820995,0.7118917107582092
1761315254129588700,4.811588623046875,0.5009664297103882,-0.1571672558784485,0.5769525170326233
1761315254139635700,4.8216357421875,0.5472532510757446,-0.31707409024238586,0.42890554666519165
1761315254149682700,4.8316826171875,0.5360908508300781,-0.4736780822277069,0.2687872648239136
1761315254159730700,4.841730712890625,0.4909425675868988,-0.6059898138046265,0.10577596724033356
1761315254169778000,4.85177783203125,0.43854594230651855,-0.6928213238716125,-0.050572630017995834
1761315254179825000,4.861824951171875,0.38215216994285583,-0.7399478554725647,-0.1938999593257904
1761315254189871900,4.871871826171875,0.3255205750465393,-0.7617024183273315,-0.33117979764938354
1761315254199919600,4.881919677734375,0.2589527368545532,-0.7582730650901794,-0.4446352422237396
1761315254209966800,4.891966796875,0.18996301293373108,-0.7218223810195923,-0.5218426585197449
1761315254220011800,4.90201171875,0.1411302238702774,-0.6812259554862976,-0.5593900680541992
1761315254230059000,4.91205908203125,0.13410161435604095,-0.6404114365577698,-0.5410826802253723
1761315254240106000,4.92210595703125,0.16893255710601807,-0.5544120669364929,-0.4498603641986847
1761315254250153700,4.93215380859375,0.2359861582517624,-0.3996160924434662,-0.280411958694458
1761315254260200700,4.94220068359375,0.3154873847961426,-0.17286711931228638,-0.04691610857844353
1761315254270247700,4.95224755859375,0.3942181468009949,0.10542522370815277,0.20678406953811646
1761315254280295000,4.962294921875,0.46837785840034485,0.37810683250427246,0.43441537022590637
1761315254290343000,4.972343017578125,0.529964804649353,0.5872209072113037,0.5965648293495178
1761315254300390000,4.982389892578125,0.5716134309768677,0.7063789963722229,0.6795854568481445
1761315254310436600,4.9924365234375,0.6058233380317688,0.7511246204376221,0.6830576658248901
1761315254320484900,5.00248486328125,0.6267642974853516,0.7375501990318298,0.6223591566085815
1761315254330531800,5.01253173828125,0.6173705458641052,0.6623347997665405,0.5226906538009644
1761315254340579000,5.0225791015625,0.5707588195800781,0.545819103717804,0.4059144854545593
1761315254350627000,5.032626953125,0.4747484028339386,0.43374133110046387,0.2922590374946594
1761315254360673800,5.042673828125,0.3512363135814667,0.3302900195121765,0.1922149807214737
1761315254370720800,5.052720703125,0.2351326197385788,0.2430158406496048,0.10289788246154785
1761315254380767700,5.062767822265625,0.1489388793706894,0.2103537768125534,0.030495591461658478
1761315254390816000,5.07281591796875,0.1007726863026619,0.20611588656902313,-0.021874139085412025
1761315254400863000,5.082863037109375,0.07836591452360153,0.21385076642036438,-0.06361546367406845
1761315254410910000,5.092909912109375,0.07890813052654266,0.19667071104049683,-0.08937115967273712
1761315254420957700,5.102957763671875,0.08254707604646683,0.17098239064216614,-0.08262510597705841
1761315254431005000,5.1130048828125,0.08201151341199875,0.16120193898677826,-0.038309838622808456
1761315254441052000,5.123052001953125,0.07232239842414856,0.15656350553035736,0.033414147794246674
1761315254451100000,5.133099853515625,0.055089350789785385,0.14072942733764648,0.1371099203824997
1761315254461147000,5.14314697265625,0.028385035693645477,0.12123561650514603,0.2555398941040039
1761315254471194000,5.153194091796875,-0.015335014089941978,0.13228772580623627,0.37844476103782654
1761315254481241000,5.163240966796875,-0.04704554006457329,0.14409619569778442,0.46717730164527893
1761315254491288800,5.173288818359375,-0.05566991865634918,0.13456207513809204,0.5192578434944153
1761315254501335800,5.183335693359375,-0.06725813448429108,0.11500461399555206,0.534221351146698
1761315254511382800,5.1933828125,-0.06987202167510986,0.0910785123705864,0.5269634127616882
1761315254521431000,5.20343115234375,-0.07611820101737976,0.07316848635673523,0.5104310512542725
1761315254531478000,5.21347802734375,-0.08234521001577377,0.1074921041727066,0.500678300857544
1761315254541525000,5.22352490234375,-0.10088453441858292,0.17735081911087036,0.4905396103858948
1761315254551572700,5.23357275390625,-0.12495312094688416,0.2225944548845291,0.443408340215683
1761315254561620000,5.243619873046875,-0.14886485040187836,0.26094797253608704,0.3488045930862427
1761315254571667000,5.2536669921875,-0.1890527456998825,0.28866323828697205,0.20052963495254517
1761315254581714000,5.2637138671875,-0.24190184473991394,0.26737311482429504,-0.014897722750902176
1761315254591762000,5.273761962890625,-0.3130604326725006,0.1674260050058365,-0.29470354318618774
1761315254601809200,5.28380908203125,-0.40863198041915894,-0.014006363227963448,-0.5987433195114136
1761315254611856000,5.29385595703125,-0.5223135352134705,-0.21095430850982666,-0.8631049394607544
1761315254621904000,5.30390380859375,-0.649514377117157,-0.3622373044490814,-1.0479203462600708
1761315254631950800,5.313950927734375,-0.7828641533851624,-0.4636076092720032,-1.1263896226882935
1761315254641997800,5.323997802734375,-0.9064849019050598,-0.49085307121276855,-1.1219983100891113
1761315254652046000,5.334046142578125,-0.9922158122062683,-0.4524790644645691,-1.0327986478805542
1761315254662092800,5.3440927734375,-1.0310068130493164,-0.3436146378517151,-0.8689630627632141
1761315254672139800,5.354139892578125,-1.0198631286621094,-0.158552885055542,-0.6557672023773193
1761315254682186800,5.364186767578125,-0.957206130027771,0.06571269780397415,-0.4201411008834839
1761315254692235000,5.374235107421875,-0.8589163422584534,0.2977033257484436,-0.18054713308811188
1761315254702282000,5.384281982421875,-0.7408629059791565,0.5116076469421387,0.02953525446355343
1761315254712329000,5.394328857421875,-0.6387642621994019,0.6736060976982117,0.2088509500026703
1761315254722376700,5.404376708984375,-0.541179895401001,0.7592528462409973,0.3441443145275116
1761315254732424000,5.414423828125,-0.4424442648887634,0.7528128027915955,0.4306904077529907
1761315254742471000,5.424470947265625,-0.355245977640152,0.6650986671447754,0.4409574270248413
1761315254752519000,5.434518798828125,-0.287585973739624,0.5134955644607544,0.38796132802963257
1761315254762566000,5.44456591796875,-0.21596930921077728,0.3170035183429718,0.29765644669532776
1761315254772612900,5.45461279296875,-0.14679422974586487,0.10030316561460495,0.19547362625598907
1761315254782660000,5.46466015625,-0.08129379153251648,-0.126011461019516,0.08553674072027206
1761315254792707800,5.474707763671875,-0.03467382490634918,-0.35223206877708435,-0.03238270804286003
1761315254802754800,5.4847548828125,-0.021870678290724754,-0.5590435862541199,-0.14532311260700226
1761315254812801800,5.4948017578125,-0.07224543392658234,-0.7646982073783875,-0.280752032995224
1761315254822851800,5.504851806640625,-0.1794283539056778,-0.9841522574424744,-0.45467376708984375
1761315254832899800,5.51489990234375,-0.31222712993621826,-1.1671018600463867,-0.6382084488868713
1761315254842947000,5.524947021484375,-0.4400239884853363,-1.2382739782333374,-0.7793368101119995
1761315254852994000,5.534994140625,-0.5462806224822998,-1.1937364339828491,-0.826305091381073
1761315254863041800,5.545041748046875,-0.6313883662223816,-1.0353190898895264,-0.7572437524795532
1761315254873088800,5.5550888671875,-0.6758314371109009,-0.7384530305862427,-0.5769517421722412
1761315254883136000,5.565135986328125,-0.6635563969612122,-0.34992578625679016,-0.33046606183052063
1761315254893183000,5.575182861328125,-0.5847178101539612,0.05019472539424896,-0.07292294502258301
1761315254903231000,5.58523095703125,-0.44258007407188416,0.37343457341194153,0.13358575105667114
1761315254913278000,5.59527783203125,-0.2857350707054138,0.6014546751976013,0.2643568217754364
1761315254923325000,5.605324951171875,-0.11462777853012085,0.740673303604126,0.30910325050354004
1761315254933373000,5.615373046875,0.04494590312242508,0.7965815663337708,0.29251283407211304
1761315254943420000,5.625419921875,0.1998252272605896,0.7721081972122192,0.23133255541324615
1761315254953467000,5.635466796875,0.32512855529785156,0.6684081554412842,0.15510410070419312
1761315254963515000,5.645514892578125,0.39926403760910034,0.5268968343734741,0.08429969847202301
1761315254973562000,5.65556201171875,0.41721853613853455,0.37223321199417114,0.0362248495221138
1761315254983609000,5.665609130859375,0.3924759030342102,0.22684672474861145,0.018552379682660103
1761315254993655800,5.67565576171875,0.34786316752433777,0.10139372944831848,0.023797208443284035
1761315255003703800,5.685703857421875,0.2876727879047394,-0.004161987919360399,0.0330362468957901
1761315255013751000,5.6957509765625,0.2255186140537262,-0.07602313160896301,0.03332040458917618
1761315255023798000,5.705798095703125,0.17977376282215118,-0.11080268025398254,0.01853693276643753
1761315255033846000,5.715845947265625,0.15158313512802124,-0.10633096843957901,-0.004565456882119179
1761315255043892700,5.725892822265625,0.1490912139415741,-0.07848202437162399,-0.033238112926483154
1761315255053939700,5.735939697265625,0.16019046306610107,-0.04119830206036568,-0.05126798152923584
1761315255063988000,5.745988037109375,0.18739067018032074,0.016874054446816444,-0.05644436553120613
1761315255074035000,5.756034912109375,0.21058253943920135,0.10807453840970993,-0.04006193205714226
1761315255084082000,5.76608203125,0.22351936995983124,0.21179907023906708,-0.01702931709587574
1761315255094129000,5.77612890625,0.24361638724803925,0.30834823846817017,0.007223824504762888
1761315255104177000,5.786177001953125,0.2633354961872101,0.3548875153064728,0.028199147433042526
1761315255114223900,5.796223876953125,0.2931807339191437,0.35857412219047546,0.044007670134305954
1761315255124270800,5.806270751953125,0.32172131538391113,0.3290567100048065,0.07586706429719925
1761315255134318800,5.81631884765625,0.3502160608768463,0.272716760635376,0.11399421095848083
1761315255144366000,5.826365966796875,0.37587136030197144,0.1870143562555313,0.16432689130306244
1761315255154413000,5.8364130859375,0.3985697627067566,0.10993555188179016,0.2429434061050415
1761315255164460800,5.846460693359375,0.4125388264656067,0.06353716552257538,0.3317670226097107
1761315255174507800,5.8565078125,0.41485366225242615,0.025733591988682747,0.4124522805213928
1761315255184554800,5.8665546875,0.4193224310874939,0.017354754731059074,0.4881337285041809
1761315255194602000,5.87660205078125,0.43966418504714966,0.08788644522428513,0.5477666854858398
1761315255204650000,5.88664990234375,0.485593318939209,0.2071465253829956,0.5767224431037903
1761315255214697000,5.896697021484375,0.5464603900909424,0.27909982204437256,0.554703950881958
1761315255224744000,5.906743896484375,0.6277853846549988,0.2879694700241089,0.47321122884750366
1761315255234792000,5.9167919921875,0.7198702692985535,0.26503193378448486,0.3523564636707306
1761315255244839000,5.9268388671875,0.8022841811180115,0.21930839121341705,0.22120748460292816
1761315255254886000,5.936885986328125,0.8539268970489502,0.13404621183872223,0.08136250078678131
1761315255264932900,5.946932861328125,0.8626570105552673,0.031972046941518784,-0.03809651732444763
1761315255274981000,5.956981201171875,0.8292050361633301,-0.0526895746588707,-0.12826129794120789
1761315255285028000,5.967028076171875,0.7611604332923889,-0.1138346865773201,-0.17608767747879028
1761315255295074800,5.97707470703125,0.6870899796485901,-0.14503975212574005,-0.18215489387512207
1761315255305122800,5.987122802734375,0.6131832599639893,-0.12157969176769257,-0.15995503962039948
1761315255315169800,5.997169677734375,0.5519430637359619,-0.04150456562638283,-0.11042584478855133
1761315255325217000,6.007217041015625,0.5179252028465271,0.09832204133272171,-0.034875158220529556
1761315255335265000,6.01726513671875,0.523322343826294,0.28810927271842957,0.06070888787508011
1761315255345311500,6.0273115234375,0.5521145462989807,0.4739939272403717,0.16901512444019318
1761315255355358500,6.0373583984375,0.5961363315582275,0.6265373826026917,0.2778763473033905
1761315255365405400,6.047405517578125,0.6298415660858154,0.7264477610588074,0.3877224326133728
1761315255375453200,6.057453125,0.6490935683250427,0.7824993133544922,0.5007949471473694
1761315255385500200,6.067500244140625,0.6462312340736389,0.8259378671646118,0.6207000017166138
1761315255395547400,6.07754736328125,0.6359972357749939,0.8680546879768372,0.7474275827407837
1761315255405595400,6.087595458984375,0.6121712327003479,0.8781011700630188,0.8849141001701355
1761315255415642400,6.097642333984375,0.5704046487808228,0.8272984623908997,0.9917723536491394
1761315255425689300,6.107689453125,0.5211084485054016,0.7134464979171753,1.0536754131317139
1761315255435737300,6.1177373046875,0.47390738129615784,0.5290532112121582,1.0484827756881714
1761315255445784300,6.127784423828125,0.445989191532135,0.28682857751846313,0.9670425057411194
1761315255455831300,6.137831298828125,0.44890695810317993,0.02022351324558258,0.8362365961074829
1761315255465878300,6.147878173828125,0.4725012183189392,-0.23025983572006226,0.6724444627761841
1761315255475926300,6.15792626953125,0.5115503668785095,-0.43522948026657104,0.47689253091812134
1761315255485973200,6.16797314453125,0.54998379945755,-0.5861060619354248,0.25793248414993286
1761315255496020200,6.178020263671875,0.5864339470863342,-0.69330894947052,0.040160734206438065
1761315255506068200,6.188068115234375,0.5926276445388794,-0.7924978733062744,-0.16000059247016907
1761315255516115200,6.198115234375,0.5510019063949585,-0.8375913500785828,-0.3027891516685486
1761315255526162400,6.208162353515625,0.4793687164783478,-0.8391538262367249,-0.38443315029144287
1761315255536210200,6.218210205078125,0.3995303511619568,-0.8259943127632141,-0.39077654480934143
1761315255546257200,6.228257080078125,0.34131792187690735,-0.7810484170913696,-0.3226132094860077
1761315255556304100,6.23830419921875,0.2925458550453186,-0.6768873929977417,-0.19527016580104828
1761315255566351000,6.24835107421875,0.25813859701156616,-0.5387654900550842,-0.05116545036435127
1761315255576399400,6.2583994140625,0.23838859796524048,-0.38426485657691956,0.09077411144971848
1761315255586446300,6.2684462890625,0.23206359148025513,-0.22498545050621033,0.19653037190437317
1761315255596493300,6.278493408203125,0.2297019064426422,-0.057740259915590286,0.23494966328144073
1761315255606541300,6.288541259765625,0.24211542308330536,0.11229404807090759,0.19861775636672974
1761315255616588300,6.29858837890625,0.26636990904808044,0.2552165985107422,0.09969916194677353
1761315255626635300,6.30863525390625,0.2983454167842865,0.338473379611969,-0.02329174056649208
1761315255636683300,6.318683349609375,0.3159675598144531,0.37316906452178955,-0.13598127663135529
1761315255646730200,6.328730224609375,0.3131728172302246,0.37009602785110474,-0.21075165271759033
1761315255656777500,6.338777587890625,0.2904835045337677,0.34876757860183716,-0.23085878789424896
1761315255666824400,6.348824462890625,0.2567433714866638,0.31603118777275085,-0.21565692126750946
1761315255676872200,6.3588720703125,0.22010333836078644,0.2756475508213043,-0.17991304397583008
1761315255686919200,6.368919189453125,0.18038016557693481,0.2207547426223755,-0.15997369587421417
1761315255696966400,6.37896630859375,0.15058179199695587,0.17104631662368774,-0.1637069135904312
1761315255707014400,6.389014404296875,0.14123356342315674,0.13170236349105835,-0.178743377327919
1761315255717061400,6.399061279296875,0.15460582077503204,0.10165099054574966,-0.21136710047721863
1761315255727108400,6.4091083984375,0.18012796342372894,0.07784979045391083,-0.2548410892486572
1761315255737156400,6.41915625,0.2010074108839035,0.02359161153435707,-0.30277904868125916
1761315255747203300,6.429203369140625,0.20093843340873718,-0.0584835484623909,-0.35133859515190125
1761315255757250300,6.439250244140625,0.19719882309436798,-0.13004641234874725,-0.38752323389053345
1761315255767297300,6.44929736328125,0.1925782412290573,-0.17635107040405273,-0.4151548445224762
1761315255777345300,6.45934521484375,0.2172739952802658,-0.18823648989200592,-0.4462091624736786
1761315255787392300,6.469392333984375,0.2469557225704193,-0.18252187967300415,-0.4672028720378876
1761315255797439200,6.479439208984375,0.25557398796081543,-0.12299995869398117,-0.4510766267776489
1761315255807487200,6.4894873046875,0.2378876656293869,0.040821731090545654,-0.3802719712257385
1761315255817534200,6.4995341796875,0.19407252967357635,0.2914118766784668,-0.28558647632598877
1761315255827581400,6.50958154296875,0.1621476262807846,0.5010881423950195,-0.21306966245174408
1761315255837629400,6.51962939453125,0.1495327651500702,0.6123571395874023,-0.19712185859680176
1761315255847676200,6.52967626953125,0.17038877308368683,0.6277092099189758,-0.2071867436170578
1761315255857723100,6.53972314453125,0.2027967870235443,0.5801030397415161,-0.23581385612487793
1761315255867770000,6.54977001953125,0.24232742190361023,0.5284188389778137,-0.284938246011734
1761315255877818400,6.559818359375,0.27703267335891724,0.4594818353652954,-0.37192055583000183
1761315255887865300,6.569865234375,0.30970272421836853,0.345039427280426,-0.48577842116355896
1761315255897912300,6.579912353515625,0.34268730878829956,0.24446992576122284,-0.5540120601654053
1761315255907960000,6.5899599609375,0.3474125564098358,0.205827996134758,-0.5339374542236328
1761315255918007300,6.60000732421875,0.25806376338005066,0.16658392548561096,-0.44972801208496094
1761315255928054300,6.61005419921875,0.23219914734363556,0.1893952339887619,-0.27702173590660095
1761315255938101200,6.620101318359375,0.23500771820545197,0.31936439871788025,-0.08173374831676483
1761315255948149200,6.630149169921875,0.2301245480775833,0.37014448642730713,0.029523536562919617
1761315255958196500,6.640196533203125,0.18534402549266815,0.21425476670265198,0.021763885393738747
1761315255968243500,6.650243408203125,0.11309432983398438,-0.11270444095134735,-0.09108729660511017
1761315255978291200,6.660291259765625,0.05632452666759491,-0.4273795485496521,-0.2552272379398346
1761315255988338200,6.670338134765625,0.04742024466395378,-0.6180880069732666,-0.4261646270751953
1761315255998385200,6.68038525390625,0.09167133271694183,-0.7094727754592896,-0.5730227828025818
1761315256008433400,6.690433349609375,0.17697051167488098,-0.7107462882995605,-0.6609190702438354
1761315256018480400,6.70048046875,0.3020392060279846,-0.5572779178619385,-0.6680880188941956
1761315256028527400,6.71052734375,0.41852161288261414,-0.2925088405609131,-0.6202954649925232
1761315256038575400,6.720575439453125,0.4931796193122864,-0.027823375537991524,-0.5364855527877808
1761315256048622300,6.730622314453125,0.5858001112937927,0.2707931399345398,-0.40764233469963074
1761315256058669300,6.74066943359375,0.6512185335159302,0.5478543043136597,-0.26727885007858276
1761315256068716300,6.75071630859375,0.6668826937675476,0.6907821893692017,-0.142171248793602
1761315256078764300,6.760764404296875,0.6026272773742676,0.702633261680603,0.04465535283088684
1761315256088811500,6.7708115234375,0.43321216106414795,0.553271472454071,0.42493849992752075
1761315256098858200,6.780858154296875,0.3368041217327118,0.20481786131858826,0.7201472520828247
1761315256108906200,6.79090625,0.39609992504119873,-0.10623589158058167,0.9020347595214844
1761315256118953200,6.800953125,0.5141528248786926,-0.22771066427230835,1.0208873748779297
1761315256129000200,6.811000244140625,0.5514599680900574,-0.19717352092266083,1.0840003490447998
1761315256139047400,6.82104736328125,0.5178455710411072,-0.08182402700185776,1.0728821754455566
1761315256149095400,6.831095458984375,0.4627298414707184,0.041615620255470276,0.9770128726959229
1761315256159142100,6.84114208984375,0.42164498567581177,0.12863653898239136,0.8061002492904663
1761315256169189000,6.851189208984375,0.38259825110435486,0.18098096549510956,0.6345577836036682
1761315256179237400,6.8612373046875,0.33081546425819397,0.19791068136692047,0.5430060029029846
