time,seconds_elapsed,z,y,x
1761315606101664300,0.058664306640625,-0.7420654296875,-0.5968170166015625,0.1214599609375
1761315606111712300,0.068712158203125,-0.7412109375,-0.592193603515625,0.1142120361328125
1761315606121760300,0.07876025390625,-0.751251220703125,-0.5830535888671875,0.1130828857421875
1761315606131807200,0.08880712890625,-0.7637939453125,-0.57928466796875,0.1123046875
1761315606141855200,0.098855224609375,-0.774078369140625,-0.5771026611328125,0.108978271484375
1761315606151902200,0.108902099609375,-0.7772216796875,-0.5695343017578125,0.10009765625
1761315606161950200,0.1189501953125,-0.7722930908203125,-0.5578765869140625,0.088623046875
1761315606171998200,0.128998291015625,-0.77227783203125,-0.55230712890625,0.0819854736328125
1761315606182045200,0.139045166015625,-0.782867431640625,-0.5550079345703125,0.083953857421875
1761315606192093200,0.14909326171875,-0.8000335693359375,-0.5566558837890625,0.0899200439453125
1761315606202140400,0.159140380859375,-0.815704345703125,-0.5554351806640625,0.0923614501953125
1761315606212188200,0.169188232421875,-0.831817626953125,-0.5500030517578125,0.0912322998046875
1761315606222236200,0.179236083984375,-0.84375,-0.543426513671875,0.0858612060546875
1761315606232283100,0.189283203125,-0.842010498046875,-0.5359344482421875,0.078582763671875
1761315606242331400,0.199331298828125,-0.8429718017578125,-0.5295257568359375,0.0734100341796875
1761315606252378000,0.209378173828125,-0.8493804931640625,-0.5330352783203125,0.0712432861328125
1761315606262426000,0.219426025390625,-0.8434906005859375,-0.538726806640625,0.0733489990234375
1761315606272473000,0.22947314453125,-0.8432159423828125,-0.5394744873046875,0.078399658203125
1761315606282521300,0.239521240234375,-0.844818115234375,-0.543914794921875,0.0805206298828125
1761315606292569000,0.249569091796875,-0.8392486572265625,-0.5481109619140625,0.0760650634765625
1761315606302616000,0.259615966796875,-0.8292388916015625,-0.55029296875,0.0689849853515625
1761315606312664300,0.269664306640625,-0.8231353759765625,-0.547271728515625,0.059173583984375
1761315606322711300,0.279711181640625,-0.816497802734375,-0.540313720703125,0.046356201171875
1761315606332759000,0.289759033203125,-0.806854248046875,-0.533477783203125,0.035736083984375
1761315606342807300,0.299807373046875,-0.799041748046875,-0.5336151123046875,0.0312652587890625
1761315606352854300,0.309854248046875,-0.8021392822265625,-0.5357208251953125,0.032867431640625
1761315606362902300,0.31990234375,-0.8015899658203125,-0.53082275390625,0.0319976806640625
1761315606372949200,0.32994921875,-0.787353515625,-0.5266876220703125,0.0282440185546875
1761315606382997200,0.339997314453125,-0.7940826416015625,-0.53009033203125,0.0321807861328125
1761315606393045200,0.350045166015625,-0.8121795654296875,-0.53997802734375,0.03997802734375
1761315606403092200,0.36009228515625,-0.821990966796875,-0.5390167236328125,0.04034423828125
1761315606413140200,0.37014013671875,-0.8190765380859375,-0.52587890625,0.0342254638671875
1761315606423187200,0.380187255859375,-0.8316192626953125,-0.5140228271484375,0.0334930419921875
1761315606433235200,0.390235107421875,-0.84429931640625,-0.5114593505859375,0.0385284423828125
1761315606443283200,0.400283203125,-0.845672607421875,-0.5134124755859375,0.0406646728515625
1761315606453330200,0.410330078125,-0.849609375,-0.5136260986328125,0.038970947265625
1761315606463378200,0.420378173828125,-0.84381103515625,-0.514312744140625,0.037872314453125
1761315606473425200,0.430425048828125,-0.829498291015625,-0.5201873779296875,0.03375244140625
1761315606483473400,0.440473388671875,-0.8202362060546875,-0.52227783203125,0.03118896484375
1761315606493521200,0.450521240234375,-0.818603515625,-0.5229034423828125,0.027008056640625
1761315606503568100,0.460568115234375,-0.81243896484375,-0.521514892578125,0.017333984375
1761315606513616400,0.470616455078125,-0.8203887939453125,-0.514892578125,0.0134429931640625
1761315606523663400,0.480663330078125,-0.843353271484375,-0.5107269287109375,0.0218505859375
1761315606533711000,0.490711181640625,-0.8639373779296875,-0.5167083740234375,0.031951904296875
1761315606543759000,0.500759033203125,-0.8807525634765625,-0.5152130126953125,0.0341339111328125
1761315606553806300,0.510806396484375,-0.895172119140625,-0.5030975341796875,0.0278167724609375
1761315606563854300,0.520854248046875,-0.9080657958984375,-0.48077392578125,0.0081787109375
1761315606573901000,0.530901123046875,-0.9129638671875,-0.4712066650390625,-0.009429931640625
1761315606583949300,0.54094921875,-0.8979949951171875,-0.4839630126953125,-0.0190582275390625
1761315606593997300,0.550997314453125,-0.86578369140625,-0.50140380859375,0.003753662109375
1761315606604044300,0.561044189453125,-0.831146240234375,-0.536407470703125,0.0604705810546875
1761315606614092000,0.571092041015625,-0.86920166015625,-0.601715087890625,0.0699310302734375
1761315606624139300,0.58113916015625,-0.9159393310546875,-0.6546783447265625,0.047393798828125
1761315606634187300,0.591187255859375,-0.88006591796875,-0.618621826171875,0.182098388671875
1761315606644235000,0.601235107421875,-0.76629638671875,-0.5830230712890625,0.17645263671875
1761315606654282200,0.6112822265625,-0.8428192138671875,-0.6442108154296875,0.1517791748046875
1761315606664330200,0.621330322265625,-0.9078521728515625,-0.70379638671875,0.1576080322265625
1761315606674376700,0.631376708984375,-0.8660736083984375,-0.6846771240234375,0.17041015625
1761315606684425000,0.641425048828125,-0.7837066650390625,-0.6523284912109375,0.1618194580078125
1761315606694472700,0.65147265625,-0.7352752685546875,-0.642852783203125,0.1436767578125
1761315606704519700,0.661519775390625,-0.6944580078125,-0.651336669921875,0.1280364990234375
1761315606714568000,0.67156787109375,-0.68988037109375,-0.6638946533203125,0.1126861572265625
1761315606724615000,0.681614990234375,-0.681640625,-0.6767425537109375,0.1010894775390625
1761315606734662700,0.69166259765625,-0.64794921875,-0.6793365478515625,0.0815582275390625
1761315606744711000,0.7017109375,-0.6081390380859375,-0.68536376953125,0.0522918701171875
1761315606754758000,0.7117578125,-0.5974273681640625,-0.67669677734375,0.0266571044921875
1761315606764806000,0.721805908203125,-0.62384033203125,-0.65069580078125,0.0159149169921875
1761315606774852900,0.731852783203125,-0.67218017578125,-0.6221923828125,0.0083770751953125
1761315606784900900,0.74190087890625,-0.6682281494140625,-0.5802001953125,0.0201568603515625
1761315606794948900,0.751948974609375,-0.653961181640625,-0.581146240234375,0.0892181396484375
1761315606804995800,0.761995849609375,-0.7848968505859375,-0.6681976318359375,0.1347503662109375
1761315606815043800,0.7720439453125,-0.7565155029296875,-0.7170257568359375,0.1371002197265625
1761315606825090800,0.7820908203125,-0.7146759033203125,-0.68316650390625,0.112091064453125
1761315606835138800,0.792138916015625,-0.7116851806640625,-0.65362548828125,0.0707244873046875
1761315606845187000,0.80218701171875,-0.722900390625,-0.6598968505859375,0.0428009033203125
1761315606855233800,0.81223388671875,-0.7085418701171875,-0.66229248046875,0.0428314208984375
1761315606865281800,0.82228173828125,-0.6976318359375,-0.6560211181640625,0.078399658203125
1761315606875328800,0.832328857421875,-0.7089691162109375,-0.676483154296875,0.1056671142578125
1761315606885377000,0.842376953125,-0.69781494140625,-0.6881561279296875,0.1269683837890625
1761315606895424800,0.8524248046875,-0.679595947265625,-0.6956329345703125,0.1228485107421875
1761315606905471700,0.8624716796875,-0.690582275390625,-0.718170166015625,0.092193603515625
1761315606915520000,0.87252001953125,-0.6912841796875,-0.7131805419921875,0.07208251953125
1761315606925567700,0.882567626953125,-0.6983184814453125,-0.6682281494140625,0.0550994873046875
1761315606935614700,0.89261474609375,-0.7151031494140625,-0.631256103515625,0.0263824462890625
1761315606945662700,0.902662841796875,-0.736572265625,-0.622528076171875,-0.0029754638671875
1761315606955710000,0.9127099609375,-0.7576141357421875,-0.62225341796875,-0.0250091552734375
1761315606965758000,0.922758056640625,-0.78997802734375,-0.62078857421875,-0.041351318359375
1761315606975805700,0.9328056640625,-0.8318023681640625,-0.6226043701171875,-0.0470428466796875
1761315606985852700,0.942852783203125,-0.846923828125,-0.6203155517578125,-0.049285888671875
1761315606995901000,0.95290087890625,-0.85552978515625,-0.6131439208984375,-0.06109619140625
1761315607005948000,0.962947998046875,-0.8826141357421875,-0.6074371337890625,-0.0714569091796875
1761315607015995600,0.97299560546875,-0.931976318359375,-0.599822998046875,-0.0663604736328125
1761315607026044000,0.9830439453125,-0.959228515625,-0.60845947265625,-0.0430450439453125
1761315607036091000,0.9930908203125,-0.979461669921875,-0.6292266845703125,-0.004058837890625
1761315607046139000,1.003138916015625,-0.99267578125,-0.630615234375,0.01654052734375
1761315607056185600,1.013185546875,-0.9688568115234375,-0.611846923828125,0.0153350830078125
1761315607066233900,1.02323388671875,-0.95166015625,-0.5993194580078125,0.0079193115234375
1761315607076281900,1.03328173828125,-0.94403076171875,-0.5880584716796875,-0.0000152587890625
1761315607086328800,1.043328857421875,-0.9445343017578125,-0.566925048828125,0.012603759765625
1761315607096376800,1.053376953125,-0.955841064453125,-0.5514373779296875,0.0404815673828125
1761315607106424800,1.0634248046875,-0.9730377197265625,-0.551422119140625,0.06378173828125
1761315607116471800,1.073471923828125,-0.973175048828125,-0.554656982421875,0.07440185546875
1761315607126519800,1.083519775390625,-0.86822509765625,-0.531005859375,0.125762939453125
1761315607136566800,1.09356689453125,-0.807708740234375,-0.4180450439453125,0.116729736328125
1761315607146614800,1.10361474609375,-0.7970428466796875,-0.3966522216796875,0.1103668212890625
1761315607156663000,1.1136630859375,-0.673675537109375,-0.476470947265625,0.1031341552734375
1761315607166710000,1.1237099609375,-0.6942291259765625,-0.5598907470703125,0.07037353515625
1761315607176757800,1.1337578125,-0.64825439453125,-0.5180511474609375,0.097503662109375
1761315607186804700,1.1438046875,-0.5430145263671875,-0.46319580078125,0.154083251953125
1761315607196853000,1.15385302734375,-0.453125,-0.4656524658203125,0.160675048828125
1761315607206900700,1.163900634765625,-0.39898681640625,-0.4740142822265625,0.167694091796875
1761315607216947700,1.17394775390625,-0.399383544921875,-0.49468994140625,0.183441162109375
1761315607226996000,1.183995849609375,-0.41064453125,-0.54364013671875,0.1873016357421875
1761315607237043000,1.19404296875,-0.4419708251953125,-0.584136962890625,0.1694183349609375
1761315607247091000,1.204091064453125,-0.5609130859375,-0.49652099609375,0.069854736328125
1761315607257138700,1.214138671875,-0.603485107421875,-0.336639404296875,-0.057769775390625
1761315607267186000,1.22418603515625,-0.524017333984375,-0.2628173828125,-0.101654052734375
1761315607277234000,1.23423388671875,-0.5001983642578125,-0.2642822265625,-0.096649169921875
1761315607287281700,1.24428173828125,-0.5540771484375,-0.2841033935546875,-0.06982421875
1761315607297329000,1.254328857421875,-0.6041412353515625,-0.267913818359375,-0.0464324951171875
1761315607307377000,1.264376953125,-0.6658477783203125,-0.2623443603515625,-0.0376129150390625
1761315607317423900,1.274423828125,-0.826629638671875,-0.3401336669921875,-0.064239501953125
1761315607327471600,1.2844716796875,-0.8792877197265625,-0.358489990234375,-0.1202239990234375
1761315607337519900,1.294519775390625,-0.9434814453125,-0.4073028564453125,-0.15936279296875
1761315607347566800,1.30456689453125,-1.10601806640625,-0.4790191650390625,-0.16180419921875
1761315607357614800,1.31461474609375,-1.37225341796875,-0.5263519287109375,-0.1170196533203125
1761315607367662800,1.324662841796875,-1.566314697265625,-0.5608673095703125,-0.0987701416015625
1761315607377709800,1.334709716796875,-1.5922088623046875,-0.6227569580078125,-0.1754302978515625
1761315607387757800,1.3447578125,-1.643829345703125,-0.7164459228515625,-0.2778167724609375
1761315607397804800,1.3548046875,-1.6996612548828125,-0.8126068115234375,-0.400177001953125
1761315607407852800,1.364852783203125,-1.704864501953125,-0.83807373046875,-0.520660400390625
1761315607417900800,1.37490087890625,-1.7212677001953125,-0.74713134765625,-0.5425262451171875
1761315607427947800,1.38494775390625,-1.6290740966796875,-0.631378173828125,-0.398040771484375
1761315607437996000,1.39499609375,-1.586151123046875,-0.7624359130859375,-0.065643310546875
1761315607448042800,1.405042724609375,-1.7260589599609375,-0.9569091796875,0.2525177001953125
1761315607458090800,1.4150908203125,-1.853668212890625,-0.97271728515625,0.3732757568359375
1761315607468139000,1.425138916015625,-1.89764404296875,-0.868408203125,0.3564300537109375
1761315607478186000,1.43518603515625,-1.873199462890625,-0.82049560546875,0.2053985595703125
1761315607488233700,1.445233642578125,-1.6877288818359375,-0.8451385498046875,0.067230224609375
1761315607498282000,1.455281982421875,-1.5050048828125,-0.91583251953125,0.01519775390625
1761315607508329000,1.465328857421875,-1.406036376953125,-0.9263458251953125,-0.0822601318359375
1761315607518376700,1.475376708984375,-1.2604522705078125,-0.8642120361328125,-0.165924072265625
1761315607528423700,1.485423583984375,-1.1516571044921875,-0.812957763671875,-0.24285888671875
1761315607538472000,1.495471923828125,-1.005126953125,-0.736419677734375,-0.233489990234375
1761315607548520000,1.50552001953125,-0.890167236328125,-0.6729583740234375,-0.22491455078125
1761315607558567000,1.51556689453125,-0.7490386962890625,-0.6131134033203125,-0.1960601806640625
1761315607568614700,1.52561474609375,-0.6027984619140625,-0.55474853515625,-0.183685302734375
1761315607578663000,1.535662841796875,-0.463348388671875,-0.48614501953125,-0.2123870849609375
1761315607588710000,1.5457099609375,-0.3166656494140625,-0.4039154052734375,-0.2593994140625
1761315607598757600,1.555757568359375,-0.1885223388671875,-0.3181304931640625,-0.3146209716796875
1761315607608804900,1.565804931640625,-0.10595703125,-0.2383575439453125,-0.3599700927734375
1761315607618852900,1.575852783203125,-0.06494140625,-0.1769866943359375,-0.3791961669921875
1761315607628900900,1.58590087890625,-0.0500946044921875,-0.1309661865234375,-0.3577880859375
1761315607638947800,1.59594775390625,-0.0539093017578125,-0.1075439453125,-0.321685791015625
1761315607648995800,1.605995849609375,-0.0540771484375,-0.0851898193359375,-0.2785186767578125
1761315607659042800,1.616042724609375,-0.06121826171875,-0.058349609375,-0.21893310546875
1761315607669090800,1.6260908203125,-0.0849456787109375,-0.034210205078125,-0.1530609130859375
1761315607679139600,1.6361396484375,-0.107666015625,-0.01165771484375,-0.096923828125
1761315607689186600,1.6461865234375,-0.1129150390625,0.0114288330078125,-0.0490264892578125
1761315607699234600,1.656234619140625,-0.101776123046875,0.0084991455078125,-0.010986328125
1761315607709282600,1.666282470703125,-0.064727783203125,-0.0206298828125,0.0001983642578125
1761315607719329500,1.67632958984375,-0.012664794921875,-0.035125732421875,0.029327392578125
1761315607729377500,1.68637744140625,0.0711669921875,-0.03814697265625,0.061981201171875
1761315607739425500,1.696425537109375,0.1016082763671875,-0.0386810302734375,0.01409912109375
1761315607749472500,1.706472412109375,0.0946044921875,-0.046142578125,-0.044708251953125
1761315607759520500,1.7165205078125,0.0838470458984375,-0.0515899658203125,-0.1068267822265625
1761315607769567500,1.7265673828125,0.0988311767578125,-0.06048583984375,-0.1678314208984375
1761315607779615700,1.73661572265625,0.09393310546875,-0.0805816650390625,-0.2006683349609375
1761315607789663500,1.74666357421875,0.04571533203125,-0.1252593994140625,-0.1998443603515625
1761315607799710500,1.75671044921875,-0.0473480224609375,-0.197540283203125,-0.1649627685546875
1761315607809758700,1.7667587890625,-0.1844635009765625,-0.2821044921875,-0.1095123291015625
1761315607819806500,1.776806396484375,-0.4071807861328125,-0.3840789794921875,-0.0831298828125
1761315607829853400,1.786853515625,-0.4742584228515625,-0.5030059814453125,-0.137908935546875
1761315607839901700,1.796901611328125,-0.515472412109375,-0.6060028076171875,-0.1407318115234375
1761315607849948700,1.80694873046875,-0.666717529296875,-0.7388916015625,-0.127044677734375
1761315607859996700,1.81699658203125,-0.835845947265625,-0.9130401611328125,-0.106658935546875
1761315607870044400,1.82704443359375,-1.0095977783203125,-1.0416259765625,-0.096221923828125
1761315607880091600,1.837091552734375,-1.182952880859375,-1.01800537109375,-0.16033935546875
1761315607890139600,1.8471396484375,-1.3370208740234375,-0.923614501953125,-0.2364501953125
1761315607900187400,1.8571875,-1.5341796875,-0.9176788330078125,-0.1962890625
1761315607910234600,1.867234619140625,-1.800567626953125,-0.9889068603515625,-0.05902099609375
1761315607920282600,1.87728271484375,-2.0593109130859375,-1.144287109375,0.1410369873046875
1761315607930329600,1.88732958984375,-2.2228546142578125,-1.296295166015625,0.415618896484375
1761315607940377600,1.897377685546875,-2.2578277587890625,-1.445465087890625,0.6698760986328125
1761315607950425600,1.907425537109375,-2.2303314208984375,-1.6214447021484375,0.8076171875
1761315607960472600,1.91747265625,-2.17449951171875,-1.754425048828125,0.8165130615234375
1761315607970520600,1.9275205078125,-2.0509185791015625,-1.7879180908203125,0.6688232421875
1761315607980568600,1.937568603515625,-1.9291534423828125,-1.700775146484375,0.40972900390625
1761315607990615600,1.947615478515625,-1.80853271484375,-1.4809112548828125,0.0587158203125
1761315608000663600,1.95766357421875,-1.5605926513671875,-1.2163543701171875,-0.306060791015625
1761315608010710500,1.96771044921875,-1.420013427734375,-0.9599456787109375,-0.497894287109375
1761315608020758500,1.977758544921875,-1.36572265625,-0.743377685546875,-0.527313232421875
1761315608030806500,1.987806640625,-1.2613525390625,-0.5642547607421875,-0.515777587890625
1761315608040853500,1.997853515625,-1.123565673828125,-0.4000091552734375,-0.472320556640625
1761315608050901800,2.00790185546875,-0.9900970458984375,-0.2838134765625,-0.410491943359375
1761315608060949500,2.017949462890625,-0.86785888671875,-0.2132110595703125,-0.36492919921875
1761315608070996500,2.02799658203125,-0.7335357666015625,-0.1322784423828125,-0.326324462890625
1761315608081044700,2.038044677734375,-0.595245361328125,-0.043975830078125,-0.2923126220703125
1761315608091092500,2.048092529296875,-0.459808349609375,0.0196075439453125,-0.259521484375
1761315608101139500,2.058139404296875,-0.3575286865234375,0.0448150634765625,-0.19696044921875
1761315608111187700,2.068187744140625,-0.27191162109375,0.0583038330078125,-0.1312103271484375
1761315608121234700,2.078234619140625,-0.173004150390625,0.0615081787109375,-0.0854644775390625
1761315608131282700,2.08828271484375,-0.06109619140625,0.0540008544921875,-0.050872802734375
1761315608141330400,2.098330322265625,0.0311431884765625,0.0428619384765625,-0.037384033203125
1761315608151377700,2.108377685546875,0.1123504638671875,0.0322113037109375,-0.015045166015625
1761315608161425700,2.11842578125,0.1512603759765625,0.0045623779296875,-0.000640869140625
1761315608171473400,2.128473388671875,0.1711578369140625,-0.039459228515625,0.0089569091796875
1761315608181520600,2.138520751953125,0.1792449951171875,-0.0823822021484375,-0.0067291259765625
1761315608191568600,2.148568603515625,0.1731109619140625,-0.103729248046875,-0.044525146484375
1761315608201615600,2.15861572265625,0.1402740478515625,-0.099578857421875,-0.0804290771484375
1761315608211663400,2.168663330078125,0.0913238525390625,-0.0774688720703125,-0.1107177734375
1761315608221711600,2.178711669921875,0.0416107177734375,-0.059600830078125,-0.1187286376953125
1761315608231758600,2.188758544921875,-0.0318450927734375,-0.034088134765625,-0.0962982177734375
1761315608241806600,2.198806640625,-0.101409912109375,-0.001495361328125,-0.06622314453125
1761315608251854600,2.2088544921875,-0.1397247314453125,0.0174560546875,-0.031494140625
1761315608261901600,2.218901611328125,-0.1723480224609375,-0.0106353759765625,0.0040435791015625
1761315608271949600,2.228949462890625,-0.2155914306640625,-0.089324951171875,0.033477783203125
1761315608281997600,2.23899755859375,-0.2587738037109375,-0.1651763916015625,0.0419464111328125
1761315608292044500,2.24904443359375,-0.270782470703125,-0.2037506103515625,0.0109100341796875
1761315608302092500,2.259092529296875,-0.2552032470703125,-0.2408599853515625,-0.04852294921875
1761315608312139500,2.269139404296875,-0.227264404296875,-0.302154541015625,-0.054534912109375
1761315608322187800,2.279187744140625,-0.221160888671875,-0.3984527587890625,0.0308990478515625
1761315608332235500,2.289235595703125,-0.2939910888671875,-0.5042724609375,0.160247802734375
1761315608342282500,2.299282470703125,-0.4144134521484375,-0.6289520263671875,0.287017822265625
1761315608352330800,2.309330810546875,-0.5637969970703125,-0.7399749755859375,0.363037109375
1761315608362378500,2.31937841796875,-0.720367431640625,-0.8635711669921875,0.410400390625
1761315608372425500,2.329425537109375,-0.8764190673828125,-1.0889892578125,0.511138916015625
1761315608382473500,2.339473388671875,-1.052734375,-1.4277496337890625,0.6674652099609375
1761315608392521700,2.349521728515625,-1.3333740234375,-1.722686767578125,0.7724151611328125
1761315608402568700,2.359568603515625,-1.7020721435546875,-1.8260955810546875,0.842376708984375
1761315608412616400,2.369616455078125,-2.0325775146484375,-1.7999114990234375,0.7667999267578125
1761315608422663700,2.37966357421875,-2.313568115234375,-1.811187744140625,0.5201568603515625
1761315608432711700,2.389711669921875,-2.4665374755859375,-1.78009033203125,0.238372802734375
1761315608442759400,2.399759521484375,-2.5206756591796875,-1.6400299072265625,-0.0391387939453125
1761315608452806400,2.409806396484375,-2.64874267578125,-1.4837646484375,-0.220794677734375
1761315608462854700,2.419854736328125,-2.6654205322265625,-1.344329833984375,-0.2742462158203125
1761315608472902700,2.429902587890625,-2.5905609130859375,-1.2058868408203125,-0.21417236328125
1761315608482949400,2.439949462890625,-2.4811859130859375,-1.0861663818359375,-0.123046875
1761315608492997600,2.44999755859375,-2.2347564697265625,-0.9498291015625,-0.067962646484375
1761315608503045600,2.460045654296875,-1.931732177734375,-0.83062744140625,-0.0464019775390625
1761315608513092600,2.470092529296875,-1.6136932373046875,-0.71771240234375,-0.0826416015625
1761315608523140600,2.480140625,-1.2808990478515625,-0.6201324462890625,-0.1540679931640625
1761315608533187600,2.4901875,-0.993743896484375,-0.5085296630859375,-0.176055908203125
1761315608543235600,2.500235595703125,-0.82586669921875,-0.4251251220703125,-0.1694183349609375
1761315608553283600,2.51028369140625,-0.7398681640625,-0.3516082763671875,-0.10333251953125
1761315608563330600,2.52033056640625,-0.7237701416015625,-0.236419677734375,0.000640869140625
1761315608573378600,2.530378662109375,-0.7021026611328125,-0.1362457275390625,0.0460052490234375
1761315608583426600,2.540426513671875,-0.6332244873046875,-0.0734405517578125,0.073974609375
1761315608593473800,2.550473876953125,-0.5368194580078125,-0.054840087890625,0.08428955078125
1761315608603521500,2.560521484375,-0.4427642822265625,0.0059051513671875,0.1038970947265625
1761315608613569500,2.570569580078125,-0.337738037109375,0.0566253662109375,0.1094207763671875
1761315608623616800,2.58061669921875,-0.254486083984375,0.091217041015625,0.0897216796875
1761315608633664500,2.59066455078125,-0.1320037841796875,0.1381378173828125,0.052398681640625
1761315608643711500,2.60071142578125,0.0575103759765625,0.1649932861328125,-0.0063018798828125
1761315608653759500,2.610759521484375,0.1855010986328125,0.1796112060546875,-0.0473480224609375
1761315608663807700,2.620807861328125,0.2280426025390625,0.14947509765625,-0.0464935302734375
1761315608673854500,2.6308544921875,0.28936767578125,0.1137237548828125,-0.0291290283203125
1761315608683902200,2.640902099609375,0.33270263671875,0.1359405517578125,-0.0328826904296875
1761315608693950200,2.6509501953125,0.3122711181640625,0.1404876708984375,-0.0496826171875
1761315608703997200,2.6609970703125,0.2680816650390625,0.1150970458984375,-0.098602294921875
1761315608714045200,2.671045166015625,0.2438201904296875,0.109466552734375,-0.1170654296875
1761315608724093200,2.68109326171875,0.163360595703125,0.101043701171875,-0.0882720947265625
1761315608734140200,2.69114013671875,0.0235443115234375,0.0434722900390625,-0.0777587890625
1761315608744188400,2.7011884765625,-0.0081024169921875,-0.074005126953125,-0.0317230224609375
1761315608754235400,2.7112353515625,0.0087127685546875,-0.19970703125,-0.0169525146484375
1761315608764283100,2.721283203125,-0.0263519287109375,-0.288726806640625,-0.03814697265625
1761315608774331400,2.731331298828125,-0.0973663330078125,-0.378509521484375,-0.01092529296875
1761315608784378400,2.74137841796875,-0.285919189453125,-0.5207672119140625,0.0102691650390625
1761315608794426000,2.751426025390625,-0.521514892578125,-0.7172698974609375,0.0238037109375
1761315608804474000,2.76147412109375,-0.736358642578125,-0.941558837890625,0.0141754150390625
1761315608814521300,2.771521240234375,-0.9853363037109375,-1.100372314453125,-0.0656585693359375
1761315608824569300,2.7815693359375,-1.1580963134765625,-1.260650634765625,-0.1285858154296875
1761315608834617000,2.7916171875,-1.273681640625,-1.4990081787109375,-0.124969482421875
1761315608844664000,2.8016640625,-1.4360504150390625,-1.734405517578125,-0.073516845703125
1761315608854712300,2.81171240234375,-1.592315673828125,-1.822601318359375,0.01373291015625
1761315608864759300,2.82175927734375,-1.643310546875,-1.7885894775390625,0.11712646484375
1761315608874807000,2.83180712890625,-1.6634368896484375,-1.8334808349609375,0.3084716796875
1761315608884855300,2.841855224609375,-1.7431488037109375,-1.912384033203125,0.5371551513671875
1761315608894902300,2.85190234375,-1.7510833740234375,-1.89501953125,0.6411590576171875
1761315608904950000,2.861949951171875,-1.7140655517578125,-1.833984375,0.6186981201171875
1761315608914998300,2.871998291015625,-1.6419677734375,-1.8105926513671875,0.5777130126953125
1761315608925045200,2.882045166015625,-1.5111236572265625,-1.7549896240234375,0.447235107421875
1761315608935093200,2.89209326171875,-1.4087982177734375,-1.562042236328125,0.255615234375
1761315608945141200,2.902141357421875,-1.338653564453125,-1.348236083984375,0.092437744140625
1761315608955188200,2.912188232421875,-1.26885986328125,-1.1538848876953125,0.017364501953125
1761315608965236200,2.922236328125,-1.1735687255859375,-0.9602508544921875,-0.0239715576171875
1761315608975283200,2.932283203125,-1.0379180908203125,-0.7793121337890625,-0.045013427734375
1761315608985331200,2.942331298828125,-0.874755859375,-0.6293792724609375,-0.060791015625
1761315608995379200,2.952379150390625,-0.7091827392578125,-0.51031494140625,-0.088409423828125
1761315609005426200,2.96242626953125,-0.5386199951171875,-0.406890869140625,-0.1575775146484375
1761315609015474400,2.972474365234375,-0.4012451171875,-0.279541015625,-0.218841552734375
1761315609025522200,2.982522216796875,-0.38043212890625,-0.1489105224609375,-0.253570556640625
1761315609035569200,2.992569091796875,-0.3511962890625,-0.0561981201171875,-0.2857818603515625
1761315609045617200,3.0026171875,-0.2977447509765625,0.020355224609375,-0.287689208984375
1761315609055665200,3.0126650390625,-0.2584075927734375,0.059967041015625,-0.26104736328125
1761315609065712000,3.022712158203125,-0.2421722412109375,0.0795440673828125,-0.2305908203125
1761315609075760000,3.032760009765625,-0.2291412353515625,0.0941925048828125,-0.18359375
1761315609085807400,3.042807373046875,-0.18585205078125,0.0908203125,-0.15203857421875
1761315609095855400,3.05285546875,-0.11956787109375,0.0858612060546875,-0.1318206787109375
1761315609105903000,3.062903076171875,-0.0995941162109375,0.0976715087890625,-0.1262969970703125
1761315609115950000,3.0729501953125,-0.077545166015625,0.098876953125,-0.11749267578125
1761315609125998300,3.082998291015625,-0.0401763916015625,0.0890960693359375,-0.109222412109375
1761315609136046000,3.093046142578125,-0.0198516845703125,0.0939788818359375,-0.1002044677734375
1761315609146093000,3.103093017578125,-0.041473388671875,0.105560302734375,-0.0777130126953125
1761315609156141300,3.113141357421875,-0.0913238525390625,0.101593017578125,-0.038360595703125
1761315609166189300,3.123189208984375,-0.1304779052734375,0.100677490234375,0.0033416748046875
1761315609176236000,3.133236083984375,-0.1586456298828125,0.0826416015625,0.02685546875
1761315609186284300,3.1432841796875,-0.153411865234375,0.065032958984375,0.0230255126953125
1761315609196331300,3.153331298828125,-0.116668701171875,0.05902099609375,-0.0097503662109375
1761315609206379300,3.163379150390625,-0.028167724609375,0.08074951171875,-0.0472869873046875
1761315609216427300,3.17342724609375,-0.0359649658203125,0.0498199462890625,-0.08062744140625
1761315609226474200,3.18347412109375,-0.0705413818359375,-0.024658203125,-0.0610198974609375
1761315609236522200,3.193522216796875,-0.111907958984375,-0.0552520751953125,-0.066375732421875
1761315609246570000,3.203570068359375,-0.165618896484375,-0.104766845703125,-0.0653839111328125
1761315609256617200,3.2136171875,-0.2265777587890625,-0.26617431640625,-0.0437164306640625
1761315609266665200,3.223665283203125,-0.3789520263671875,-0.4930419921875,0.0321197509765625
1761315609276712200,3.233712158203125,-0.6107025146484375,-0.7176361083984375,0.1413421630859375
1761315609286760400,3.243760498046875,-0.9024505615234375,-0.865997314453125,0.20953369140625
1761315609296808200,3.25380810546875,-1.14337158203125,-0.9252777099609375,0.2156982421875
1761315609306855200,3.263855224609375,-1.427001953125,-1.045501708984375,0.270050048828125
1761315609316903200,3.273903076171875,-1.827667236328125,-1.30474853515625,0.4350433349609375
1761315609326951200,3.283951171875,-2.10369873046875,-1.4859161376953125,0.5196380615234375
1761315609336998100,3.293998046875,-2.398712158203125,-1.6023101806640625,0.45526123046875
1761315609347046100,3.304046142578125,-2.7185516357421875,-1.6761932373046875,0.2740478515625
1761315609357094400,3.314094482421875,-2.7961578369140625,-1.6299896240234375,0.216644287109375
1761315609367141000,3.32414111328125,-2.8326568603515625,-1.645294189453125,0.1464996337890625
1761315609377189000,3.334189208984375,-2.9116973876953125,-1.6716766357421875,0.0930938720703125
1761315609387236000,3.344236083984375,-2.885528564453125,-1.6813507080078125,0.1477813720703125
1761315609397284400,3.354284423828125,-2.756805419921875,-1.5541229248046875,0.1210174560546875
1761315609407332000,3.36433203125,-2.4874420166015625,-1.321380615234375,0.0318603515625
1761315609417379000,3.374379150390625,-2.113250732421875,-1.068695068359375,-0.0493621826171875
1761315609427427300,3.38442724609375,-1.6966400146484375,-0.846710205078125,-0.084014892578125
1761315609437475300,3.394475341796875,-1.349853515625,-0.635894775390625,-0.06048583984375
1761315609447522000,3.40452197265625,-1.0895538330078125,-0.4592132568359375,-0.020050048828125
1761315609457570300,3.4145703125,-0.876739501953125,-0.293914794921875,0.013397216796875
1761315609467617300,3.4246171875,-0.7269744873046875,-0.162139892578125,0.03662109375
1761315609477665300,3.434665283203125,-0.59429931640625,-0.03521728515625,0.0462799072265625
1761315609487713000,3.444713134765625,-0.47979736328125,0.075286865234375,0.0514373779296875
1761315609497760300,3.45476025390625,-0.3693695068359375,0.144256591796875,0.043487548828125
1761315609507808300,3.464808349609375,-0.2516326904296875,0.1512451171875,0.060516357421875
1761315609517856000,3.47485595703125,-0.1830596923828125,0.1268157958984375,0.089141845703125
1761315609527903200,3.4849033203125,-0.127105712890625,0.1146392822265625,0.114898681640625
1761315609537951200,3.494951171875,-0.09881591796875,0.1118621826171875,0.146148681640625
1761315609547999200,3.504999267578125,-0.05975341796875,0.1148529052734375,0.159332275390625
1761315609558046200,3.515046142578125,-0.026611328125,0.129669189453125,0.15093994140625
1761315609568094200,3.52509423828125,-0.0128326416015625,0.1409454345703125,0.1377410888671875
1761315609578141200,3.53514111328125,-0.03594970703125,0.2062225341796875,0.12115478515625
1761315609588189200,3.545189208984375,-0.0356903076171875,0.309173583984375,0.12158203125
1761315609598237200,3.5552373046875,-0.0314788818359375,0.368072509765625,0.1472320556640625
1761315609608284200,3.5652841796875,-0.0558013916015625,0.4004669189453125,0.1597442626953125
1761315609618332200,3.575332275390625,-0.0328521728515625,0.3919677734375,0.194122314453125
1761315609628380400,3.58538037109375,-0.0117950439453125,0.3235626220703125,0.2791748046875
1761315609638427100,3.59542724609375,-0.0359649658203125,0.2304229736328125,0.3532562255859375
1761315609648475100,3.60547509765625,-0.07147216796875,0.1460418701171875,0.3795623779296875
1761315609658523400,3.6155234375,-0.0844879150390625,0.073333740234375,0.2980499267578125
1761315609668570400,3.6255703125,-0.1059722900390625,-0.0059814453125,0.156707763671875
1761315609678618400,3.635618408203125,-0.1268768310546875,-0.090484619140625,-0.0092315673828125
1761315609688665300,3.645665283203125,-0.102691650390625,-0.1842041015625,-0.1848907470703125
1761315609698713600,3.655713623046875,-0.11053466796875,-0.2667236328125,-0.3529205322265625
1761315609708761300,3.66576123046875,-0.1332855224609375,-0.33465576171875,-0.4886932373046875
1761315609718808300,3.675808349609375,-0.21868896484375,-0.398040771484375,-0.59381103515625
1761315609728856600,3.685856689453125,-0.380859375,-0.504425048828125,-0.56182861328125
1761315609738904600,3.695904541015625,-0.6120147705078125,-0.7122039794921875,-0.4293365478515625
1761315609748951600,3.70595166015625,-0.87591552734375,-0.97735595703125,-0.283416748046875
1761315609758999600,3.71599951171875,-1.1067047119140625,-1.099273681640625,-0.2422332763671875
1761315609769046500,3.726046630859375,-1.3331298828125,-0.9776763916015625,-0.2698822021484375
1761315609779094500,3.736094482421875,-1.6437530517578125,-0.971588134765625,-0.2073211669921875
1761315609789142500,3.746142578125,-1.891937255859375,-1.0672760009765625,-0.1603851318359375
1761315609799189500,3.756189453125,-2.1229248046875,-1.028778076171875,-0.053314208984375
1761315609809237500,3.766237548828125,-2.42803955078125,-1.2093048095703125,0.245208740234375
1761315609819285500,3.776285400390625,-2.61859130859375,-1.392059326171875,0.47418212890625
1761315609829332500,3.78633251953125,-2.564971923828125,-1.3460693359375,0.4730682373046875
1761315609839380500,3.79638037109375,-2.3521575927734375,-1.335113525390625,0.353668212890625
1761315609849427500,3.806427490234375,-2.1259307861328125,-1.3450927734375,0.168243408203125
1761315609859475700,3.816475830078125,-1.9552001953125,-1.3332977294921875,-0.0588531494140625
1761315609869523500,3.8265234375,-1.8147430419921875,-1.2540740966796875,-0.3005523681640625
1761315609879570400,3.8365703125,-1.70263671875,-1.0321197509765625,-0.4709320068359375
1761315609889618400,3.846618408203125,-1.661285400390625,-0.776275634765625,-0.543243408203125
1761315609899666400,3.85666650390625,-1.7176971435546875,-0.543060302734375,-0.497344970703125
1761315609909713400,3.86671337890625,-1.7073822021484375,-0.3436126708984375,-0.397064208984375
1761315609919761400,3.876761474609375,-1.6597442626953125,-0.178192138671875,-0.286865234375
1761315609929808600,3.88680859375,-1.577606201171875,-0.048736572265625,-0.187896728515625
1761315609939856600,3.896856689453125,-1.4547576904296875,0.04742431640625,-0.121612548828125
1761315609949904400,3.906904296875,-1.2735137939453125,0.10882568359375,-0.0952911376953125
1761315609959951400,3.916951416015625,-1.0445098876953125,0.1484832763671875,-0.0963897705078125
1761315609969999600,3.92699951171875,-0.8157958984375,0.1304779052734375,-0.0747833251953125
1761315609980047400,3.93704736328125,-0.5909881591796875,0.0809326171875,-0.051300048828125
1761315609990094300,3.94709423828125,-0.39215087890625,0.046112060546875,-0.01995849609375
1761315610000142600,3.957142578125,-0.2706756591796875,-0.015960693359375,0.036956787109375
1761315610010190600,3.967190673828125,-0.1861724853515625,-0.05950927734375,0.071258544921875
1761315610020237600,3.977237548828125,-0.1470947265625,-0.0660247802734375,0.073638916015625
1761315610030285600,3.98728564453125,-0.10791015625,-0.0579071044921875,0.069366455078125
1761315610040332500,3.99733251953125,-0.0557708740234375,-0.0510101318359375,0.07464599609375
1761315610050380500,4.007380615234375,-0.0126800537109375,-0.0378265380859375,0.0840606689453125
1761315610060428500,4.017428466796875,-0.01641845703125,0.0058746337890625,0.0741119384765625
1761315610070475500,4.0274755859375,0.13714599609375,0.130889892578125,0.073760986328125
1761315610080523500,4.0375234375,0.1422576904296875,0.14569091796875,0.03436279296875
1761315610090571500,4.047571533203125,0.1127777099609375,0.110992431640625,0.0419769287109375
1761315610100618500,4.057618408203125,0.1272430419921875,0.1207427978515625,0.0470733642578125
1761315610110666500,4.06766650390625,0.1221923828125,0.1424407958984375,0.0386962890625
1761315610120713500,4.07771337890625,0.139190673828125,0.1425018310546875,0.029327392578125
1761315610130761500,4.087761474609375,0.164764404296875,0.157135009765625,-0.00732421875
1761315610140809500,4.0978095703125,0.160247802734375,0.194732666015625,-0.0431671142578125
1761315610150856400,4.1078564453125,0.126678466796875,0.1921844482421875,-0.072662353515625
1761315610160904400,4.117904541015625,0.1210174560546875,0.166107177734375,-0.0965423583984375
1761315610170952400,4.127952392578125,0.0901947021484375,0.1092681884765625,-0.09906005859375
1761315610180999400,4.13799951171875,0.0506744384765625,-0.0147552490234375,-0.08544921875
1761315610191047400,4.14804736328125,0.06451416015625,-0.1585693359375,-0.0531768798828125
1761315610201094400,4.158094482421875,0.1129913330078125,-0.2984466552734375,-0.0108642578125
1761315610211142700,4.168142578125,0.1673126220703125,-0.4922943115234375,0.0665130615234375
1761315610221190400,4.1781904296875,0.1990966796875,-0.67388916015625,0.19500732421875
1761315610231237400,4.1882373046875,0.0955352783203125,-0.6907196044921875,0.2817840576171875
1761315610241285600,4.19828564453125,-0.076995849609375,-0.689208984375,0.360809326171875
1761315610251333400,4.20833349609375,-0.2795257568359375,-1.0386505126953125,0.49493408203125
1761315610261380400,4.21838037109375,-0.5785064697265625,-1.66192626953125,0.5890655517578125
1761315610271428600,4.2284287109375,-0.9277496337890625,-2.052154541015625,0.5690155029296875
1761315610281475600,4.2384755859375,-1.38665771484375,-2.14898681640625,0.5559234619140625
1761315610291523600,4.248523681640625,-1.8844451904296875,-2.0139312744140625,0.4962310791015625
1761315610301571600,4.258571533203125,-2.523773193359375,-1.884063720703125,0.4762725830078125
1761315610311618600,4.26861865234375,-3.135009765625,-1.8388214111328125,0.342498779296875
1761315610321666600,4.27866650390625,-3.3875274658203125,-1.4352874755859375,-0.056304931640625
1761315610331714300,4.28871435546875,-3.3046112060546875,-0.9412841796875,-0.4304351806640625
1761315610341761500,4.298761474609375,-3.106201171875,-0.526763916015625,-0.5597381591796875
1761315610351809500,4.3088095703125,-2.98724365234375,-0.197540283203125,-0.525604248046875
1761315610361856500,4.3188564453125,-2.9431304931640625,-0.00128173828125,-0.3861236572265625
1761315610371904500,4.328904541015625,-2.8663177490234375,0.0421905517578125,-0.170135498046875
1761315610381952500,4.338952392578125,-2.6638031005859375,0.0176544189453125,0.00762939453125
1761315610391999500,4.34899951171875,-2.312347412109375,-0.0160980224609375,0.0974884033203125
1761315610402047500,4.359047607421875,-1.8575897216796875,-0.067535400390625,0.135009765625
1761315610412095500,4.369095458984375,-1.376068115234375,-0.0817718505859375,0.0936431884765625
1761315610422142500,4.379142578125,-0.9076385498046875,-0.060882568359375,-0.001739501953125
1761315610432190500,4.3891904296875,-0.5304718017578125,-0.026458740234375,-0.137237548828125
1761315610442237700,4.39923779296875,-0.2638092041015625,-0.001739501953125,-0.2517547607421875
1761315610452285400,4.409285400390625,-0.0987548828125,-0.010162353515625,-0.2764434814453125
1761315610462333400,4.41933349609375,-0.0304412841796875,-0.0576171875,-0.2310943603515625
1761315610472380400,4.42938037109375,0.00811767578125,-0.098907470703125,-0.1595306396484375
1761315610482428700,4.4394287109375,0.0224151611328125,-0.1253662109375,-0.09271240234375
1761315610492476400,4.449476318359375,0.0353851318359375,-0.131622314453125,-0.0336761474609375
1761315610502523400,4.4595234375,0.0359039306640625,-0.1375885009765625,0.017242431640625
1761315610512571600,4.469571533203125,0.0188446044921875,-0.1393585205078125,0.049163818359375
1761315610522618600,4.47961865234375,0.0112152099609375,-0.1220855712890625,0.061309814453125
1761315610532666400,4.489666259765625,0.01165771484375,-0.1005706787109375,0.0492706298828125
1761315610542714600,4.499714599609375,0.0283050537109375,-0.069091796875,-0.0001373291015625
1761315610552761600,4.50976171875,0.0644073486328125,-0.033721923828125,-0.0750732421875
1761315610562809300,4.519809326171875,0.0997161865234375,-0.001983642578125,-0.139862060546875
1761315610572856300,4.529856201171875,0.1050262451171875,0.0166168212890625,-0.1711273193359375
1761315610582904600,4.539904541015625,0.0995330810546875,0.016204833984375,-0.1568145751953125
1761315610592952600,4.54995263671875,0.10662841796875,0.000579833984375,-0.129730224609375
1761315610602999600,4.55999951171875,0.0928192138671875,-0.02642822265625,-0.0991668701171875
1761315610613047600,4.570047607421875,0.1182403564453125,-0.0863189697265625,-0.0691070556640625
1761315610623095600,4.580095458984375,0.122528076171875,-0.172943115234375,-0.037384033203125
1761315610633142500,4.590142578125,0.126495361328125,-0.3029937744140625,-0.0013275146484375
1761315610643190500,4.6001904296875,0.1523895263671875,-0.47833251953125,0.024688720703125
1761315610653237500,4.610237548828125,0.2039031982421875,-0.640106201171875,0.0385894775390625
1761315610663285500,4.620285400390625,0.219085693359375,-0.7756195068359375,0.0464324951171875
1761315610673333500,4.63033349609375,0.1585693359375,-0.91448974609375,0.0938568115234375
1761315610683380000,4.6403798828125,-0.0078277587890625,-1.0772552490234375,0.17474365234375
1761315610693427700,4.650427734375,-0.2670745849609375,-1.253265380859375,0.2218475341796875
1761315610703476000,4.66047607421875,-0.688690185546875,-1.31744384765625,0.159210205078125
1761315610713523000,4.67052294921875,-1.0980987548828125,-1.2707672119140625,-0.0057220458984375
1761315610723571000,4.680571044921875,-1.4585418701171875,-1.2468109130859375,-0.175933837890625
1761315610733617700,4.69061767578125,-1.9699249267578125,-1.2647247314453125,-0.34075927734375
1761315610743666000,4.700666015625,-2.4914398193359375,-1.245849609375,-0.3929443359375
1761315610753714000,4.7107138671875,-3.111358642578125,-1.13751220703125,-0.2764434814453125
1761315610763761000,4.720760986328125,-3.565338134765625,-1.04229736328125,-0.065399169921875
1761315610773809000,4.730808837890625,-3.655181884765625,-0.9774169921875,0.0672607421875
1761315610783855900,4.74085595703125,-3.448974609375,-0.836669921875,0.05023193359375
1761315610793903900,4.75090380859375,-3.0706939697265625,-0.7193145751953125,-0.019866943359375
1761315610803951600,4.76095166015625,-2.707794189453125,-0.73779296875,-0.003021240234375
1761315610813998800,4.770998779296875,-2.3654327392578125,-0.8368682861328125,0.052825927734375
1761315610824046800,4.781046875,-2.0616455078125,-0.885894775390625,0.0451202392578125
1761315610834094800,4.7910947265625,-1.7745513916015625,-0.8988494873046875,0.00799560546875
1761315610844141800,4.801141845703125,-1.493072509765625,-0.8690948486328125,-0.054107666015625
1761315610854189800,4.81118994140625,-1.2327117919921875,-0.76092529296875,-0.1230010986328125
1761315610864236800,4.82123681640625,-1.00726318359375,-0.603271484375,-0.1822509765625
1761315610874284800,4.831284912109375,-0.8034210205078125,-0.4580230712890625,-0.2192535400390625
1761315610884329700,4.841329833984375,-0.6207733154296875,-0.36553955078125,-0.2298583984375
1761315610894376700,4.851376708984375,-0.4505767822265625,-0.3284912109375,-0.216705322265625
1761315610904425000,4.861425048828125,-0.3370208740234375,-0.3402252197265625,-0.184539794921875
1761315610914472700,4.87147265625,-0.25970458984375,-0.332000732421875,-0.15106201171875
1761315610924519700,4.881519775390625,-0.230987548828125,-0.2371063232421875,-0.1385345458984375
1761315610934568000,4.89156787109375,-0.240020751953125,-0.12799072265625,-0.1493682861328125
1761315610944615000,4.901614990234375,-0.2451629638671875,-0.06524658203125,-0.1183013916015625
1761315610954663000,4.911662841796875,-0.2645111083984375,-0.0373077392578125,-0.052215576171875
1761315610964711000,4.9217109375,-0.2598876953125,-0.0149383544921875,0.02069091796875
1761315610974758000,4.9317578125,-0.23712158203125,0.016998291015625,0.0689849853515625
1761315610984806000,4.941805908203125,-0.1852569580078125,0.0167083740234375,0.0965576171875
1761315610994853600,4.951853515625,-0.1268463134765625,-0.01708984375,0.1071624755859375
1761315611004900900,4.96190087890625,-0.073516845703125,-0.052276611328125,0.10101318359375
1761315611014948900,4.971948974609375,-0.02093505859375,-0.0854034423828125,0.08648681640625
1761315611024995800,4.981995849609375,0.03265380859375,-0.1007232666015625,0.043487548828125
1761315611035043800,4.9920439453125,0.1106414794921875,-0.10101318359375,-0.0212554931640625
1761315611045091800,5.002091796875,0.1745147705078125,-0.08709716796875,-0.071746826171875
1761315611055138800,5.012138916015625,0.1641387939453125,-0.062774658203125,-0.0963897705078125
1761315611065186800,5.022186767578125,0.1065216064453125,-0.014068603515625,-0.122894287109375
1761315611075234000,5.032234130859375,0.1195220947265625,0.0225372314453125,-0.166168212890625
1761315611085281800,5.04228173828125,0.1721954345703125,0.0159759521484375,-0.2106781005859375
1761315611095329800,5.052329833984375,0.1934967041015625,-0.0076751708984375,-0.2395172119140625
1761315611105376800,5.062376708984375,0.2186737060546875,-0.0155181884765625,-0.220550537109375
1761315611115424800,5.0724248046875,0.25152587890625,-0.036712646484375,-0.203399658203125
1761315611125471700,5.0824716796875,0.199493408203125,-0.0878448486328125,-0.100738525390625
1761315611135519700,5.092519775390625,0.06121826171875,-0.2006378173828125,0.05352783203125
1761315611145568000,5.102568115234375,-0.078704833984375,-0.401702880859375,0.2777557373046875
1761315611155615000,5.112614990234375,-0.219940185546875,-0.588104248046875,0.4316558837890625
1761315611165662700,5.122662841796875,-0.4505615234375,-0.63916015625,0.390655517578125
1761315611175711000,5.1327109375,-0.7749786376953125,-0.67230224609375,0.30084228515625
1761315611185758000,5.142758056640625,-1.0183563232421875,-0.8288421630859375,0.3384857177734375
1761315611195805700,5.1528056640625,-1.3797607421875,-0.9468841552734375,0.313385009765625
1761315611205852700,5.162852783203125,-1.833099365234375,-0.9035797119140625,0.237884521484375
1761315611215901000,5.17290087890625,-2.0296783447265625,-0.8724365234375,0.0894012451171875
1761315611225949000,5.182948974609375,-2.2540283203125,-0.88995361328125,0.0290374755859375
1761315611235995600,5.19299560546875,-2.4804840087890625,-0.955596923828125,0.1092529296875
1761315611246044000,5.2030439453125,-2.562103271484375,-0.9615325927734375,0.1523590087890625
1761315611256091000,5.2130908203125,-2.5343780517578125,-1.0411224365234375,0.197998046875
1761315611266139000,5.223138916015625,-2.5361328125,-1.1957855224609375,0.33428955078125
1761315611276187000,5.233186767578125,-2.497467041015625,-1.3111114501953125,0.4032745361328125
1761315611286233900,5.24323388671875,-2.351959228515625,-1.343841552734375,0.342041015625
1761315611296281900,5.25328173828125,-2.119903564453125,-1.376068115234375,0.2000274658203125
1761315611306329600,5.26332958984375,-1.8535003662109375,-1.2816619873046875,0.028778076171875
1761315611316376800,5.273376953125,-1.6063079833984375,-1.2120819091796875,-0.155059814453125
1761315611326424800,5.2834248046875,-1.4494781494140625,-1.166290283203125,-0.1478271484375
1761315611336471800,5.293471923828125,-1.4083404541015625,-0.98358154296875,-0.1515655517578125
1761315611346520000,5.30352001953125,-1.3311767578125,-0.684967041015625,-0.145477294921875
1761315611356567800,5.31356787109375,-1.2523040771484375,-0.4595794677734375,-0.0879058837890625
1761315611366614800,5.32361474609375,-1.172943115234375,-0.3109283447265625,-0.0223236083984375
1761315611376662800,5.333662841796875,-1.0399932861328125,-0.18255615234375,0.0224456787109375
1761315611386710000,5.3437099609375,-0.8809356689453125,-0.08251953125,0.05126953125
1761315611396757800,5.3537578125,-0.719512939453125,-0.027740478515625,0.0536346435546875
1761315611406805800,5.3638056640625,-0.552459716796875,-0.005126953125,0.0417938232421875
1761315611416853000,5.37385302734375,-0.3932342529296875,-0.0025634765625,0.0460968017578125
1761315611426900700,5.383900634765625,-0.2238006591796875,0.0014190673828125,0.04534912109375
1761315611436947700,5.39394775390625,-0.093475341796875,-0.0122528076171875,0.0371246337890625
1761315611446995700,5.40399560546875,-0.00189208984375,-0.0400543212890625,0.0222320556640625
1761315611457044000,5.4140439453125,0.094818115234375,-0.0746002197265625,0.0204315185546875
1761315611467091000,5.424091064453125,0.1653289794921875,-0.10198974609375,0.01898193359375
1761315611477138700,5.434138671875,0.1955718994140625,-0.134918212890625,0.001190185546875
1761315611487186000,5.44418603515625,0.199859619140625,-0.1598968505859375,-0.020111083984375
1761315611497234000,5.45423388671875,0.179656982421875,-0.1546630859375,-0.0449371337890625
1761315611507281700,5.46428173828125,0.1551971435546875,-0.1318359375,-0.096038818359375
1761315611517328600,5.47432861328125,0.137603759765625,-0.0850067138671875,-0.1566009521484375
1761315611527377000,5.484376953125,0.108917236328125,-0.0322723388671875,-0.21282958984375
1761315611537424000,5.494423828125,0.0585784912109375,0.0276947021484375,-0.2518310546875
1761315611547472000,5.504471923828125,0.0088043212890625,0.0904693603515625,-0.2651214599609375
1761315611557520000,5.514519775390625,-0.0318756103515625,0.1316680908203125,-0.2718963623046875
1761315611567566800,5.52456689453125,-0.0909271240234375,0.146484375,-0.25909423828125
1761315611577614800,5.53461474609375,-0.1344146728515625,0.10687255859375,-0.1800994873046875
1761315611587662800,5.544662841796875,-0.1622161865234375,-0.0084686279296875,-0.0605010986328125
1761315611597709800,5.554709716796875,-0.2149658203125,-0.15771484375,0.0336456298828125
1761315611607757800,5.5647578125,-0.266571044921875,-0.2779388427734375,0.0808258056640625
1761315611617804800,5.5748046875,-0.3042144775390625,-0.404632568359375,0.1070404052734375
1761315611627852800,5.584852783203125,-0.435577392578125,-0.5622406005859375,0.1612091064453125
1761315611637900800,5.59490087890625,-0.55804443359375,-0.7186737060546875,0.2110137939453125
1761315611647947800,5.60494775390625,-0.6903533935546875,-0.8077239990234375,0.181121826171875
1761315611657996000,5.61499609375,-0.87811279296875,-0.8538055419921875,0.1419830322265625
1761315611668043000,5.62504296875,-1.10162353515625,-1.01983642578125,0.24945068359375
1761315611678090800,5.6350908203125,-1.344635009765625,-1.1677398681640625,0.4014434814453125
1761315611688139000,5.645138916015625,-1.5906829833984375,-1.2654571533203125,0.5420989990234375
1761315611698186000,5.65518603515625,-1.78271484375,-1.430877685546875,0.7053680419921875
1761315611708234000,5.66523388671875,-1.8810882568359375,-1.545501708984375,0.811920166015625
1761315611718281000,5.675281005859375,-1.8890838623046875,-1.5564727783203125,0.806060791015625
1761315611728329000,5.685328857421875,-1.7857666015625,-1.70098876953125,0.7845001220703125
1761315611738377200,5.695377197265625,-1.7151641845703125,-1.9182891845703125,0.7551116943359375
1761315611748424000,5.705423828125,-1.6958160400390625,-1.9976959228515625,0.6694793701171875
1761315611758472000,5.715471923828125,-1.668182373046875,-1.906768798828125,0.4695281982421875
1761315611768519000,5.725518798828125,-1.666778564453125,-1.685699462890625,0.213104248046875
1761315611778567200,5.735567138671875,-1.714569091796875,-1.3955078125,-0.044677734375
1761315611788615000,5.745614990234375,-1.763427734375,-1.081512451171875,-0.181396484375
1761315611798662000,5.755661865234375,-1.7675018310546875,-0.7928009033203125,-0.1888885498046875
1761315611808710100,5.765710205078125,-1.7231597900390625,-0.5684051513671875,-0.1207427978515625
1761315611818757000,5.775757080078125,-1.65924072265625,-0.4302825927734375,-0.02252197265625
1761315611828804900,5.785804931640625,-1.4797821044921875,-0.32568359375,0.0569915771484375
1761315611838853000,5.79585302734375,-1.21148681640625,-0.2265625,0.0538177490234375
1761315611848900000,5.805900146484375,-0.9012451171875,-0.1358642578125,0.0086822509765625
1761315611858948000,5.815947998046875,-0.630859375,-0.060516357421875,-0.0364532470703125
1761315611868995000,5.8259951171875,-0.4051055908203125,-0.0155181884765625,-0.0732421875
1761315611879043000,5.83604296875,-0.2270355224609375,-0.0255584716796875,-0.0908660888671875
1761315611889091000,5.846091064453125,-0.09613037109375,-0.087646484375,-0.0562744140625
1761315611899138000,5.856137939453125,-0.0450592041015625,-0.1852569580078125,0.007476806640625
1761315611909185800,5.866185791015625,-0.02044677734375,-0.2711944580078125,0.0523681640625
1761315611919233000,5.87623291015625,0.0306854248046875,-0.302734375,0.0823822021484375
1761315611929281000,5.886281005859375,0.0657501220703125,-0.3070526123046875,0.1089935302734375
1761315611939329000,5.8963291015625,0.0625762939453125,-0.316741943359375,0.1175994873046875
1761315611949376000,5.9063759765625,0.0380859375,-0.3142852783203125,0.1195068359375
1761315611959424000,5.916424072265625,0.01385498046875,-0.271484375,0.11920166015625
1761315611969471000,5.926470947265625,-0.0351104736328125,-0.22381591796875,0.118621826171875
1761315611979519000,5.93651904296875,-0.10992431640625,-0.1195526123046875,0.067718505859375
1761315611989567000,5.94656689453125,-0.2037506103515625,-0.0404510498046875,0.0317230224609375
1761315611999614000,5.956614013671875,-0.237823486328125,-0.0497589111328125,0.0393829345703125
1761315612009662000,5.966661865234375,-0.2007598876953125,-0.0677642822265625,0.051971435546875
1761315612019709200,5.976709228515625,-0.1917572021484375,-0.0559234619140625,0.06005859375
1761315612029757000,5.9867568359375,-0.2258453369140625,-0.033966064453125,0.049072265625
1761315612039805000,5.996804931640625,-0.2264404296875,-0.009368896484375,0.0401763916015625
1761315612049852000,6.006851806640625,-0.2073516845703125,-0.0073089599609375,-0.0076751708984375
1761315612059900200,6.016900146484375,-0.1909332275390625,-0.0145263671875,-0.090057373046875
1761315612069947000,6.02694677734375,-0.187713623046875,-0.0127105712890625,-0.16961669921875
1761315612079995000,6.036994873046875,-0.1871795654296875,-0.0192108154296875,-0.193756103515625
1761315612090043100,6.047043212890625,-0.3339691162109375,-0.076202392578125,-0.149993896484375
1761315612100090000,6.057090087890625,-0.559326171875,-0.2333221435546875,-0.0729217529296875
1761315612110137900,6.067137939453125,-0.72882080078125,-0.4441070556640625,0.0236358642578125
1761315612120184800,6.077184814453125,-0.8606414794921875,-0.70892333984375,0.1834869384765625
1761315612130233000,6.087233154296875,-0.994964599609375,-0.9912261962890625,0.30084228515625
1761315612140281000,6.097281005859375,-1.14581298828125,-1.1454010009765625,0.3176727294921875
1761315612150327800,6.107327880859375,-1.31732177734375,-1.2371368408203125,0.3336944580078125
1761315612160376000,6.1173759765625,-1.5442047119140625,-1.34356689453125,0.361083984375
1761315612170423000,6.127423095703125,-1.6244354248046875,-1.2606658935546875,0.3436279296875
1761315612180471000,6.137470947265625,-1.796417236328125,-1.242919921875,0.286651611328125
1761315612190519000,6.14751904296875,-2.0372314453125,-1.31640625,0.362091064453125
1761315612200566000,6.15756591796875,-2.1593475341796875,-1.278717041015625,0.4472198486328125
1761315612210614000,6.167614013671875,-2.280609130859375,-1.3077239990234375,0.5132293701171875
1761315612220662000,6.177662109375,-2.27972412109375,-1.3258819580078125,0.4561309814453125
1761315612230709000,6.187708984375,-2.1473846435546875,-1.204071044921875,0.2638092041015625
1761315612240757000,6.197757080078125,-2.00042724609375,-1.011138916015625,0.0608062744140625
1761315612250804000,6.207803955078125,-1.839569091796875,-0.7774505615234375,-0.087738037109375
1761315612260852200,6.217852294921875,-1.69598388671875,-0.5704345703125,-0.153167724609375
1761315612270899000,6.22789892578125,-1.5326995849609375,-0.4430389404296875,-0.1409454345703125
1761315612280947000,6.237947021484375,-1.4035491943359375,-0.4081268310546875,-0.065765380859375
1761315612290995200,6.2479951171875,-1.2826995849609375,-0.4312286376953125,-0.004852294921875
1761315612301042200,6.258042236328125,-1.112762451171875,-0.43438720703125,0.009613037109375
1761315612311090000,6.26808984375,-0.9395904541015625,-0.40423583984375,-0.0019683837890625
1761315612321137000,6.278136962890625,-0.7721405029296875,-0.3709564208984375,-0.017578125
1761315612331185200,6.28818505859375,-0.61956787109375,-0.3331298828125,-0.0433807373046875
1761315612341233000,6.29823291015625,-0.48046875,-0.2828216552734375,-0.066558837890625
1761315612351279900,6.30827978515625,-0.3909149169921875,-0.223388671875,-0.06781005859375
1761315612361327900,6.318327880859375,-0.33709716796875,-0.1785736083984375,-0.0535888671875
1761315612371375000,6.328375,-0.2773895263671875,-0.1502838134765625,-0.0325927734375
1761315612381423000,6.338423095703125,-0.2364959716796875,-0.1327972412109375,-0.0167083740234375
1761315612391470800,6.348470947265625,-0.2121429443359375,-0.1348114013671875,0.007415771484375
1761315612401518000,6.35851806640625,-0.203094482421875,-0.14776611328125,0.0277252197265625
1761315612411566000,6.368566162109375,-0.2211151123046875,-0.1546173095703125,0.0130157470703125
1761315612421613000,6.378613037109375,-0.2006988525390625,-0.15093994140625,-0.016754150390625
1761315612431660800,6.388660888671875,-0.1845855712890625,-0.127349853515625,-0.050445556640625
1761315612441709000,6.398708984375,-0.2168121337890625,-0.0838775634765625,-0.0929412841796875
1761315612451756000,6.408756103515625,-0.2165069580078125,-0.0524139404296875,-0.1293182373046875
1761315612461804000,6.418803955078125,-0.1810302734375,-0.026611328125,-0.1400146484375
1761315612471851000,6.42885107421875,-0.1507568359375,0.000732421875,-0.1035308837890625
1761315612481899000,6.43889892578125,-0.164642333984375,-0.0025482177734375,-0.02996826171875
1761315612491947000,6.448947021484375,-0.247772216796875,-0.0157012939453125,0.0219268798828125
1761315612501994000,6.458993896484375,-0.2546234130859375,-0.030914306640625,0.0475311279296875
1761315612512042000,6.4690419921875,-0.254119873046875,-0.0682373046875,0.044403076171875
1761315612522089000,6.4790888671875,-0.2588348388671875,-0.167388916015625,0.0208587646484375
1761315612532137000,6.489136962890625,-0.178802490234375,-0.3463897705078125,0.03546142578125
1761315612542185000,6.49918505859375,-0.181915283203125,-0.57952880859375,0.1190338134765625
1761315612552232000,6.50923193359375,-0.3165130615234375,-0.801513671875,0.2509765625
1761315612562280000,6.519280029296875,-0.4536285400390625,-0.937957763671875,0.3364105224609375
1761315612572327000,6.529326904296875,-0.6183319091796875,-1.0424652099609375,0.3011932373046875
1761315612582375200,6.539375244140625,-0.7069549560546875,-1.1523895263671875,0.1923675537109375
1761315612592423000,6.5494228515625,-0.7946929931640625,-1.361053466796875,0.1339569091796875
1761315612602470000,6.559469970703125,-0.9839019775390625,-1.550262451171875,0.09442138671875
1761315612612518100,6.56951806640625,-1.1911468505859375,-1.6202239990234375,0.1295166015625
1761315612622565000,6.579565185546875,-1.43011474609375,-1.6987152099609375,0.2143402099609375
1761315612632612900,6.58961279296875,-1.5224151611328125,-1.71282958984375,0.269775390625
1761315612642661000,6.5996611328125,-1.616180419921875,-1.6579132080078125,0.1653289794921875
1761315612652708000,6.6097080078125,-1.69000244140625,-1.5122528076171875,0.027130126953125
1761315612662755800,6.619755859375,-1.735137939453125,-1.3758697509765625,-0.03973388671875
1761315612672802800,6.629802734375,-1.7720184326171875,-1.375396728515625,-0.0449371337890625
1761315612682851000,6.63985107421875,-1.740997314453125,-1.2936553955078125,-0.1186370849609375
1761315612692899000,6.649899169921875,-1.57659912109375,-1.0912017822265625,-0.2564697265625
1761315612702946300,6.6599462890625,-1.3920745849609375,-0.85498046875,-0.34320068359375
1761315612712994000,6.669994140625,-1.2708282470703125,-0.61810302734375,-0.32666015625
1761315612723041000,6.680041015625,-1.1865386962890625,-0.439208984375,-0.2398834228515625
1761315612733089000,6.690089111328125,-1.10345458984375,-0.3614044189453125,-0.1767120361328125
1761315612743137000,6.700136962890625,-1.0050201416015625,-0.3553466796875,-0.1696624755859375
1761315612753184000,6.71018408203125,-0.863433837890625,-0.3773345947265625,-0.19586181640625
1761315612763232000,6.72023193359375,-0.7034912109375,-0.3499755859375,-0.211761474609375
1761315612773279200,6.730279296875,-0.5839080810546875,-0.2962646484375,-0.22052001953125
1761315612783327000,6.740326904296875,-0.4866790771484375,-0.2347869873046875,-0.2159576416015625
1761315612793375000,6.750375,-0.446563720703125,-0.20977783203125,-0.2277374267578125
1761315612803422000,6.760421875,-0.3896942138671875,-0.19427490234375,-0.2252197265625
1761315612813470200,6.77047021484375,-0.3101654052734375,-0.2122650146484375,-0.1529693603515625
1761315612823517200,6.78051708984375,-0.18328857421875,-0.2220306396484375,-0.0474090576171875
1761315612833565000,6.79056494140625,-0.1641082763671875,-0.11138916015625,-0.0247802734375
1761315612843612200,6.800612060546875,-0.23486328125,-0.1429443359375,0.0997161865234375
1761315612853660200,6.81066015625,-0.2487030029296875,-0.1746368408203125,0.1619873046875
1761315612863708000,6.8207080078125,-0.293365478515625,-0.1797943115234375,0.11822509765625
1761315612873755000,6.8307548828125,-0.325775146484375,-0.1399383544921875,0.10784912109375
1761315612883803100,6.84080322265625,-0.3456268310546875,-0.1366729736328125,0.147430419921875
1761315612893850000,6.85085009765625,-0.3729705810546875,-0.0977935791015625,0.17840576171875
1761315612903898000,6.860898193359375,-0.3434295654296875,-0.070648193359375,0.1732940673828125
1761315612913946000,6.870946044921875,-0.4045562744140625,-0.0853271484375,0.160064697265625
1761315612923993000,6.8809931640625,-0.449371337890625,-0.0834808349609375,0.1546630859375
1761315612934041000,6.891041015625,-0.4242706298828125,-0.0858306884765625,0.1380462646484375
1761315612944088000,6.901088134765625,-0.3963623046875,-0.1354827880859375,0.112030029296875
1761315612954136000,6.911135986328125,-0.329986572265625,-0.25238037109375,0.0957794189453125
1761315612964184000,6.92118408203125,-0.3049163818359375,-0.322021484375,0.059844970703125
1761315612974231000,6.93123095703125,-0.347869873046875,-0.3511505126953125,0.0284271240234375
1761315612984279000,6.941279052734375,-0.431549072265625,-0.382293701171875,0.034454345703125
1761315612994326000,6.951325927734375,-0.47137451171875,-0.453216552734375,0.085174560546875
1761315613004374000,6.9613740234375,-0.524993896484375,-0.623687744140625,0.204132080078125
1761315613014422300,6.97142236328125,-0.626739501953125,-0.81646728515625,0.317718505859375
1761315613024469200,6.98146923828125,-0.6369476318359375,-0.9211883544921875,0.3428955078125
1761315613034517000,6.99151708984375,-0.6334075927734375,-1.2198028564453125,0.35772705078125
1761315613044564000,7.00156396484375,-0.8263702392578125,-1.488494873046875,0.33612060546875
1761315613054612200,7.0116123046875,-1.1195068359375,-1.4133453369140625,0.20635986328125
1761315613064659200,7.0216591796875,-1.345367431640625,-1.2927093505859375,0.1531829833984375
1761315613074707000,7.03170703125,-1.2884674072265625,-1.559906005859375,0.3065185546875
1761315613084755200,7.041755126953125,-1.2993927001953125,-1.8236236572265625,0.4783172607421875
1761315613094802200,7.05180224609375,-1.394622802734375,-1.9149627685546875,0.559814453125
1761315613104850200,7.06185009765625,-1.4534912109375,-1.806304931640625,0.5342864990234375
1761315613114897000,7.07189697265625,-1.4608306884765625,-1.589935302734375,0.41412353515625
1761315613124945200,7.081945068359375,-1.47308349609375,-1.4546966552734375,0.273681640625
1761315613134993200,7.0919931640625,-1.5779876708984375,-1.284637451171875,0.11492919921875
1761315613145040100,7.1020400390625,-1.6025848388671875,-0.98846435546875,-0.0684051513671875
1761315613155088100,7.112088134765625,-1.5522918701171875,-0.60662841796875,-0.2690277099609375
1761315613165135000,7.122135009765625,-1.4956817626953125,-0.26812744140625,-0.3702850341796875
1761315613175183000,7.13218310546875,-1.4453582763671875,-0.1542510986328125,-0.3077239990234375
1761315613185230800,7.14223095703125,-1.38134765625,-0.0569915771484375,-0.1068115234375
1761315613195278000,7.152278076171875,-1.3181304931640625,-0.0391998291015625,0.0585784912109375
1761315613205326000,7.162326171875,-1.2192840576171875,-0.1488037109375,0.166015625
1761315613215373000,7.172373046875,-0.9933624267578125,-0.2405242919921875,0.217315673828125
1761315613225421300,7.18242138671875,-0.75494384765625,-0.31549072265625,0.2006072998046875
1761315613235469000,7.192468994140625,-0.5816192626953125,-0.3600616455078125,0.1737213134765625
1761315613245516000,7.20251611328125,-0.4813995361328125,-0.382720947265625,0.1422576904296875
1761315613255564000,7.21256396484375,-0.4138946533203125,-0.3821258544921875,0.08642578125
1761315613265611300,7.222611328125,-0.3519439697265625,-0.351165771484375,0.0205078125
1761315613275659000,7.232658935546875,-0.2739410400390625,-0.3044586181640625,-0.0311737060546875
1761315613285707000,7.24270703125,-0.2411651611328125,-0.3013458251953125,-0.046600341796875
1761315613295754200,7.252754150390625,-0.1820220947265625,-0.1819305419921875,-0.049468994140625
1761315613305802000,7.262802001953125,-0.138885498046875,-0.06817626953125,-0.038482666015625
1761315613315849000,7.272848876953125,-0.144500732421875,-0.0064849853515625,-0.0114898681640625
1761315613325897000,7.28289697265625,-0.202545166015625,0.0272064208984375,0.01544189453125
1761315613335944200,7.292944091796875,-0.31842041015625,0.03118896484375,0.0501556396484375
1761315613345992200,7.3029921875,-0.449615478515625,0.0128021240234375,0.0743255615234375
1761315613356040000,7.3130400390625,-0.478790283203125,-0.0434417724609375,0.0742645263671875
1761315613366087200,7.323087158203125,-0.3768310546875,-0.1180267333984375,0.0633697509765625
1761315613376135200,7.33313525390625,-0.2814788818359375,-0.1568756103515625,0.0373382568359375
1761315613386182100,7.34318212890625,-0.2562103271484375,-0.14617919921875,-0.0277862548828125
1761315613396230000,7.35322998046875,-0.257110595703125,-0.11767578125,-0.088470458984375
1761315613406278100,7.363278076171875,-0.295196533203125,-0.05169677734375,-0.1246337890625
1761315613416325000,7.3733251953125,-0.343353271484375,-0.02099609375,-0.1257171630859375
1761315613426373000,7.383373046875,-0.3492584228515625,-0.0807342529296875,-0.0773773193359375
1761315613436420000,7.393420166015625,-0.326446533203125,-0.227996826171875,0.0252685546875
1761315613446468000,7.403468017578125,-0.3453369140625,-0.3889312744140625,0.1288909912109375
1761315613456516000,7.41351611328125,-0.4722442626953125,-0.5382232666015625,0.2198486328125
1761315613466563000,7.42356298828125,-0.646697998046875,-0.6956939697265625,0.265869140625
1761315613476611000,7.433611083984375,-0.759429931640625,-0.8151092529296875,0.2763824462890625
1761315613486658000,7.443657958984375,-0.837127685546875,-0.904083251953125,0.2860107421875
1761315613496706000,7.4537060546875,-0.857086181640625,-0.9916534423828125,0.2108306884765625
1761315613506753300,7.463753173828125,-0.913970947265625,-1.0708770751953125,0.095611572265625
1761315613516801000,7.473801025390625,-1.0019378662109375,-1.14105224609375,-0.003143310546875
1761315613526849000,7.48384912109375,-1.0076446533203125,-1.236541748046875,-0.013153076171875
1761315613536896000,7.49389599609375,-0.985382080078125,-1.3997039794921875,0.0834503173828125
1761315613546944300,7.5039443359375,-1.139068603515625,-1.5567626953125,0.22735595703125
1761315613556991000,7.513990966796875,-1.3862457275390625,-1.5520172119140625,0.2834320068359375
1761315613567039000,7.5240390625,-1.52764892578125,-1.329315185546875,0.236663818359375
1761315613577087200,7.534087158203125,-1.6595458984375,-1.173004150390625,0.1644134521484375
1761315613587134200,7.54413427734375,-1.811492919921875,-1.1929931640625,0.0586395263671875
1761315613597182000,7.554181884765625,-1.842437744140625,-1.1432037353515625,-0.11016845703125
1761315613607229000,7.56422900390625,-1.7686004638671875,-0.9097900390625,-0.279693603515625
1761315613617277200,7.574277099609375,-1.6727142333984375,-0.629150390625,-0.3719940185546875
1761315613627324200,7.58432421875,-1.601715087890625,-0.4415740966796875,-0.3000030517578125
1761315613637372000,7.594371826171875,-1.579620361328125,-0.4766082763671875,-0.1212310791015625
1761315613647420200,7.604420166015625,-1.5018768310546875,-0.6267242431640625,0.0349578857421875
1761315613657467100,7.614467041015625,-1.28277587890625,-0.6827239990234375,0.1200714111328125
1761315613667515100,7.62451513671875,-1.0081939697265625,-0.61224365234375,0.129058837890625
1761315613677562000,7.63456201171875,-0.758758544921875,-0.4917755126953125,0.1173095703125
1761315613687614000,7.644614013671875,-0.5706634521484375,-0.3934326171875,0.1109466552734375
1761315613697662000,7.654661865234375,-0.45343017578125,-0.3257598876953125,0.10418701171875
1761315613707709200,7.664709228515625,-0.354583740234375,-0.2856597900390625,0.09393310546875
1761315613717757000,7.6747568359375,-0.2853240966796875,-0.26806640625,0.1003265380859375
1761315613727804000,7.684803955078125,-0.26727294921875,-0.267333984375,0.1182708740234375
1761315613737852000,7.694851806640625,-0.2863616943359375,-0.27532958984375,0.1383056640625
1761315613747900000,7.70489990234375,-0.3418121337890625,-0.262725830078125,0.1754913330078125
1761315613757947000,7.71494677734375,-0.3919677734375,-0.2231597900390625,0.201385498046875
1761315613767995000,7.724994873046875,-0.4232330322265625,-0.1815032958984375,0.21600341796875
1761315613778042000,7.7350419921875,-0.451385498046875,-0.1610870361328125,0.2229766845703125
1761315613788090000,7.745090087890625,-0.471038818359375,-0.1563568115234375,0.195220947265625
1761315613798136800,7.75513671875,-0.475128173828125,-0.136627197265625,0.1502532958984375
1761315613808184800,7.765184814453125,-0.491668701171875,-0.1129302978515625,0.1108551025390625
1761315613818233000,7.775233154296875,-0.4959564208984375,-0.1109619140625,0.0781097412109375
1761315613828280000,7.785280029296875,-0.457061767578125,-0.114288330078125,0.0462799072265625
1761315613838327800,7.795327880859375,-0.408599853515625,-0.100830078125,0.0155487060546875
1761315613848374800,7.805374755859375,-0.372833251953125,-0.0919342041015625,-0.00677490234375
1761315613858423000,7.815423095703125,-0.3490142822265625,-0.1061859130859375,-0.031829833984375
1761315613868470800,7.825470703125,-0.3299713134765625,-0.1314697265625,-0.0588226318359375
1761315613878517800,7.835517822265625,-0.3080291748046875,-0.1638946533203125,-0.076019287109375
1761315613888566000,7.84556591796875,-0.303558349609375,-0.1806640625,-0.0689697265625
1761315613898613000,7.855613037109375,-0.3137054443359375,-0.18048095703125,-0.0536956787109375
1761315613908661000,7.865660888671875,-0.376678466796875,-0.285614013671875,-0.001922607421875
1761315613918708000,7.8757080078125,-0.4505462646484375,-0.4461212158203125,0.076080322265625
1761315613928756000,7.885755859375,-0.4787750244140625,-0.572906494140625,0.10699462890625
1761315613938804000,7.895803955078125,-0.479217529296875,-0.6612701416015625,0.093170166015625
1761315613948851000,7.905850830078125,-0.4921112060546875,-0.712066650390625,0.0713348388671875
1761315613958899000,7.91589892578125,-0.5047149658203125,-0.7583770751953125,0.0649261474609375
1761315613968946000,7.92594580078125,-0.6085205078125,-0.9013214111328125,0.0945281982421875
1761315613978994000,7.935993896484375,-0.896514892578125,-1.18994140625,0.1598663330078125
1761315613989042000,7.9460419921875,-1.254791259765625,-1.3946533203125,0.1785125732421875
1761315613999089000,7.9560888671875,-1.419525146484375,-1.2798614501953125,0.11224365234375
1761315614009137000,7.966136962890625,-1.3478851318359375,-1.1328887939453125,0.0136566162109375
1761315614019183900,7.976183837890625,-1.26055908203125,-1.16900634765625,-0.0208282470703125
1761315614029232000,7.986232177734375,-1.31878662109375,-1.2989501953125,-0.0105743408203125
1761315614039279000,7.996279052734375,-1.385009765625,-1.383331298828125,0.0065765380859375
1761315614049326800,8.006326904296875,-1.3389129638671875,-1.38848876953125,0.0498504638671875
1761315614059375000,8.016375,-1.2198028564453125,-1.3287506103515625,0.0577392578125
1761315614069422000,8.026422119140625,-1.0478973388671875,-1.271636962890625,0.0721282958984375
1761315614079469800,8.0364697265625,-0.9918060302734375,-1.1976318359375,0.1087799072265625
1761315614089516800,8.046516845703126,-1.240203857421875,-1.182769775390625,0.2000732421875
1761315614099565000,8.05656494140625,-1.4553375244140625,-1.16046142578125,0.2462158203125
1761315614109612000,8.066612060546875,-1.4557037353515625,-0.93231201171875,0.1924591064453125
1761315614119659800,8.07665966796875,-1.4243927001953125,-0.6584625244140625,0.075439453125
1761315614129708000,8.0867080078125,-1.373748779296875,-0.5102996826171875,-0.0266265869140625
1761315614139755000,8.096755126953125,-1.3342742919921875,-0.47344970703125,-0.0855560302734375
1761315614149803000,8.106802978515624,-1.3382568359375,-0.53582763671875,-0.0995025634765625
1761315614159850000,8.11685009765625,-1.3122711181640625,-0.611419677734375,-0.083648681640625
1761315614169898000,8.12689794921875,-1.222900390625,-0.6036376953125,-0.073699951171875
1761315614179946000,8.136946044921874,-1.0796051025390625,-0.51824951171875,-0.0862274169921875
1761315614189993000,8.146992919921875,-0.8784942626953125,-0.4397430419921875,-0.090576171875
1761315614200041000,8.157041015625,-0.7031402587890625,-0.403564453125,-0.0650634765625
1761315614210088000,8.167087890625,-0.60552978515625,-0.3964691162109375,-0.014801025390625
1761315614220136000,8.177135986328125,-0.543243408203125,-0.386260986328125,0.043914794921875
1761315614230183000,8.187182861328125,-0.4842376708984375,-0.35723876953125,0.098724365234375
1761315614240231000,8.19723095703125,-0.42926025390625,-0.3238372802734375,0.136962890625
1761315614250279000,8.20727880859375,-0.3990936279296875,-0.300201416015625,0.1660308837890625
1761315614260326000,8.217325927734375,-0.368865966796875,-0.282135009765625,0.181640625
1761315614270374100,8.2273740234375,-0.322998046875,-0.2672576904296875,0.17681884765625
1761315614280421000,8.237421142578125,-0.275390625,-0.239013671875,0.1378936767578125
1761315614290468900,8.24746875,-0.234161376953125,-0.20465087890625,0.10345458984375
1761315614300515800,8.257515869140626,-0.190216064453125,-0.1890869140625,0.06817626953125
1761315614310564000,8.267564208984375,-0.1787109375,-0.1833953857421875,0.024871826171875
1761315614320611800,8.27761181640625,-0.2016754150390625,-0.1856689453125,-0.0042266845703125
1761315614330658800,8.287658935546874,-0.2623443603515625,-0.2011260986328125,-0.00909423828125
1761315614340707000,8.29770703125,-0.3710784912109375,-0.249847412109375,0.004974365234375
1761315614350754000,8.307754150390625,-0.421539306640625,-0.2983551025390625,0.011474609375
1761315614360802000,8.317802001953124,-0.3645172119140625,-0.29962158203125,0.0154266357421875
1761315614370849800,8.327849853515625,-0.31976318359375,-0.25567626953125,0.0164947509765625
1761315614380897000,8.33789697265625,-0.3409576416015625,-0.22564697265625,0.0242767333984375
1761315614390945000,8.347945068359374,-0.3750762939453125,-0.25732421875,0.074462890625
1761315614400992000,8.357991943359375,-0.45458984375,-0.3694305419921875,0.178985595703125
1761315614411040000,8.3680400390625,-0.5511474609375,-0.5412139892578125,0.287017822265625
1761315614421087000,8.3780869140625,-0.59490966796875,-0.7564697265625,0.36309814453125
1761315614431135000,8.388135009765625,-0.6027984619140625,-0.9432220458984375,0.372650146484375
1761315614441183000,8.398182861328126,-0.5948333740234375,-1.013916015625,0.271484375
1761315614451230000,8.40822998046875,-0.5898895263671875,-0.9694366455078125,0.1117095947265625
1761315614461278000,8.41827783203125,-0.6469573974609375,-0.9457855224609375,0.00006103515625
1761315614471325000,8.428324951171875,-0.75091552734375,-0.9171142578125,-0.0582275390625
1761315614481373200,8.438373291015624,-0.7874908447265625,-0.8461761474609375,-0.0606231689453125
1761315614491420000,8.448419921875,-0.8217926025390625,-0.84161376953125,0.01959228515625
1761315614501468000,8.458468017578125,-0.9127960205078125,-0.94415283203125,0.1860198974609375
1761315614511516000,8.468515869140624,-1.003631591796875,-1.0709075927734375,0.332733154296875
1761315614521563100,8.478563232421875,-1.015228271484375,-1.1592864990234375,0.387054443359375
1761315614531611000,8.48861083984375,-1.0274200439453125,-1.1778717041015625,0.3446044921875
1761315614541657900,8.498657958984374,-1.10772705078125,-1.12615966796875,0.24432373046875
1761315614551706000,8.5087060546875,-1.100494384765625,-1.10430908203125,0.13214111328125
1761315614561753000,8.518753173828125,-1.0517425537109375,-1.10186767578125,0.0596466064453125
1761315614571800800,8.52880078125,-1.06829833984375,-1.0774078369140625,0.0053253173828125
1761315614581848800,8.538848876953125,-1.099456787109375,-1.0399169921875,-0.0406951904296875
1761315614591896000,8.54889599609375,-1.103240966796875,-0.977691650390625,-0.08770751953125
1761315614601944000,8.558944091796874,-1.1223297119140625,-0.8668060302734375,-0.1177215576171875
1761315614611991000,8.568990966796875,-1.181671142578125,-0.71002197265625,-0.117034912109375
1761315614622039000,8.5790390625,-1.229522705078125,-0.5002593994140625,-0.0762939453125
1761315614632086000,8.5890859375,-1.2368011474609375,-0.348907470703125,-0.0637969970703125
1761315614642134000,8.599134033203125,-1.1902008056640625,-0.354461669921875,-0.0478363037109375
1761315614652181800,8.609181640625,-1.1275634765625,-0.3991851806640625,-0.0283203125
1761315614662229000,8.61922900390625,-1.02862548828125,-0.4334564208984375,-0.0332489013671875
1761315614672277000,8.629277099609375,-0.937835693359375,-0.3648834228515625,-0.0315704345703125
1761315614682324000,8.639323974609376,-0.9027862548828125,-0.246795654296875,-0.0278167724609375
1761315614692368100,8.6493681640625,-0.8671875,-0.242828369140625,-0.0600128173828125
1761315614702415000,8.6594150390625,-0.779052734375,-0.268524169921875,-0.0580596923828125
1761315614712462800,8.669462890625,-0.6862030029296875,-0.2769622802734375,-0.04107666015625
1761315614722511000,8.679510986328125,-0.6064300537109375,-0.2740325927734375,-0.0250396728515625
1761315614732558000,8.68955810546875,-0.5375823974609375,-0.2767181396484375,-0.011962890625
1761315614742605800,8.699605712890625,-0.4672088623046875,-0.2763824462890625,0.0152587890625
1761315614752652800,8.70965283203125,-0.4000244140625,-0.2627410888671875,0.0394744873046875
1761315614762701000,8.719701171875,-0.3619842529296875,-0.254486083984375,0.049102783203125
1761315614772748000,8.729748046875,-0.3448028564453125,-0.26116943359375,0.05126953125
1761315614782796000,8.739796142578125,-0.352752685546875,-0.2891387939453125,0.059906005859375
1761315614792844000,8.749843994140624,-0.4310760498046875,-0.342315673828125,0.0825958251953125
1761315614802891000,8.75989111328125,-0.7336578369140625,-0.43695068359375,0.14471435546875
1761315614812939000,8.76993896484375,-1.0312042236328125,-0.527496337890625,0.218109130859375
1761315614822986000,8.779986083984374,-0.9603271484375,-0.5396270751953125,0.23687744140625
1761315614833034000,8.790033935546875,-0.767913818359375,-0.4690093994140625,0.20458984375
1761315614843081000,8.8000810546875,-0.706024169921875,-0.444000244140625,0.146820068359375
1761315614853129000,8.81012890625,-0.723846435546875,-0.4931793212890625,0.1175384521484375
1761315614863177000,8.820177001953125,-0.7705535888671875,-0.5555267333984375,0.1046600341796875
1761315614873224000,8.830223876953125,-0.806488037109375,-0.576629638671875,0.073150634765625
1761315614883272000,8.84027197265625,-0.79559326171875,-0.5590972900390625,0.02984619140625
1761315614893319000,8.85031884765625,-0.7724761962890625,-0.544158935546875,0.00726318359375
1761315614903367200,8.8603671875,-0.779052734375,-0.5337982177734375,0.00537109375
1761315614913414000,8.870413818359374,-0.8220977783203125,-0.525970458984375,0.025848388671875
1761315614923462000,8.8804619140625,-0.8924713134765625,-0.52410888671875,0.0726318359375
1761315614933510100,8.89051025390625,-0.9620208740234375,-0.5251312255859375,0.1292572021484375
1761315614943557000,8.90055712890625,-0.99847412109375,-0.5128631591796875,0.1524505615234375
1761315614953604900,8.91060498046875,-0.9717559814453125,-0.498199462890625,0.1425018310546875
1761315614963651800,8.92065185546875,-0.903839111328125,-0.4984130859375,0.1176300048828125
1761315614973700000,8.9307001953125,-0.8473968505859375,-0.50421142578125,0.0807647705078125
1761315614983747000,8.9407470703125,-0.8140106201171875,-0.5037841796875,0.0403289794921875
1761315614993794800,8.950794921875,-0.765869140625,-0.4906463623046875,0.0222625732421875
1761315615003843000,8.960843017578124,-0.74102783203125,-0.478790283203125,0.0129241943359375
1761315615013890000,8.97089013671875,-0.7300567626953125,-0.485992431640625,0.0241241455078125
1761315615023938000,8.98093798828125,-0.7638092041015625,-0.497283935546875,0.050628662109375
1761315615033985000,8.990985107421874,-0.7841644287109375,-0.4929962158203125,0.0752105712890625
1761315615044033000,9.001032958984375,-0.749420166015625,-0.47625732421875,0.172576904296875
1761315615054080000,9.011080078125,-0.8866119384765625,-0.4694671630859375,0.284271240234375
1761315615064128000,9.0211279296875,-1.0155181884765625,-0.49505615234375,0.301544189453125
1761315615074176000,9.031176025390625,-1.013397216796875,-0.5089874267578125,0.2523345947265625
1761315615084223000,9.041222900390625,-0.9506072998046875,-0.4847564697265625,0.2040863037109375
1761315615094271000,9.05127099609375,-0.8545989990234375,-0.454681396484375,0.14794921875
1761315615104318000,9.06131787109375,-0.8143768310546875,-0.4467620849609375,0.1227264404296875
1761315615114366000,9.071365966796876,-0.832977294921875,-0.4403228759765625,0.1352081298828125
1761315615124413000,9.081412841796874,-0.86676025390625,-0.474609375,0.1167755126953125
