time,seconds_elapsed,z,y,x
1761315606106688300,0.063688232421875,0.013953632675111294,-0.3073170781135559,-0.23716488480567932
1761315606116736300,0.073736328125,0.06670978665351868,-0.21427235007286072,-0.30996477603912354
1761315606126783200,0.083783203125,0.09907252341508865,-0.1405206322669983,-0.3616495430469513
1761315606136831200,0.093831298828125,0.1187700629234314,-0.0700099766254425,-0.4018148183822632
1761315606146879200,0.103879150390625,0.1265193223953247,0.0051721250638365746,-0.42535901069641113
1761315606156926200,0.11392626953125,0.12833666801452637,0.09523357450962067,-0.436092346906662
1761315606166974200,0.12397412109375,0.12868180871009827,0.1702399104833603,-0.4453039765357971
1761315606177021200,0.134021240234375,0.1250188946723938,0.1943226009607315,-0.4648052155971527
1761315606187069200,0.144069091796875,0.1148645356297493,0.16128742694854736,-0.48548653721809387
1761315606197117400,0.154117431640625,0.0974663719534874,0.09124336391687393,-0.49044108390808105
1761315606207164200,0.1641640625,0.08017899096012115,0.014690263196825981,-0.4696820080280304
1761315606217212200,0.174212158203125,0.050925496965646744,-0.05642519146203995,-0.41489413380622864
1761315606227259100,0.184259033203125,0.02810833416879177,-0.08586829900741577,-0.33020880818367004
1761315606237307400,0.194307373046875,0.022310897707939148,-0.11209084838628769,-0.23830178380012512
1761315606247355100,0.204355224609375,0.023859260603785515,-0.14163994789123535,-0.15343056619167328
1761315606257402000,0.214402099609375,0.03515026345849037,-0.16598577797412872,-0.0810714140534401
1761315606267450000,0.2244501953125,0.04261510446667671,-0.22082266211509705,-0.028391161933541298
1761315606277497300,0.234497314453125,0.05109274387359619,-0.29898935556411743,-0.008012119680643082
1761315606287545000,0.244545166015625,0.05468215420842171,-0.3738287091255188,-0.002429601736366749
1761315606297592000,0.254592041015625,0.0535641573369503,-0.4085017442703247,-0.01378372311592102
1761315606307640300,0.264640380859375,0.04008616507053375,-0.3967364430427551,-0.041196972131729126
1761315606317688300,0.274688232421875,0.02694692835211754,-0.35433757305145264,-0.07544922083616257
1761315606327735300,0.2847353515625,0.0202243123203516,-0.2814348638057709,-0.11204211413860321
1761315606337783000,0.294782958984375,0.024514397606253624,-0.19350235164165497,-0.1524188369512558
1761315606347830300,0.304830322265625,0.02556767873466015,-0.12540346384048462,-0.18580928444862366
1761315606357878300,0.314878173828125,0.020786238834261894,-0.06332331150770187,-0.210180401802063
1761315606367926000,0.324926025390625,0.006749781779944897,0.015169365331530571,-0.21839359402656555
1761315606377973200,0.33497314453125,-0.007452589925378561,0.05517537146806717,-0.23302659392356873
1761315606388021200,0.345021240234375,-0.021760156378149986,0.032753150910139084,-0.25600409507751465
1761315606398068200,0.355068115234375,-0.0373082235455513,-0.015603993088006973,-0.2749852240085602
1761315606408116200,0.3651162109375,-0.05010630935430527,-0.05594342574477196,-0.2753772437572479
1761315606418164200,0.375164306640625,-0.07647000998258591,-0.12828978896141052,-0.26435309648513794
1761315606428211200,0.385211181640625,-0.09420958906412125,-0.2261071652173996,-0.23571425676345825
1761315606438259200,0.39525927734375,-0.10286086797714233,-0.321177214384079,-0.19666752219200134
1761315606448306400,0.405306396484375,-0.10942555963993073,-0.3994099795818329,-0.157728910446167
1761315606458354200,0.415354248046875,-0.11598306149244308,-0.44483524560928345,-0.12914280593395233
1761315606468402200,0.425402099609375,-0.11667601764202118,-0.4425569176673889,-0.09748820960521698
1761315606478449200,0.43544921875,-0.10860317945480347,-0.42352303862571716,-0.08171430230140686
1761315606488497200,0.4454970703125,-0.10370002686977386,-0.39512789249420166,-0.07952385395765305
1761315606498544000,0.455544189453125,-0.10748704522848129,-0.32644495368003845,-0.07778055220842361
1761315606508592000,0.465592041015625,-0.11599904298782349,-0.24222248792648315,-0.07160414755344391
1761315606518640400,0.475640380859375,-0.12099646031856537,-0.18497411906719208,-0.048349954187870026
1761315606528687400,0.485687255859375,-0.11589650809764862,-0.14709171652793884,-0.01636885292828083
1761315606538735000,0.495735107421875,-0.104249969124794,-0.09969863295555115,0.07972119748592377
1761315606548782000,0.505781982421875,-0.09119755029678345,-0.006670419592410326,0.24831366539001465
1761315606558830300,0.515830322265625,-0.06614413112401962,0.19659455120563507,0.49555301666259766
1761315606568878000,0.525878173828125,0.031614918261766434,0.5149983763694763,0.7671102285385132
1761315606578925000,0.535925048828125,0.1946302056312561,0.9255664348602295,1.0386229753494263
1761315606588973300,0.545973388671875,0.37440767884254456,1.3526344299316406,1.274898886680603
1761315606599020300,0.556020263671875,0.5029577016830444,1.6885186433792114,1.4321832656860352
1761315606609068000,0.566068115234375,0.6158336400985718,1.6362173557281494,1.4605995416641235
1761315606619116300,0.5761162109375,0.4343045651912689,1.2634509801864624,1.3381465673446655
1761315606629163300,0.586163330078125,0.23010404407978058,0.9795601963996887,1.3775997161865234
1761315606639211300,0.596211181640625,0.0933709591627121,0.862607479095459,1.4031950235366821
1761315606649258200,0.60625830078125,0.1230873093008995,0.47191640734672546,1.3541737794876099
1761315606659306200,0.61630615234375,0.24910889565944672,-0.10931690037250519,1.3240381479263306
1761315606669354200,0.626354248046875,0.34599149227142334,-0.5825979113578796,1.2689166069030762
1761315606679401000,0.63640087890625,0.4119121730327606,-0.8033809065818787,1.2056108713150024
1761315606689449000,0.646448974609375,0.5052474737167358,-0.8219700455665588,1.1265735626220703
1761315606699495700,0.65649560546875,0.6127550005912781,-0.6654896140098572,1.0233129262924194
1761315606709544000,0.6665439453125,0.6975277066230774,-0.4565078914165497,0.8806506395339966
1761315606719592000,0.676592041015625,0.7208274006843567,-0.1873379349708557,0.6903659105300903
1761315606729639000,0.686638916015625,0.6837578415870667,0.1611183136701584,0.45749378204345703
1761315606739686700,0.696686767578125,0.5983209609985352,0.587876558303833,0.20790526270866394
1761315606749734000,0.70673388671875,0.46668142080307007,0.9681187272071838,-0.03405863419175148
1761315606759782000,0.716781982421875,0.29151493310928345,1.1869351863861084,-0.20718008279800415
1761315606769829600,0.72682958984375,0.1161029040813446,1.1816788911819458,-0.2904896140098572
1761315606779876900,0.736876953125,-0.05374551936984062,1.0819752216339111,-0.2805754840373993
1761315606789924900,0.7469248046875,-0.16926120221614838,0.7905593514442444,-0.27452635765075684
1761315606799971800,0.756971923828125,-0.1361573040485382,0.19087648391723633,-0.30875304341316223
1761315606810019800,0.767019775390625,-0.046488936990499496,-0.223948672413826,-0.30759963393211365
1761315606820067800,0.77706787109375,-0.030059631913900375,-0.35628542304039,-0.2666780352592468
1761315606830114800,0.78711474609375,-0.07190828025341034,-0.3193649351596832,-0.22398781776428223
1761315606840162800,0.797162841796875,-0.15778909623622894,-0.16821616888046265,-0.18226487934589386
1761315606850210000,0.8072099609375,-0.29283374547958374,0.04950763285160065,-0.1716146320104599
1761315606860257800,0.8172578125,-0.39549246430397034,0.18067629635334015,-0.22427012026309967
1761315606870305800,0.827305908203125,-0.39408817887306213,0.12276133894920349,-0.35177695751190186
1761315606880352800,0.837352783203125,-0.3292972147464752,-0.09473316371440887,-0.5558030605316162
1761315606890400800,0.84740087890625,-0.2018902450799942,-0.4141780138015747,-0.8085900545120239
1761315606900448800,0.85744873046875,-0.042994339019060135,-0.7440834641456604,-1.0486130714416504
1761315606910495700,0.867495849609375,0.08935064822435379,-0.9347764849662781,-1.172757625579834
1761315606920544000,0.8775439453125,0.15325133502483368,-0.9779537320137024,-1.1861841678619385
1761315606930591000,0.887591064453125,0.15114638209342957,-0.9222404360771179,-1.155354380607605
1761315606940638700,0.897638671875,0.10832247883081436,-0.8260920643806458,-1.1189252138137817
1761315606950687000,0.90768701171875,0.034743864089250565,-0.7200607061386108,-1.1055735349655151
1761315606960734000,0.91773388671875,-0.046363502740859985,-0.6518139839172363,-1.1390563249588013
1761315606970781700,0.92778173828125,-0.1305481493473053,-0.6452535390853882,-1.1692081689834595
1761315606980828700,0.93782861328125,-0.18496745824813843,-0.6340938806533813,-1.1451212167739868
1761315606990877000,0.947876953125,-0.1985304057598114,-0.5610910058021545,-1.0660988092422485
1761315607000925000,0.957925048828125,-0.16958743333816528,-0.4656156301498413,-0.9691887497901917
1761315607010972000,0.967971923828125,-0.14080718159675598,-0.39560991525650024,-0.8913416266441345
1761315607021020000,0.97802001953125,-0.11031372100114822,-0.3061490058898926,-0.8174165487289429
1761315607031067000,0.98806689453125,-0.08373378217220306,-0.15823836624622345,-0.732075572013855
1761315607041115000,0.998114990234375,-0.089045450091362,0.038117557764053345,-0.6774112582206726
1761315607051162600,1.00816259765625,-0.11365226656198502,0.28125298023223877,-0.6400588154792786
1761315607061209900,1.0182099609375,-0.13721564412117004,0.5403130650520325,-0.6251871585845947
1761315607071257900,1.0282578125,-0.13594771921634674,0.756149172782898,-0.5956295728683472
1761315607081304800,1.038304931640625,-0.14234621822834015,0.8412950038909912,-0.530487060546875
1761315607091352800,1.048352783203125,-0.17852340638637543,0.716550886631012,-0.4388418197631836
1761315607101400800,1.05840087890625,-0.2494788020849228,0.2952713370323181,-0.2982122600078583
1761315607111447800,1.06844775390625,-0.3732849061489105,-0.2934768795967102,-0.12614329159259796
1761315607121495800,1.078495849609375,-0.5664029717445374,-0.618217945098877,0.07109228521585464
1761315607131543800,1.088543701171875,-0.7563992738723755,-0.8762494921684265,0.18226194381713867
1761315607141590800,1.0985908203125,-0.8146074414253235,-1.1038621664047241,0.1983482390642166
1761315607151638800,1.108638671875,-0.677915632724762,-1.101701259613037,0.20327907800674438
1761315607161686000,1.11868603515625,-0.2457525134086609,-1.328616738319397,0.11295051872730255
1761315607171733800,1.128733642578125,0.13513784110546112,-1.5564594268798828,-0.01305321790277958
1761315607181781800,1.13878173828125,0.38783347606658936,-1.6161147356033325,-0.08945717662572861
1761315607191828700,1.148828857421875,0.5489800572395325,-1.440551519393921,-0.05373246967792511
1761315607201877000,1.158876953125,0.5954521894454956,-1.0801831483840942,0.028738170862197876
1761315607211923700,1.168923828125,0.5355291962623596,-0.643535315990448,0.0763123482465744
1761315607221971700,1.1789716796875,0.3861141502857208,-0.11112438887357712,0.09712149202823639
1761315607232020000,1.18902001953125,0.20686902105808258,0.3548544943332672,0.11860840767621994
1761315607242067000,1.19906689453125,0.03723738342523575,0.28964725136756897,0.04640211910009384
1761315607252114700,1.20911474609375,-0.2036181092262268,0.09738301485776901,-0.09293313324451447
1761315607262161700,1.21916162109375,-0.4923625588417053,0.15859630703926086,-0.15129844844341278
1761315607272210000,1.2292099609375,-0.6549232602119446,0.3535010814666748,-0.11732582747936249
1761315607282258000,1.2392578125,-0.6657204627990723,0.4870854914188385,-0.03548688814043999
1761315607292304600,1.2493046875,-0.6051074862480164,0.4768909215927124,0.053397975862026215
1761315607302353000,1.259352783203125,-0.5128534436225891,0.24939598143100739,0.13305605947971344
1761315607312401000,1.26940087890625,-0.39132410287857056,-0.4796909689903259,0.3226456940174103
1761315607322448000,1.27944775390625,-0.3122343420982361,-0.9919055104255676,0.43189549446105957
1761315607332496000,1.289495849609375,-0.3505564332008362,-1.5157135725021362,0.6462631821632385
1761315607342542800,1.29954296875,-0.4796678125858307,-2.0856688022613525,0.8267426490783691
1761315607352590800,1.3095908203125,-0.7387446165084839,-2.7188222408294678,0.7886077761650085
1761315607362638800,1.319638916015625,-1.0911778211593628,-3.1506507396698,0.6643449664115906
1761315607372685800,1.329685791015625,-1.344313621520996,-3.059896945953369,0.5676149725914001
1761315607382733800,1.33973388671875,-1.4868800640106201,-2.541945219039917,0.3887309730052948
1761315607392781800,1.34978173828125,-1.382733702659607,-1.7444796562194824,0.15015648305416107
1761315607402829000,1.3598291015625,-1.071439504623413,-0.7551925778388977,-0.07527744024991989
1761315607412876800,1.369876708984375,-0.8765032887458801,0.22552846372127533,-0.3645486533641815
1761315607422923800,1.379923828125,-0.8968732953071594,1.2015442848205566,-0.5543351173400879
1761315607432972000,1.389971923828125,-0.9608610272407532,1.8460776805877686,-0.7341357469558716
1761315607443019800,1.400019775390625,-0.7915489673614502,1.629963994026184,-0.9634994268417358
1761315607453066800,1.410066650390625,-0.39382293820381165,0.6830039024353027,-1.1787874698638916
1761315607463114800,1.42011474609375,0.04436187073588371,-0.47883450984954834,-1.2773442268371582
1761315607473162000,1.430161865234375,0.6083728075027466,-1.3677270412445068,-1.2965434789657593
1761315607483209700,1.440209716796875,1.1845743656158447,-1.581778883934021,-1.2102940082550049
1761315607493257700,1.4502578125,1.5160821676254272,-1.2620400190353394,-0.9925398826599121
1761315607503304700,1.4603046875,1.6020299196243286,-0.8541492819786072,-0.6440905928611755
1761315607513353000,1.47035302734375,1.4482909440994263,-0.4379690885543823,-0.293861985206604
1761315607523400700,1.480400634765625,1.2282946109771729,-0.20853988826274872,0.0028043086640536785
1761315607533447700,1.49044775390625,0.9715120792388916,-0.14241386950016022,0.2605692744255066
1761315607543496000,1.500495849609375,0.8373444676399231,-0.33923691511154175,0.5154305696487427
1761315607553543000,1.51054296875,0.8159770965576172,-0.6225072145462036,0.8016690015792847
1761315607563590700,1.520590576171875,0.8513750433921814,-0.8919562697410583,1.0996570587158203
1761315607573639000,1.530638916015625,0.8959105610847473,-1.0797054767608643,1.3495464324951172
1761315607583686000,1.540685791015625,0.9272578358650208,-1.0975821018218994,1.5061688423156738
1761315607593734000,1.55073388671875,0.916031002998352,-0.9393320679664612,1.5625858306884766
1761315607603782000,1.560781982421875,0.8261668682098389,-0.6465460062026978,1.5176340341567993
1761315607613828900,1.570828857421875,0.6612493395805359,-0.2703329622745514,1.3949354887008667
1761315607623876900,1.580876953125,0.4634307622909546,0.11565123498439789,1.267439603805542
1761315607633923800,1.590923828125,0.2700226902961731,0.46150344610214233,1.2302539348602295
1761315607643971800,1.600971923828125,0.09476325660943985,0.7637868523597717,1.3169020414352417
1761315607654019800,1.611019775390625,-0.07943464070558548,0.9725052118301392,1.503844141960144
1761315607664066800,1.62106689453125,-0.2567630708217621,1.000927209854126,1.7598570585250854
1761315607674115600,1.631115478515625,-0.4163684546947479,0.8024317622184753,2.0786757469177246
1761315607684163600,1.64116357421875,-0.5489885210990906,0.4535861313343048,2.4328463077545166
1761315607694210600,1.65121044921875,-0.6406643986701965,0.0016772588714957237,2.7679553031921387
1761315607704258600,1.661258544921875,-0.7168523669242859,-0.430484801530838,3.04184627532959
1761315607714305500,1.671305419921875,-0.762349545955658,-0.715857982635498,3.1954433917999268
1761315607724353500,1.681353515625,-0.6804941296577454,-0.7418072819709778,3.167335271835327
1761315607734401800,1.69140185546875,-0.5713202357292175,-0.6440351605415344,2.9537956714630127
1761315607744448800,1.70144873046875,-0.5190144181251526,-0.5314756035804749,2.5461843013763428
1761315607754496500,1.71149658203125,-0.5608489513397217,-0.31380000710487366,1.9136226177215576
1761315607764544500,1.72154443359375,-0.6399267315864563,0.045285988599061966,1.1800365447998047
1761315607774591700,1.731591796875,-0.7254133820533752,0.44698256254196167,0.4595460295677185
1761315607784639500,1.741639404296875,-0.7864591479301453,0.7243552803993225,-0.22467811405658722
1761315607794686500,1.7516865234375,-0.8354189991950989,0.7999472618103027,-0.9082865118980408
1761315607804734500,1.761734375,-0.9083379507064819,0.6404468417167664,-1.6067074537277222
1761315607814782700,1.77178271484375,-0.9804672598838806,0.33866727352142334,-2.123316526412964
1761315607824829700,1.78182958984375,-1.0182678699493408,0.2850914001464844,-2.354424238204956
1761315607834877400,1.79187744140625,-1.022653579711914,0.4998801350593567,-2.425342082977295
1761315607844925700,1.80192578125,-0.9473977088928223,0.7397963404655457,-2.5139546394348145
1761315607854972700,1.81197265625,-0.866054892539978,0.8858504891395569,-2.6460185050964355
1761315607865020400,1.8220205078125,-0.8808626532554626,0.9158470034599304,-2.818636178970337
1761315607875067400,1.8320673828125,-1.0574613809585571,0.9248250126838684,-2.946047306060791
1761315607885115600,1.84211572265625,-1.3260456323623657,1.0413968563079834,-2.884775161743164
1761315607895163600,1.85216357421875,-1.5812889337539673,1.1164761781692505,-2.526243209838867
1761315607905210400,1.86221044921875,-1.731124758720398,0.8097466230392456,-1.8554586172103882
1761315607915258600,1.872258544921875,-1.7502177953720093,0.0450577549636364,-1.0820825099945068
1761315607925306600,1.882306640625,-1.7151473760604858,-0.9056667685508728,-0.43072715401649475
1761315607935353600,1.892353515625,-1.4664161205291748,-1.7922719717025757,0.16444753110408783
1761315607945401600,1.902401611328125,-0.8469368815422058,-2.5365002155303955,0.6376707553863525
1761315607955449600,1.91244970703125,0.05621666833758354,-3.1071643829345703,0.8076576590538025
1761315607965496600,1.92249658203125,1.0785444974899292,-3.296532154083252,0.5935229659080505
1761315607975544600,1.932544677734375,1.9754892587661743,-3.1140244007110596,0.04422685131430626
1761315607985591600,1.942591552734375,2.6162242889404297,-2.5006208419799805,-0.5017877221107483
1761315607995639600,1.9526396484375,3.0180838108062744,-1.3247369527816772,-0.8413040041923523
1761315608005687600,1.9626875,3.15602707862854,-0.2707952857017517,-1.0094547271728516
1761315608015734800,1.97273486328125,2.96634578704834,0.2669941484928131,-1.0985935926437378
1761315608025782500,1.982782470703125,2.548243284225464,0.4446224570274353,-1.1239067316055298
1761315608035830500,1.99283056640625,2.0137782096862793,0.46308404207229614,-1.0612696409225464
1761315608045877800,2.002877685546875,1.4969383478164673,0.38672348856925964,-0.8904971480369568
1761315608055925500,2.012925537109375,1.0628119707107544,0.3000122904777527,-0.5929783582687378
1761315608065972500,2.022972412109375,0.6730402112007141,0.3349553644657135,-0.19302085041999817
1761315608076020500,2.0330205078125,0.37144944071769714,0.5347398519515991,0.3211290240287781
1761315608086068700,2.04306884765625,0.16350103914737701,0.785796582698822,0.9039669036865234
1761315608096115700,2.05311572265625,0.015862053260207176,0.9196408987045288,1.4761563539505005
1761315608106163500,2.06316357421875,-0.12184654176235199,0.8653526306152344,1.97568678855896
1761315608116211700,2.073211669921875,-0.25528663396835327,0.6437494158744812,2.3649826049804688
1761315608126258700,2.0832587890625,-0.38670429587364197,0.33089324831962585,2.5978786945343018
1761315608136306400,2.093306396484375,-0.47853514552116394,-0.006156163290143013,2.6518709659576416
1761315608146354700,2.103354736328125,-0.5453869104385376,-0.2727090120315552,2.5284414291381836
1761315608156401700,2.113401611328125,-0.5427886843681335,-0.4710626006126404,2.256232500076294
1761315608166449700,2.12344970703125,-0.4689432382583618,-0.5101828575134277,1.857469081878662
1761315608176496400,2.133496337890625,-0.3485947251319885,-0.3139171898365021,1.3876466751098633
1761315608186544600,2.143544677734375,-0.248806893825531,0.15876807272434235,0.8736137747764587
1761315608196592600,2.153592529296875,-0.2172042280435562,0.7847533822059631,0.3670373857021332
1761315608206639600,2.1636396484375,-0.2330513596534729,1.4633166790008545,-0.05716155841946602
1761315608216687600,2.1736875,-0.2602560818195343,2.0597007274627686,-0.3248974084854126
1761315608226735600,2.183735595703125,-0.3223612606525421,2.413325309753418,-0.43972039222717285
1761315608236782600,2.193782470703125,-0.381805419921875,2.5540130138397217,-0.4407947063446045
1761315608246830600,2.20383056640625,-0.4429904818534851,2.5862178802490234,-0.3554212152957916
1761315608256877600,2.213877685546875,-0.48068752884864807,2.531357765197754,-0.1680835485458374
1761315608266925600,2.223925537109375,-0.47050970792770386,2.3216195106506348,0.07762661576271057
1761315608276973600,2.2339736328125,-0.4598698616027832,1.967692494392395,0.3115805387496948
1761315608287020800,2.244020751953125,-0.5537103414535522,1.6351649761199951,0.4819144308567047
1761315608297068500,2.254068603515625,-0.7694545984268188,1.3985427618026733,0.6065778136253357
1761315608307116500,2.264116455078125,-1.171697974205017,1.352615475654602,0.6205620765686035
1761315608317163800,2.274163818359375,-1.70325767993927,1.3238410949707031,0.48789989948272705
1761315608327211500,2.28421142578125,-2.1534438133239746,0.9894348978996277,0.21945272386074066
1761315608337259500,2.294259521484375,-2.350017786026001,0.3097243010997772,-0.20829887688159943
1761315608347306500,2.304306396484375,-2.282001495361328,-0.601472020149231,-0.7143213152885437
1761315608357354800,2.314354736328125,-2.0337672233581543,-1.4068981409072876,-1.1426095962524414
1761315608367401500,2.3244013671875,-1.6241663694381714,-1.7637884616851807,-1.3199018239974976
1761315608377449500,2.334449462890625,-1.0193754434585571,-1.6035124063491821,-1.2377943992614746
1761315608387497700,2.344497802734375,-0.2814737558364868,-1.3069329261779785,-1.0963352918624878
1761315608397544700,2.354544677734375,0.28418004512786865,-1.236193060874939,-1.1716004610061646
1761315608407592400,2.364592529296875,0.8950748443603516,-1.518720030784607,-1.4879916906356812
1761315608417640700,2.374640625,1.7474693059921265,-1.887495756149292,-1.9871187210083008
1761315608427687700,2.384687744140625,2.40771222114563,-1.7678273916244507,-2.5128166675567627
1761315608437735700,2.394735595703125,2.7014777660369873,-1.1705269813537598,-2.8786814212799072
1761315608447783400,2.404783447265625,2.6977338790893555,-0.45719417929649353,-3.0664291381835938
1761315608457830700,2.41483056640625,2.5150530338287354,0.44298994541168213,-2.95029616355896
1761315608467878700,2.424878662109375,2.342393636703491,1.1798051595687866,-2.5517776012420654
1761315608477925600,2.434925537109375,2.212574005126953,1.4602612257003784,-2.0278160572052
1761315608487973600,2.4449736328125,2.061105251312256,1.5207762718200684,-1.5002845525741577
1761315608498021600,2.455021728515625,1.8762105703353882,1.5569933652877808,-1.0811896324157715
1761315608508068600,2.465068603515625,1.6317806243896484,1.672038197517395,-0.8297179341316223
1761315608518116400,2.475116455078125,1.2998934984207153,2.0054140090942383,-0.7978902459144592
1761315608528164600,2.48516455078125,0.933437705039978,2.4100685119628906,-0.8633424639701843
1761315608538211600,2.495211669921875,0.630249559879303,2.6348047256469727,-0.9166675209999084
1761315608548259600,2.505259521484375,0.37774303555488586,2.517333984375,-0.8967121839523315
1761315608558307600,2.5153076171875,0.20939023792743683,2.0080063343048096,-0.7735441327095032
1761315608568354600,2.5253544921875,0.16661560535430908,1.3572739362716675,-0.45173630118370056
1761315608578402600,2.535402587890625,0.16610482335090637,0.8251215815544128,0.020253339782357216
1761315608588449500,2.545449462890625,0.2895074486732483,0.3873743414878845,0.698084831237793
1761315608598497500,2.55549755859375,0.4619726836681366,0.036442697048187256,1.3976751565933228
1761315608608545500,2.565545654296875,0.6568633317947388,-0.27071911096572876,2.027508497238159
1761315608618592500,2.575592529296875,0.8258406519889832,-0.596019446849823,2.5523364543914795
1761315608628640800,2.585640869140625,0.9066095352172852,-0.8212333917617798,2.9406254291534424
1761315608638688500,2.5956884765625,0.8751400113105774,-0.8261839151382446,3.1756396293640137
1761315608648735500,2.605735595703125,0.7543989419937134,-0.8049143552780151,3.2231104373931885
1761315608658783700,2.61578369140625,0.6204637885093689,-0.8716992139816284,3.07472562789917
1761315608668831500,2.62583154296875,0.5208879113197327,-0.8756484389305115,2.772184133529663
1761315608678878200,2.635878173828125,0.42438963055610657,-0.8420156240463257,2.3502354621887207
1761315608688926200,2.64592626953125,0.3112311065196991,-0.7935841679573059,1.854414463043213
1761315608698973200,2.65597314453125,0.1514238715171814,-0.5512762069702148,1.3371915817260742
1761315608709021400,2.666021484375,-0.04795181378722191,-0.04180204123258591,0.9218398928642273
1761315608719069200,2.676069091796875,-0.26738056540489197,0.4860175848007202,0.6597968339920044
1761315608729116200,2.6861162109375,-0.48575979471206665,0.8565823435783386,0.5513622164726257
1761315608739164200,2.6961640625,-0.6252521872520447,1.1777372360229492,0.6539559960365295
1761315608749212200,2.706212158203125,-0.5685436129570007,1.3577921390533447,0.8525779843330383
1761315608759259100,2.716259033203125,-0.463021457195282,1.3604300022125244,1.017808437347412
1761315608769307100,2.72630712890625,-0.46012604236602783,1.2478270530700684,1.206072449684143
1761315608779355400,2.73635546875,-0.47154462337493896,0.9162640571594238,1.4775230884552002
1761315608789402400,2.74640234375,-0.42513611912727356,0.4130871891975403,1.751542091369629
1761315608799450000,2.7564501953125,-0.4349517226219177,-0.14744937419891357,1.8622663021087646
1761315608809497000,2.7664970703125,-0.5041456818580627,-0.6723235249519348,1.6488295793533325
1761315608819545300,2.77654541015625,-0.5906129479408264,-0.8349015116691589,1.2554354667663574
1761315608829593000,2.786593017578125,-0.632997989654541,-0.6612751483917236,0.828999936580658
1761315608839640000,2.79664013671875,-0.638313353061676,-0.4287649393081665,0.2917937636375427
1761315608849688300,2.806688232421875,-0.694502055644989,-0.2413276731967926,-0.3452410101890564
1761315608859736300,2.816736328125,-0.680370569229126,-0.05409466102719307,-0.841622531414032
1761315608869783000,2.826782958984375,-0.34492090344429016,0.08474577963352203,-1.1464424133300781
1761315608879831300,2.836831298828125,0.2205057442188263,-0.00743341539055109,-1.3310010433197021
1761315608889879300,2.84687939453125,0.8227556347846985,-0.22254624962806702,-1.329297661781311
1761315608899926300,2.85692626953125,1.317852258682251,-0.5964242219924927,-1.2352560758590698
1761315608909974000,2.86697412109375,1.6364930868148804,-0.9425792694091797,-1.2130928039550781
1761315608920021200,2.877021240234375,1.6965312957763672,-1.1686339378356934,-1.2749731540679932
1761315608930069200,2.8870693359375,1.5133119821548462,-1.3366836309432983,-1.4692473411560059
1761315608940117200,2.8971171875,1.2785601615905762,-1.4843958616256714,-1.6336981058120728
1761315608950164200,2.907164306640625,1.1000272035598755,-1.576535940170288,-1.6385983228683472
1761315608960212200,2.917212158203125,1.0214903354644775,-1.578995704650879,-1.4741475582122803
1761315608970260200,2.92726025390625,1.013025164604187,-1.5030242204666138,-1.2243422269821167
1761315608980307200,2.93730712890625,1.0283018350601196,-1.3574060201644897,-0.9646518230438232
1761315608990355200,2.947355224609375,1.0620696544647217,-1.135114312171936,-0.7567156553268433
1761315609000403200,2.9574033203125,1.1506149768829346,-0.7968079447746277,-0.6897283792495728
1761315609010450200,2.9674501953125,1.1399551630020142,-0.4158936142921448,-0.7207776308059692
1761315609020498200,2.977498291015625,1.0260165929794312,-0.23836730420589447,-0.7181053757667542
1761315609030545200,2.987545166015625,0.9254396557807922,-0.14208070933818817,-0.671855092048645
1761315609040593200,2.99759326171875,0.7667094469070435,-0.02966069057583809,-0.5511571764945984
1761315609050641400,3.007641357421875,0.5575538277626038,0.052078112959861755,-0.3300703167915344
1761315609060688400,3.0176884765625,0.35954564809799194,0.11992374062538147,-0.08032014220952988
1761315609070736100,3.027736083984375,0.19976504147052765,0.17836521565914154,0.17997296154499054
1761315609080784400,3.037784423828125,0.06966856122016907,0.1941436380147934,0.46085095405578613
1761315609090831400,3.047831298828125,-0.06669674068689346,0.24683508276939392,0.6663471460342407
1761315609100879000,3.057879150390625,-0.18267793953418732,0.3229532837867737,0.6961524486541748
1761315609110927000,3.067927001953125,-0.2867284417152405,0.4859435260295868,0.5996565222740173
1761315609120974300,3.077974365234375,-0.42036664485931396,0.7264522910118103,0.47562459111213684
1761315609131022300,3.088022216796875,-0.5788119435310364,1.0033680200576782,0.34112802147865295
1761315609141069000,3.098069091796875,-0.6881093978881836,1.254483938217163,0.18243345618247986
1761315609151117300,3.108117431640625,-0.6977455615997314,1.3388671875,0.024101873859763145
1761315609161165300,3.118165283203125,-0.6235736012458801,1.305384635925293,-0.08153454214334488
1761315609171212300,3.12821240234375,-0.49307629466056824,1.2440913915634155,-0.08888380229473114
1761315609181260000,3.138260009765625,-0.33009108901023865,1.1999207735061646,-0.024112526327371597
1761315609191308300,3.148308349609375,-0.20781604945659637,1.1999503374099731,0.06562454998493195
1761315609201355300,3.158355224609375,-0.21340548992156982,1.4162291288375854,0.14976152777671814
1761315609211403000,3.168403076171875,-0.3084755539894104,1.665018916130066,0.12230300903320312
1761315609221450200,3.1784501953125,-0.4728847146034241,1.7719733715057373,-0.11335957795381546
1761315609231498200,3.188498291015625,-0.6966776251792908,1.6790162324905396,-0.5312196612358093
1761315609241546200,3.198546142578125,-0.8896534442901611,1.5143979787826538,-0.9241464734077454
1761315609251593200,3.20859326171875,-0.8623645901679993,1.3746148347854614,-1.0786406993865967
1761315609261641200,3.21864111328125,-0.6190182566642761,1.162071943283081,-1.103573203086853
1761315609271689200,3.228689208984375,-0.3994557857513428,0.7070820331573486,-1.1357487440109253
1761315609281736200,3.238736083984375,-0.40644073486328125,0.09129555523395538,-1.2191253900527954
1761315609291784200,3.2487841796875,-0.5295655727386475,-0.30492156744003296,-1.1790357828140259
1761315609301832200,3.258832275390625,-0.70966637134552,-0.5447208285331726,-0.9218721389770508
1761315609311879200,3.268879150390625,-0.946814239025116,-0.8400995135307312,-0.5607698559761047
1761315609321927400,3.278927490234375,-1.037021279335022,-1.0453804731369019,-0.20185989141464233
1761315609331974100,3.28897412109375,-0.6076164245605469,-1.6538454294204712,-0.015195997431874275
1761315609342022100,3.299022216796875,-0.10449977964162827,-2.5926430225372314,-0.40317994356155396
1761315609352070400,3.3090703125,-0.12068407237529755,-2.6501212120056152,-1.47178316116333
1761315609362117400,3.319117431640625,0.026926955208182335,-2.098299264907837,-2.3982748985290527
1761315609372165000,3.3291650390625,0.5309118032455444,-1.3311794996261597,-2.581270933151245
1761315609382213000,3.339213134765625,1.0901333093643188,-0.5928332209587097,-2.256340265274048
1761315609392260400,3.34926025390625,1.3361464738845825,-0.29540953040122986,-1.8805108070373535
1761315609402308400,3.359308349609375,1.1383620500564575,-0.3184565305709839,-1.6811116933822632
1761315609412356000,3.369356201171875,0.7327304482460022,-0.388153076171875,-1.6236834526062012
1761315609422403000,3.379403076171875,0.3390619456768036,-0.37713661789894104,-1.6310365200042725
1761315609432451300,3.389451416015625,0.03139973431825638,-0.33620011806488037,-1.6639786958694458
1761315609442498300,3.399498291015625,-0.12146997451782227,-0.21171997487545013,-1.6068975925445557
1761315609452546000,3.409546142578125,-0.10246592015028,0.02538338676095009,-1.4662646055221558
1761315609462594300,3.41959423828125,0.011049987748265266,0.2991883158683777,-1.2266474962234497
1761315609472641300,3.429641357421875,0.16492024064064026,0.48275333642959595,-0.8718768358230591
1761315609482689000,3.43968896484375,0.31835028529167175,0.5589543581008911,-0.4839347302913666
1761315609492737300,3.4497373046875,0.4404865801334381,0.6370470523834229,-0.08701425790786743
1761315609502784300,3.4597841796875,0.5177086591720581,0.8105906248092651,0.34006941318511963
1761315609512832300,3.469832275390625,0.5759671926498413,0.9323378205299377,0.7922017574310303
1761315609522879200,3.479879150390625,0.6367412805557251,0.9752548933029175,1.2515482902526855
1761315609532927200,3.48992724609375,0.6973103880882263,0.8824381828308105,1.655521273612976
1761315609542975200,3.499975341796875,0.7548418641090393,0.6971638798713684,1.989365816116333
1761315609553022200,3.510022216796875,0.8193249702453613,0.47365838289260864,2.245429039001465
1761315609563070200,3.5200703125,0.8857729434967041,0.2397071272134781,2.4286677837371826
1761315609573118200,3.5301181640625,0.8979044556617737,0.00811784714460373,2.5203754901885986
1761315609583165200,3.540165283203125,0.8117578625679016,-0.01722053252160549,2.5174338817596436
1761315609593213400,3.55021337890625,0.6822752356529236,0.19294069707393646,2.404914379119873
1761315609603261200,3.56026123046875,0.5970420837402344,0.6015236377716064,2.1940274238586426
1761315609613308200,3.57030810546875,0.6376326680183411,1.244566559791565,1.9779627323150635
1761315609623356200,3.580356201171875,0.8484303951263428,1.9037494659423828,1.7456791400909424
1761315609633403400,3.5904033203125,1.2399801015853882,2.157588243484497,1.5010076761245728
1761315609643451100,3.600451171875,1.7044543027877808,1.973284363746643,1.2128397226333618
1761315609653499100,3.6104990234375,2.139526128768921,1.5164151191711426,0.9207804799079895
1761315609663546400,3.62054638671875,2.443455934524536,0.948165774345398,0.6815209984779358
1761315609673594000,3.630593994140625,2.5976760387420654,0.47966060042381287,0.5131088495254517
1761315609683642400,3.640642333984375,2.6648998260498047,0.32207709550857544,0.4236591160297394
1761315609693689600,3.650689697265625,2.5432088375091553,0.45683836936950684,0.2852437198162079
1761315609703737600,3.660737548828125,2.2196879386901855,0.8253362774848938,0.024228373542428017
1761315609713784600,3.67078466796875,1.761666178703308,1.2005231380462646,-0.37704581022262573
1761315609723832600,3.68083251953125,1.2430248260498047,1.433220624923706,-0.8873836398124695
1761315609733880600,3.690880615234375,0.8400776386260986,1.3768963813781738,-1.3184740543365479
1761315609743927600,3.700927490234375,0.6771888732910156,1.0065326690673828,-1.5764797925949097
1761315609753975300,3.710975341796875,0.6043348908424377,0.4059427082538605,-1.7494633197784424
1761315609764023600,3.7210234375,0.39688557386398315,-0.2637765109539032,-1.9775148630142212
1761315609774070500,3.731070556640625,0.05421556904911995,-0.7179759740829468,-2.1429483890533447
1761315609784118500,3.741118408203125,-0.3428843915462494,-0.5278947353363037,-1.912026286125183
1761315609794165500,3.75116552734375,-0.7034090161323547,-0.05550054460763931,-1.3798748254776
1761315609804213500,3.761213623046875,-0.8540355563163757,0.007074421271681786,-0.722668468952179
1761315609814261500,3.771261474609375,-0.8393913507461548,-0.6302821040153503,-0.04175996407866478
1761315609824308500,3.78130859375,-0.7550767660140991,-1.638698935508728,0.3208475112915039
1761315609834356500,3.7913564453125,-0.5524261593818665,-2.5600521564483643,0.02857518568634987
1761315609844404500,3.801404541015625,-0.2555079460144043,-3.1401658058166504,-0.9005572199821472
1761315609854451500,3.811451416015625,0.18801917135715485,-3.2293508052825928,-2.1237430572509766
1761315609864499500,3.82149951171875,0.6488211154937744,-2.5915987491607666,-3.2198688983917236
1761315609874547500,3.83154736328125,0.9913473129272461,-1.3558688163757324,-3.9741032123565674
1761315609884594400,3.841594482421875,1.2364164590835571,0.04860908165574074,-4.299415588378906
1761315609894642700,3.851642578125,1.3401926755905151,1.191975474357605,-4.201152324676514
1761315609904689700,3.861689697265625,1.3248260021209717,2.0498294830322266,-3.6523375511169434
1761315609914737400,3.8717373046875,1.230663776397705,2.443129539489746,-2.789532423019409
1761315609924785700,3.88178564453125,1.0813283920288086,2.3045942783355713,-1.6917136907577515
1761315609934832600,3.89183251953125,0.9079182147979736,1.6558475494384766,-0.4671514630317688
1761315609944880400,3.90188037109375,0.6780101656913757,0.7533605694770813,0.7326965928077698
1761315609954928400,3.911928466796875,0.3720763623714447,-0.1132756918668747,1.7681900262832642
1761315609964975600,3.9219755859375,0.057137321680784225,-0.7997131943702698,2.5677130222320557
1761315609975023600,3.932023681640625,-0.1820576786994934,-1.2542492151260376,3.161536693572998
1761315609985070600,3.942070556640625,-0.3419272303581238,-1.4948506355285645,3.537562847137451
1761315609995118600,3.95211865234375,-0.4061778783798218,-1.5706812143325806,3.720794677734375
1761315610005166600,3.96216650390625,-0.3644072413444519,-1.4880276918411255,3.7740583419799805
1761315610015213600,3.972213623046875,-0.27701589465141296,-1.2824811935424805,3.745736598968506
1761315610025261300,3.98226123046875,-0.22074542939662933,-0.9732727408409119,3.698195695877075
1761315610035309600,3.9923095703125,-0.2172686755657196,-0.6877954602241516,3.608823537826538
1761315610045356500,4.0023564453125,-0.2309378832578659,-0.5641422271728516,3.367924928665161
1761315610055404500,4.012404541015625,-0.2409050166606903,-0.6326949000358582,2.9419679641723633
1761315610065451500,4.022451416015625,-0.3933241367340088,-0.3200230002403259,2.498602867126465
1761315610075499500,4.03249951171875,-0.5315307378768921,0.022072546184062958,2.1216721534729004
1761315610085547500,4.042547607421875,-0.5606880784034729,0.33484190702438354,1.8622182607650757
1761315610095594500,4.052594482421875,-0.5652660727500916,0.6453321576118469,1.7378956079483032
1761315610105642500,4.062642578125,-0.5692203044891357,0.8789925575256348,1.6938972473144531
1761315610115690500,4.0726904296875,-0.5655017495155334,1.0426256656646729,1.685549020767212
1761315610125737500,4.082737548828125,-0.5415937304496765,1.125548005104065,1.640848159790039
1761315610135785500,4.092785400390625,-0.5392009019851685,1.0980138778686523,1.5095430612564087
1761315610145832400,4.10283251953125,-0.5913969874382019,0.9648065567016602,1.3167868852615356
1761315610155880400,4.11288037109375,-0.7005833983421326,0.8350085616111755,1.1034408807754517
1761315610165928700,4.1229287109375,-0.8352096676826477,0.7220327854156494,0.897289514541626
1761315610175975700,4.1329755859375,-0.9449300169944763,0.6836651563644409,0.8036597371101379
1761315610186023400,4.1430234375,-1.0228158235549927,0.8677335381507874,0.9162635207176208
1761315610196071400,4.153071533203125,-1.1053473949432373,1.20743727684021,1.2350614070892334
1761315610206118700,4.16311865234375,-1.2490448951721191,1.5303170680999756,1.6090872287750244
1761315610216166400,4.17316650390625,-1.4287374019622803,1.4093997478485107,1.8336175680160522
1761315610226213400,4.18321337890625,-1.6704387664794922,0.41539692878723145,1.557165503501892
1761315610236261600,4.19326171875,-2.0126595497131348,-1.1151723861694336,0.6172967553138733
1761315610246309600,4.2033095703125,-2.052929162979126,-2.4352238178253174,-0.7400367856025696
1761315610256356400,4.2133564453125,-1.4446815252304077,-3.0810205936431885,-2.0496490001678467
1761315610266404400,4.223404296875,-0.26363828778266907,-2.8071041107177734,-3.3620734214782715
1761315610276452600,4.23345263671875,1.1345188617706299,-1.708035945892334,-4.944604873657227
1761315610286499600,4.24349951171875,2.4679386615753174,-0.05910886079072952,-6.303088188171387
1761315610296547300,4.25354736328125,3.7574753761291504,1.3867998123168945,-7.041995525360107
1761315610306594600,4.263594482421875,4.569754123687744,2.154855728149414,-6.865479469299316
1761315610316642600,4.273642578125,4.356565475463867,2.1305956840515137,-6.078635215759277
1761315610326690600,4.283690673828125,3.2818846702575684,1.4538004398345947,-5.458356857299805
1761315610336737300,4.2937373046875,1.7719837427139282,0.4478225111961365,-5.218368053436279
1761315610346785500,4.30378564453125,0.4010893702507019,-0.4475513994693756,-4.796546459197998
1761315610356833500,4.31383349609375,-0.41905078291893005,-0.7951269745826721,-3.705130100250244
1761315610366880500,4.323880615234375,-0.6556771993637085,-0.8758196830749512,-2.0771446228027344
1761315610376928500,4.333928466796875,-0.5560249090194702,-0.9952760338783264,-0.2581724226474762
1761315610386975500,4.3439755859375,-0.35675784945487976,-1.3311419486999512,1.2607849836349487
1761315610397023500,4.3540234375,-0.08388344943523407,-1.8291051387786865,2.2982594966888428
1761315610407071500,4.364071533203125,0.2045062631368637,-2.3695576190948486,2.8220582008361816
1761315610417118500,4.374118408203125,0.39325621724128723,-2.588569164276123,2.8600268363952637
1761315610427166500,4.38416650390625,0.44640785455703735,-2.2894372940063477,2.568145513534546
1761315610437214700,4.394214599609375,0.4050220549106598,-1.5219110250473022,2.142606735229492
1761315610447261700,4.40426171875,0.3583296537399292,-0.5282438397407532,1.697035789489746
1761315610457309400,4.414309326171875,0.3901693522930145,0.37712278962135315,1.318453311920166
1761315610467356400,4.4243564453125,0.46715518832206726,1.0833560228347778,1.0549579858779907
1761315610477404700,4.43440478515625,0.5467128753662109,1.5108078718185425,0.8746140599250793
1761315610487452400,4.444452392578125,0.5979971289634705,1.7191314697265625,0.7324497103691101
1761315610497499400,4.45449951171875,0.6426149010658264,1.735478162765503,0.6495934724807739
1761315610507547600,4.464547607421875,0.6872561573982239,1.56197190284729,0.6392422914505005
1761315610517595600,4.474595703125,0.7232173681259155,1.2988609075546265,0.6593025326728821
1761315610527642400,4.484642333984375,0.7627008557319641,1.0277570486068726,0.6952826380729675
1761315610537690400,4.4946904296875,0.7742797136306763,0.8124971389770508,0.7133287787437439
1761315610547737600,4.504737548828125,0.6878849267959595,0.7869318723678589,0.7326947450637817
1761315610557785600,4.51478564453125,0.5065367221832275,0.9173583388328552,0.7555190920829773
1761315610567833300,4.524833251953125,0.2668737769126892,1.0645805597305298,0.7807815670967102
1761315610577880600,4.534880615234375,0.012719256803393364,1.1795930862426758,0.8893043398857117
1761315610587928600,4.544928466796875,-0.17884111404418945,1.1763238906860352,1.1383548974990845
1761315610597976300,4.554976318359375,-0.27587127685546875,0.9453372359275818,1.3874791860580444
1761315610608023300,4.565023193359375,-0.3197263479232788,0.5768409371376038,1.522580623626709
1761315610618071600,4.575071533203125,-0.3649369478225708,0.10731980204582214,1.5285193920135498
1761315610628118500,4.585118408203125,-0.40322256088256836,-0.3272223472595215,1.4765172004699707
1761315610638166500,4.59516650390625,-0.4287814497947693,-0.560608983039856,1.453843355178833
1761315610648214500,4.605214599609375,-0.4855682849884033,-0.4782209098339081,1.4495609998703003
1761315610658261500,4.615261474609375,-0.6330270171165466,-0.23969274759292603,1.3877612352371216
1761315610668309500,4.6253095703125,-0.9361887574195862,-0.09174643456935883,1.1697090864181519
1761315610678356000,4.63535595703125,-1.2647680044174194,-0.20017996430397034,0.8387239575386047
1761315610688404000,4.645404052734375,-1.3037712574005127,-0.7345331311225891,0.5020886659622192
1761315610698451700,4.65545166015625,-1.0306183099746704,-1.640712857246399,0.03439871966838837
1761315610708499000,4.6654990234375,-0.6632083058357239,-2.3624205589294434,-0.6367527842521667
1761315610718547000,4.675546875,-0.3589560389518738,-2.41560697555542,-1.5404841899871826
1761315610728594700,4.6855947265625,-0.38358601927757263,-1.5993704795837402,-2.500335454940796
1761315610738641700,4.6956416015625,-0.569939374923706,0.09574836492538452,-2.8265140056610107
1761315610748690000,4.70568994140625,-0.37094664573669434,1.379429578781128,-2.389204263687134
1761315610758737000,4.71573681640625,0.15735048055648804,1.8840104341506958,-1.48335599899292
1761315610768784600,4.72578466796875,0.6491268873214722,1.8139740228652954,-0.48593100905418396
1761315610778833000,4.7358330078125,0.9042169451713562,1.4282019138336182,0.2076522558927536
1761315610788880000,4.7458798828125,0.8631121516227722,0.8392009139060974,0.4696010649204254
1761315610798928000,4.755927978515625,0.6663258075714111,0.1686611920595169,0.36663952469825745
1761315610808976000,4.765975830078125,0.595869243144989,-0.3078632950782776,0.2645632028579712
1761315610819022800,4.77602294921875,0.6727738976478577,-0.5725436806678772,0.32225528359413147
1761315610829070800,4.78607080078125,0.7832284569740295,-0.5846413373947144,0.43688809871673584
1761315610839117800,4.796117919921875,0.900188684463501,-0.4517115354537964,0.6175404191017151
1761315610849165800,4.806165771484375,0.9675727486610413,-0.36154621839523315,0.8537623286247253
1761315610859213800,4.8162138671875,0.9152736067771912,-0.40582340955734253,1.0761319398880005
1761315610869260800,4.8262607421875,0.7642225623130798,-0.5409828424453735,1.2271292209625244
1761315610879309000,4.83630908203125,0.5475001335144043,-0.704734206199646,1.284158706665039
1761315610889353700,4.846353759765625,0.335033118724823,-0.7522370219230652,1.252199411392212
1761315610899401000,4.85640087890625,0.16649843752384186,-0.6939142942428589,1.169548749923706
1761315610909449000,4.866448974609375,-0.011636948212981224,-0.5840237736701965,1.0565332174301147
1761315610919496000,4.876495849609375,-0.2575569748878479,-0.405190646648407,0.8852605819702148
1761315610929543700,4.886543701171875,-0.47421443462371826,-0.04567907005548477,0.7968446612358093
1761315610939592000,4.896592041015625,-0.6254127621650696,0.4500073790550232,0.916265606880188
1761315610949639000,4.906638916015625,-0.7114133834838867,0.8250116109848022,1.1594269275665283
1761315610959686700,4.916686767578125,-0.7319903373718262,0.8933696150779724,1.3916345834732056
1761315610969735000,4.92673486328125,-0.7344740033149719,0.6824771165847778,1.5332201719284058
1761315610979782000,4.936781982421875,-0.7405398488044739,0.4131460189819336,1.591042160987854
1761315610989830000,4.946829833984375,-0.726624071598053,0.2166558802127838,1.6124305725097656
1761315610999876900,4.956876953125,-0.7036593556404114,0.11198059469461441,1.6436479091644287
1761315611009924900,4.9669248046875,-0.6778512001037598,0.041248369961977005,1.677931547164917
1761315611019972900,4.976972900390625,-0.6692920327186584,0.02468270994722843,1.6463336944580078
1761315611030019800,4.987019775390625,-0.7190220355987549,0.09171953052282333,1.501320242881775
1761315611040067800,4.99706787109375,-0.8670445680618286,0.215428426861763,1.1990792751312256
1761315611050114800,5.00711474609375,-1.1058704853057861,0.2506870925426483,0.7579273581504822
1761315611060162800,5.017162841796875,-1.3959193229675293,0.1053309515118599,0.2731524407863617
1761315611070210800,5.0272109375,-1.6090595722198486,-0.09188304841518402,-0.13853630423545837
1761315611080257800,5.0372578125,-1.7857937812805176,-0.22776445746421814,-0.40210428833961487
1761315611090305800,5.047305908203125,-2.0340778827667236,-0.2392703741788864,-0.5307309627532959
1761315611100354000,5.05735400390625,-2.12595272064209,0.023874972015619278,-0.5974261164665222
1761315611110401000,5.067401123046875,-2.1084835529327393,0.3781512975692749,-0.5849787592887878
1761315611120448800,5.07744873046875,-2.089184522628784,0.5617431998252869,-0.5841665267944336
1761315611130495700,5.087495849609375,-2.111464500427246,0.38593438267707825,-0.6225581169128418
1761315611140544000,5.0975439453125,-2.1892800331115723,-0.13004375994205475,-0.6436071991920471
1761315611150591700,5.107591796875,-2.1989171504974365,-1.0274646282196045,-0.6607233285903931
1761315611160638700,5.117638671875,-2.143650770187378,-2.2206854820251465,-0.7004965543746948
1761315611170686700,5.127686767578125,-2.0265538692474365,-3.365941286087036,-0.851778507232666
1761315611180734000,5.13773388671875,-1.8209006786346436,-3.903325080871582,-1.1543890237808228
1761315611190782000,5.147781982421875,-1.542691946029663,-4.059611797332764,-1.6117900609970093
1761315611200829700,5.15782958984375,-1.2866071462631226,-3.6052722930908203,-2.032174825668335
1761315611210877000,5.167876953125,-0.8746628165245056,-2.2984228134155273,-2.1861345767974854
1761315611220925000,5.177925048828125,-0.35109943151474,-1.1009957790374756,-2.0528767108917236
1761315611230972000,5.187971923828125,0.1926666498184204,-0.4690071642398834,-1.951627492904663
1761315611241019600,5.19801953125,0.7162665128707886,-0.1950022429227829,-1.9341944456100464
1761315611251068000,5.20806787109375,1.2300506830215454,0.011957326903939247,-1.9082385301589966
1761315611261115000,5.218114990234375,1.679129958152771,0.10960638523101807,-1.7906255722045898
1761315611271162600,5.22816259765625,2.0147531032562256,0.08058405667543411,-1.4512792825698853
1761315611281209900,5.2382099609375,2.3182320594787598,-0.03256220370531082,-0.8872914910316467
1761315611291257900,5.2482578125,2.5700151920318604,-0.23658856749534607,-0.37522342801094055
1761315611301305900,5.258305908203125,2.5220189094543457,-0.31748634576797485,-0.3932950794696808
1761315611311352800,5.268352783203125,2.1906700134277344,-0.11680544912815094,-0.573832631111145
1761315611321400800,5.27840087890625,1.621297836303711,0.3289235532283783,-0.8506895303726196
1761315611331448800,5.28844873046875,1.0009549856185913,0.6317780017852783,-1.068459391593933
1761315611341495800,5.298495849609375,0.45333418250083923,0.8890819549560547,-1.084215760231018
1761315611351543800,5.308543701171875,0.142655149102211,1.0218546390533447,-0.8052775859832764
1761315611361590800,5.3185908203125,0.07696109265089035,1.0279301404953003,-0.3131057024002075
1761315611371638800,5.328638671875,0.1274746060371399,1.0730559825897217,0.2805704176425934
1761315611381687000,5.33868701171875,0.20797184109687805,1.1561341285705566,0.9326072931289673
1761315611391733800,5.348733642578125,0.2843875288963318,1.1569451093673706,1.5362106561660767
1761315611401781800,5.35878173828125,0.3199809193611145,1.0464073419570923,1.9747661352157593
1761315611411828700,5.368828857421875,0.2890011668205261,0.8618040084838867,2.2722549438476562
1761315611421877000,5.378876953125,0.21447794139385223,0.6635026335716248,2.4559524059295654
1761315611431924700,5.3889248046875,0.14739824831485748,0.3813374936580658,2.525510549545288
1761315611441971700,5.3989716796875,0.12012321501970291,0.0696222186088562,2.4756977558135986
1761315611452020000,5.40902001953125,0.11767443269491196,-0.12227024883031845,2.3646016120910645
1761315611462067000,5.41906689453125,0.13766172528266907,-0.14843501150608063,2.197005033493042
1761315611472114700,5.42911474609375,0.17626211047172546,-0.051187820732593536,1.9453518390655518
1761315611482163000,5.439162841796875,0.19664834439754486,0.1171732246875763,1.5927783250808716
1761315611492210000,5.4492099609375,0.13499297201633453,0.3304804563522339,1.153786301612854
1761315611502258000,5.4592578125,0.02863750420510769,0.6086031198501587,0.7367565631866455
1761315611512305000,5.469304931640625,-0.10039078444242477,0.9450719952583313,0.37363243103027344
1761315611522353000,5.479352783203125,-0.24223020672798157,1.2562344074249268,0.04439622536301613
1761315611532401000,5.48940087890625,-0.38893362879753113,1.4520728588104248,-0.30855464935302734
1761315611542447900,5.49944775390625,-0.5301509499549866,1.5648537874221802,-0.6625372171401978
1761315611552495900,5.509495849609375,-0.614389955997467,1.6529500484466553,-0.9715576171875
1761315611562543900,5.5195439453125,-0.6834830045700073,1.7418400049209595,-1.2235318422317505
1761315611572590800,5.5295908203125,-0.7684303522109985,1.8836405277252197,-1.3031033277511597
1761315611582638800,5.539638916015625,-0.804628849029541,2.0161385536193848,-1.164319634437561
1761315611592685800,5.549685791015625,-0.6970102190971375,1.997859239578247,-0.939424455165863
1761315611602733800,5.55973388671875,-0.4805721938610077,1.8481017351150513,-0.6964768171310425
1761315611612781800,5.56978173828125,-0.2412879914045334,1.5975592136383057,-0.49854668974876404
1761315611622828800,5.579828857421875,-0.133070707321167,1.209080696105957,-0.43394187092781067
1761315611632876800,5.589876708984375,-0.21950572729110718,0.827265739440918,-0.3511599004268646
1761315611642923800,5.599923828125,-0.3946082890033722,0.4529474973678589,-0.2051086723804474
1761315611652971800,5.6099716796875,-0.5894326567649841,0.12441782653331757,-0.0306902676820755
1761315611663019800,5.620019775390625,-0.7791998982429504,-0.11763102561235428,0.1726015955209732
1761315611673066800,5.630066650390625,-0.979028582572937,-0.374708890914917,0.4954643249511719
1761315611683115000,5.640114990234375,-1.1019601821899414,-0.8254877924919128,0.9373546838760376
1761315611693162000,5.650161865234375,-1.0554850101470947,-1.4413353204727173,1.3511263132095337
1761315611703210200,5.660210205078125,-0.8380509614944458,-2.1993541717529297,1.6453847885131836
1761315611713258000,5.670258056640625,-0.5062887668609619,-2.96628475189209,1.6908388137817383
1761315611723305000,5.680304931640625,-0.09785439074039459,-3.4407434463500977,1.3722113370895386
1761315611733353000,5.69035302734375,0.2795006036758423,-3.6953415870666504,0.6186091899871826
1761315611743400200,5.700400146484375,0.5138364434242249,-3.700038433074951,-0.4671511948108673
1761315611753448000,5.710447998046875,0.573600172996521,-3.304060220718384,-1.5451583862304688
1761315611763496000,5.720495849609375,0.5952263474464417,-2.6492626667022705,-2.4845755100250244
1761315611773543200,5.730543212890625,0.6161433458328247,-1.942947268486023,-3.2115087509155273
1761315611783591000,5.7405908203125,0.5040857791900635,-1.1335806846618652,-3.5671231746673584
1761315611793638000,5.750637939453125,0.31230810284614563,-0.23875612020492554,-3.36104679107666
1761315611803686000,5.760685791015625,0.19491063058376312,0.483267605304718,-2.5364043712615967
1761315611813734100,5.770734130859375,0.18712808191776276,0.7368851900100708,-1.3657678365707397
1761315611823781000,5.780781005859375,0.2605346441268921,0.6059005856513977,-0.21611978113651276
1761315611833828900,5.790828857421875,0.3569527864456177,0.20787064731121063,0.7045542001724243
1761315611843875800,5.800875732421875,0.39940145611763,-0.27177345752716064,1.269059658050537
1761315611853924000,5.810924072265625,0.35866042971611023,-0.6939657330513,1.447577953338623
1761315611863971800,5.820971923828125,0.2735061049461365,-0.9093949198722839,1.357173204421997
1761315611874018800,5.831018798828125,0.2149096429347992,-0.861415684223175,1.160300612449646
1761315611884067000,5.841067138671875,0.20215602219104767,-0.5793158411979675,0.9238969087600708
1761315611894114000,5.851114013671875,0.24069969356060028,-0.2337413877248764,0.677981436252594
1761315611904162000,5.861162109375,0.33243468403816223,0.1592264026403427,0.45268386602401733
1761315611914210000,5.8712099609375,0.4546356797218323,0.6380824446678162,0.27077025175094604
1761315611924257000,5.881257080078125,0.5859138369560242,1.1316232681274414,0.14935433864593506
1761315611934305000,5.891304931640625,0.6936138868331909,1.493140459060669,0.05614209920167923
1761315611944352000,5.90135205078125,0.7238122820854187,1.6310348510742188,-0.024750087410211563
1761315611954400000,5.91139990234375,0.6420953273773193,1.5905306339263916,-0.12965652346611023
1761315611964448000,5.921447998046875,0.5099961161613464,1.4211788177490234,-0.2154254913330078
1761315611974495000,5.931494873046875,0.30117130279541016,1.0857752561569214,-0.26482847332954407
1761315611984543000,5.94154296875,0.016997093334794044,0.6007598638534546,-0.21468940377235413
1761315611994590000,5.95158984375,-0.29691821336746216,0.21116364002227783,-0.03407754376530647
1761315612004638000,5.961637939453125,-0.5787459015846252,0.03527543321251869,0.26858779788017273
1761315612014686200,5.971686279296875,-0.7984210252761841,-0.1135161742568016,0.5864254236221313
1761315612024733200,5.981733154296875,-0.9567033052444458,-0.3245525062084198,0.8313369154930115
1761315612034781000,5.991781005859375,-1.1088312864303589,-0.4263864755630493,0.9224534630775452
1761315612044828000,6.001827880859375,-1.2221707105636597,-0.33970165252685547,0.9037951231002808
1761315612054876200,6.011876220703125,-1.3101894855499268,0.024353276938199997,0.861490786075592
1761315612064924000,6.021923828125,-1.3689899444580078,0.6198198199272156,0.828687846660614
1761315612074971000,6.031970947265625,-1.3495081663131714,1.2522354125976562,0.7455599308013916
1761315612085019100,6.04201904296875,-1.187170147895813,1.426514744758606,0.5460979342460632
1761315612095066000,6.052066162109375,-0.7954145669937134,1.0519150495529175,0.35094764828681946
1761315612105113900,6.06211376953125,-0.2211017608642578,0.43142810463905334,0.295172780752182
1761315612115161900,6.072161865234375,0.33452337980270386,-0.052919674664735794,0.4383762776851654
1761315612125209000,6.082208984375,0.6968728303909302,-0.4076426029205322,0.6077565550804138
1761315612135257000,6.092257080078125,0.7465364933013916,-0.7338840961456299,0.5824740529060364
1761315612145304000,6.102303955078125,0.5332644581794739,-1.1121594905853271,0.23619894683361053
1761315612155352000,6.11235205078125,-0.04735393449664116,-1.5045390129089355,-0.31323301792144775
1761315612165400000,6.122400146484375,-0.8108880519866943,-1.35798180103302,-0.648919403553009
1761315612175447000,6.132447021484375,-1.1183524131774902,-1.2621897459030151,-0.7643205523490906
1761315612185494800,6.142494873046875,-0.9494797587394714,-1.4673192501068115,-0.9028486013412476
1761315612195543000,6.15254296875,-0.6487236618995667,-1.6991047859191895,-1.2292118072509766
1761315612205590000,6.162590087890625,-0.2532983124256134,-1.8697305917739868,-1.7071964740753174
1761315612215638000,6.172637939453125,0.23745489120483398,-1.6327015161514282,-2.077712059020996
1761315612225685000,6.18268505859375,0.6677263975143433,-0.997921347618103,-2.2860348224639893
1761315612235733000,6.19273291015625,0.8710976243019104,-0.263418585062027,-2.380028486251831
1761315612245780000,6.202780029296875,0.7924310564994812,0.3231237232685089,-2.398658037185669
1761315612255828000,6.212827880859375,0.49123018980026245,0.590869128704071,-2.3561854362487793
1761315612265876000,6.2228759765625,0.11573831737041473,0.6145318746566772,-2.1848537921905518
1761315612275923000,6.2329228515625,-0.16054973006248474,0.324942409992218,-1.8592523336410522
1761315612285971000,6.242970947265625,-0.23638643324375153,-0.12215173989534378,-1.384229063987732
1761315612296018000,6.253017822265625,-0.15159165859222412,-0.48286172747612,-0.8007030487060547
1761315612306066000,6.26306591796875,0.0012956279097124934,-0.6719033122062683,-0.19837833940982819
1761315612316114000,6.273114013671875,0.19530931115150452,-0.6774192452430725,0.3540020287036896
1761315612326161000,6.283160888671875,0.4063571095466614,-0.5189217329025269,0.7981206178665161
1761315612336209200,6.293209228515625,0.6000357270240784,-0.23102229833602905,1.119178295135498
1761315612346256100,6.303256103515625,0.7187602519989014,0.09587299823760986,1.3302526473999023
1761315612356304000,6.313303955078125,0.7639346718788147,0.42054349184036255,1.4917787313461304
1761315612366352100,6.32335205078125,0.7631972432136536,0.6825761795043945,1.6069066524505615
1761315612376399000,6.333399169921875,0.7317479848861694,0.7548551559448242,1.6356208324432373
1761315612386446800,6.34344677734375,0.6759060025215149,0.6248905062675476,1.585866093635559
1761315612396493800,6.353493896484375,0.6253786683082581,0.32352879643440247,1.5067139863967896
1761315612406542000,6.3635419921875,0.5710328817367554,-0.061578407883644104,1.4060081243515015
1761315612416590000,6.373590087890625,0.5001363158226013,-0.2586696445941925,1.3260403871536255
1761315612426637000,6.383636962890625,0.39570045471191406,-0.24433836340904236,1.274236798286438
1761315612436685000,6.39368505859375,0.2165008783340454,-0.12166731059551239,1.248286485671997
1761315612446732000,6.40373193359375,-0.01366201601922512,0.17953194677829742,1.2920647859573364
1761315612456780000,6.413780029296875,-0.23097196221351624,0.6878793239593506,1.4334461688995361
1761315612466828000,6.423828125,-0.37873905897140503,1.196226716041565,1.6954858303070068
1761315612476875000,6.433875,-0.42683708667755127,1.4794589281082153,2.008760452270508
1761315612486923000,6.443923095703125,-0.4023466408252716,1.288262128829956,2.3128650188446045
1761315612496970000,6.453969970703125,-0.3758290112018585,0.857014536857605,2.5591013431549072
1761315612507018000,6.46401806640625,-0.3577168583869934,0.2799472212791443,2.6984903812408447
1761315612517066000,6.47406591796875,-0.3319616913795471,-0.21306221187114716,2.7049098014831543
1761315612527113000,6.484113037109375,-0.29170456528663635,-0.34929540753364563,2.5847578048706055
1761315612537161200,6.4941611328125,-0.18838588893413544,-0.3685514032840729,2.296522617340088
1761315612547208200,6.504208251953125,-0.048109740018844604,-0.590127170085907,1.8998926877975464
1761315612557256000,6.514255859375,0.05579002946615219,-1.0798766613006592,1.4858499765396118
1761315612567304000,6.524303955078125,0.07722341269254684,-1.7152243852615356,0.9301670789718628
1761315612577351200,6.53435107421875,0.012774384580552578,-1.9721429347991943,0.31462663412094116
1761315612587399000,6.54439892578125,-0.002942526713013649,-1.7266703844070435,-0.25510260462760925
1761315612597446000,6.55444580078125,0.05275988578796387,-1.2432405948638916,-0.8183137774467468
1761315612607494100,6.564494140625,0.03756335377693176,-0.6710758209228516,-1.1323933601379395
1761315612617542100,6.574542236328125,0.08329648524522781,-0.34885039925575256,-1.0478018522262573
1761315612627588900,6.5845888671875,0.21309763193130493,-0.11750798672437668,-0.809188961982727
1761315612637636900,6.594636962890625,0.423088937997818,-0.2677409052848816,-0.8812668919563293
1761315612647684000,6.60468408203125,0.5142009854316711,-0.7557110786437988,-1.3181462287902832
1761315612657732000,6.614732177734375,0.47069934010505676,-1.3556290864944458,-1.8587788343429565
1761315612667779800,6.62477978515625,0.4364183247089386,-1.8664189577102661,-2.2797436714172363
1761315612677827000,6.6348271484375,0.42259520292282104,-2.0218985080718994,-2.493035316467285
1761315612687875000,6.644875,0.32559168338775635,-1.547194004058838,-2.581005573272705
1761315612697922000,6.654922119140625,0.2037683129310608,-0.6823407411575317,-2.597505807876587
1761315612707970000,6.664969970703125,0.16147758066654205,0.04428517445921898,-2.5179808139801025
1761315612718018000,6.67501806640625,0.23312540352344513,0.3653644025325775,-2.4094901084899902
1761315612728065000,6.68506494140625,0.44364774227142334,0.3279552459716797,-2.2556207180023193
1761315612738113300,6.69511328125,0.7548128366470337,0.19938313961029053,-2.024768352508545
1761315612748160000,6.705159912109375,1.060707449913025,0.25331801176071167,-1.6522091627120972
1761315612758208000,6.7152080078125,1.2336961030960083,0.4908253848552704,-1.2502175569534302
1761315612768255000,6.7252548828125,1.2758930921554565,0.8080874681472778,-0.9404647350311279
1761315612778303200,6.73530322265625,1.2283282279968262,1.1609536409378052,-0.773993968963623
1761315612788351000,6.74535107421875,1.1293363571166992,1.5263950824737549,-0.7658678889274597
1761315612798398000,6.75539794921875,0.9650698900222778,1.9695045948028564,-0.8240541815757751
1761315612808446200,6.7654462890625,0.8023023009300232,2.6035680770874023,-0.789690375328064
1761315612818493200,6.7754931640625,0.6298367977142334,3.6045119762420654,-0.542891800403595
1761315612828541000,6.785541015625,0.39205777645111084,4.516972541809082,-0.1575946807861328
1761315612838589200,6.795589111328125,0.27051883935928345,4.998885631561279,0.26064038276672363
1761315612848636200,6.80563623046875,0.26000842452049255,5.122198104858398,0.637415885925293
1761315612858684200,6.81568408203125,0.35486674308776855,4.911185264587402,0.9890069365501404
1761315612868731100,6.825731201171875,0.44605445861816406,4.4556050300598145,1.2554503679275513
1761315612878779100,6.835779052734375,0.4999549686908722,3.846104621887207,1.4171130657196045
1761315612888827100,6.8458271484375,0.4760211408138275,3.0647268295288086,1.5081909894943237
1761315612898874000,6.8558740234375,0.4202532172203064,2.313750982284546,1.6150119304656982
1761315612908922000,6.865922119140625,0.3569972813129425,1.420982837677002,1.6710566282272339
1761315612918969000,6.875968994140625,0.26507800817489624,0.49373435974121094,1.6590206623077393
1761315612929017000,6.88601708984375,0.17524558305740356,-0.28940704464912415,1.6227636337280273
1761315612939065000,6.896065185546875,0.10750196129083633,-0.9320427179336548,1.512657642364502
1761315612949112000,6.906112060546875,0.12247638404369354,-1.2723771333694458,1.319151520729065
1761315612959160000,6.91616015625,0.1765473335981369,-1.4094558954238892,1.0781943798065186
1761315612969207000,6.92620703125,0.24948012828826904,-1.5305434465408325,0.8779829740524292
1761315612979255300,6.93625537109375,0.34750762581825256,-1.7314387559890747,0.8583139181137085
1761315612989303000,6.946302978515625,0.3619193136692047,-1.937849998474121,1.093470811843872
1761315612999350000,6.95635009765625,0.27554023265838623,-2.3557682037353516,1.3461426496505737
1761315613009398000,6.96639794921875,0.13618819415569305,-3.0900142192840576,1.405210018157959
1761315613019445200,6.9764453125,-0.17833325266838074,-3.5212044715881348,1.2933462858200073
1761315613029493000,6.986492919921875,-0.4416320025920868,-3.1299550533294678,1.1855010986328125
1761315613039541000,6.996541015625,-0.5153083801269531,-2.544713020324707,1.132993459701538
1761315613049588200,7.006588134765625,-0.6320993900299072,-2.1955478191375732,0.963103175163269
1761315613059636200,7.01663623046875,-0.8424081802368164,-1.956484317779541,0.7285942435264587
1761315613069683200,7.02668310546875,-0.8568009734153748,-1.2306941747665405,0.5714906454086304
1761315613079731000,7.03673095703125,-0.733720064163208,-0.4731004536151886,0.21681752800941467
1761315613089778200,7.046778076171875,-0.5563612580299377,-0.17448551952838898,-0.4740256369113922
1761315613099826200,7.056826171875,-0.4330292046070099,-0.37669748067855835,-1.487767219543457
1761315613109874000,7.0668740234375,-0.3924604654312134,-0.8233639001846313,-2.57432222366333
1761315613119921000,7.0769208984375,-0.3532763123512268,-1.3641235828399658,-3.4986326694488525
1761315613129969200,7.08696923828125,-0.3756580352783203,-1.990707278251648,-4.3059492111206055
1761315613140016000,7.09701611328125,-0.4736802279949188,-2.253774404525757,-4.833001613616943
1761315613150063900,7.10706396484375,-0.5523412227630615,-1.7780911922454834,-4.845508575439453
1761315613160112000,7.117112060546875,-0.5987981557846069,-0.6637963652610779,-4.328251838684082
1761315613170159000,7.1271591796875,-0.5070126056671143,0.5429373383522034,-3.378716468811035
1761315613180207000,7.13720703125,-0.4841621518135071,1.3201920986175537,-2.2451541423797607
1761315613190254000,7.147254150390625,-0.4499666392803192,1.3630231618881226,-1.1629310846328735
1761315613200302000,7.157302001953125,-0.300434410572052,0.7386037707328796,-0.24947427213191986
1761315613210350000,7.16735009765625,-0.11183598637580872,-0.09199650585651398,0.36337074637413025
1761315613220397000,7.17739697265625,0.04308222234249115,-0.7494010329246521,0.6711272597312927
1761315613230445000,7.187445068359375,0.16011349856853485,-1.1056784391403198,0.7348854541778564
1761315613240492000,7.197491943359375,0.26005715131759644,-1.129112958908081,0.6604207754135132
1761315613250540000,7.2075400390625,0.3750559091567993,-0.869408905506134,0.5290409326553345
1761315613260588300,7.21758837890625,0.5430824756622314,-0.44103333353996277,0.42412278056144714
1761315613270635000,7.227635009765625,0.7380210757255554,0.111365407705307,0.3762868046760559
1761315613280683000,7.23768310546875,1.0409988164901733,0.6542225480079651,0.4115614593029022
1761315613290730000,7.24772998046875,1.2830297946929932,1.1104915142059326,0.5584672689437866
1761315613300778200,7.2577783203125,1.3258893489837646,1.4037237167358398,0.7605791091918945
1761315613310825200,7.2678251953125,1.1692099571228027,1.5100551843643188,0.9472815990447998
1761315613320873000,7.277873046875,0.8802658319473267,1.3630396127700806,1.086451768875122
1761315613330921200,7.287921142578125,0.5161699056625366,0.904831051826477,1.1514192819595337
1761315613340968200,7.29796826171875,0.13386379182338715,0.17974179983139038,1.140323519706726
1761315613351016000,7.308015869140625,-0.13506408035755157,-0.4465005397796631,1.1497822999954224
1761315613361063000,7.31806298828125,-0.26196423172950745,-0.5780518651008606,1.2484196424484253
1761315613371111200,7.328111083984375,-0.29377782344818115,-0.33228233456611633,1.3815544843673706
1761315613381159200,7.3381591796875,-0.2702977955341339,0.08581743389368057,1.5204966068267822
1761315613391206100,7.3482060546875,-0.20886027812957764,0.5302993059158325,1.6580544710159302
1761315613401254100,7.358254150390625,-0.15495043992996216,0.833536684513092,1.7266016006469727
1761315613411301000,7.368301025390625,-0.15241484344005585,0.9815719127655029,1.7558817863464355
1761315613421349000,7.37834912109375,-0.17238588631153107,1.104562520980835,1.788678526878357
1761315613431397000,7.388397216796875,-0.16561320424079895,1.2563978433609009,1.8546885251998901
1761315613441444000,7.398444091796875,-0.14546851813793182,1.2701866626739502,1.9156213998794556
1761315613451492000,7.4084921875,-0.15304601192474365,0.8754979372024536,1.8883135318756104
1761315613461539000,7.4185390625,-0.13334473967552185,0.08049830794334412,1.7061213254928589
1761315613471587000,7.428587158203125,-0.05697167292237282,-0.8279879689216614,1.399735927581787
1761315613481634000,7.438634033203125,0.05254549905657768,-1.4323172569274902,1.0793941020965576
1761315613491682000,7.44868212890625,0.23369531333446503,-1.4361575841903687,0.8566555380821228
1761315613501730300,7.458730224609375,0.45172539353370667,-1.0303906202316284,0.6033124923706055
1761315613511777300,7.46877734375,0.5979044437408447,-0.359950453042984,0.22393083572387695
1761315613521825000,7.478824951171875,0.5768063068389893,0.5456106066703796,-0.19155451655387878
1761315613531872000,7.4888720703125,0.4577787518501282,1.3567290306091309,-0.539975643157959
1761315613541920300,7.498920166015625,0.3093586564064026,1.4887655973434448,-0.9169002771377563
1761315613551968000,7.508968017578125,0.11286742985248566,0.7843558192253113,-1.398702621459961
1761315613562015000,7.519014892578125,-0.16316868364810944,-0.2739660441875458,-1.9299811124801636
1761315613572063000,7.52906298828125,-0.39272812008857727,-1.3165435791015625,-2.5044803619384766
1761315613582110200,7.539110107421875,-0.42692869901657104,-2.0582175254821777,-3.0438945293426514
1761315613592158000,7.549157958984375,-0.3864302635192871,-2.1650497913360596,-3.3965911865234375
1761315613602206000,7.5592060546875,-0.4887792766094208,-1.6527947187423706,-3.449986696243286
1761315613612253200,7.569253173828125,-0.787828266620636,-0.8580129742622375,-3.1170191764831543
1761315613622301200,7.57930126953125,-1.1707240343093872,-0.21764497458934784,-2.5119080543518066
1761315613632348200,7.58934814453125,-1.3926526308059692,-0.094702810049057,-1.7393227815628052
1761315613642396000,7.59939599609375,-1.3327957391738892,-0.42850261926651,-0.8982482552528381
1761315613652443100,7.609443115234375,-1.128005862236023,-0.9224992990493774,-0.16886278986930847
1761315613662491100,7.6194912109375,-0.955495297908783,-1.3722089529037476,0.3261895477771759
1761315613672539000,7.629538818359375,-0.8904164433479309,-1.6741727590560913,0.5797163844108582
1761315613682590000,7.63958984375,-0.8874284029006958,-1.7947570085525513,0.6304346919059753
1761315613692638000,7.649637939453125,-0.8879407644271851,-1.7354375123977661,0.5286393165588379
1761315613702685000,7.659684814453125,-0.7981022596359253,-1.4865144491195679,0.2976207733154297
1761315613712733000,7.66973291015625,-0.5950859785079956,-1.076907992362976,-0.010022540576756
1761315613722781000,7.679781005859375,-0.30835863947868347,-0.4975690245628357,-0.3421996831893921
1761315613732828000,7.689827880859375,-0.004594219382852316,0.17966003715991974,-0.6161497235298157
1761315613742876200,7.699876220703125,0.24609605967998505,0.8032176494598389,-0.7229489088058472
1761315613752923100,7.709923095703125,0.42100581526756287,1.262201189994812,-0.5999444127082825
1761315613762971000,7.719970947265625,0.5227628350257874,1.4716968536376953,-0.3281794786453247
1761315613773017900,7.730017822265625,0.5759775638580322,1.4091123342514038,-0.017540644854307175
1761315613783066000,7.740066162109375,0.6067602634429932,1.0844706296920776,0.2900821566581726
1761315613793113900,7.75011376953125,0.6076579689979553,0.6268662810325623,0.5405591130256653
1761315613803160800,7.760160888671875,0.5543864965438843,0.1591435819864273,0.7222668528556824
1761315613813209000,7.770208984375,0.4729292094707489,-0.16178810596466064,0.9043589234352112
1761315613823256000,7.780256103515625,0.3680376708507538,-0.2126467525959015,1.1396883726119995
1761315613833303800,7.7903037109375,0.23925545811653137,-0.0471869520843029,1.3932127952575684
1761315613843352000,7.80035205078125,0.11911386996507645,0.2474910169839859,1.6248366832733154
1761315613853399000,7.81039892578125,0.08503047376871109,0.5609186887741089,1.829071044921875
1761315613863447000,7.820447021484375,0.13360413908958435,0.7939676642417908,2.0035905838012695
1761315613873494000,7.830493896484375,0.20366550981998444,0.9178068041801453,2.111870765686035
1761315613883542000,7.8405419921875,0.22550901770591736,0.8711977601051331,2.142157554626465
1761315613893589000,7.850589111328125,0.15996703505516052,0.6912341117858887,2.067455291748047
1761315613903637000,7.860636962890625,0.045760031789541245,0.38838475942611694,1.8725676536560059
1761315613913684700,7.870684814453125,-0.090950146317482,0.06551109999418259,1.6046687364578247
1761315613923732000,7.88073193359375,-0.18954436480998993,-0.1728905588388443,1.3814774751663208
1761315613933780000,7.890780029296875,-0.1995069831609726,-0.2983557879924774,1.2379227876663208
1761315613943827000,7.900826904296875,-0.15995557606220245,-0.2988881766796112,1.1358461380004883
1761315613953875000,7.910875,-0.1078132838010788,-0.13250398635864258,1.021369457244873
1761315613963923000,7.9209228515625,0.0022069616243243217,0.12191232293844223,0.8455302119255066
1761315613973970000,7.930969970703125,0.18236660957336426,0.16931019723415375,0.5594204068183899
1761315613984018000,7.941017822265625,0.3949558436870575,-0.2517446279525757,0.14975833892822266
1761315613994065200,7.951065185546875,0.36713406443595886,-0.8026272058486938,-0.3673069179058075
1761315614004113000,7.96111279296875,0.11859189718961716,-0.905424952507019,-0.7675808072090149
1761315614014160000,7.971159912109375,-0.10310082137584686,-0.6398108601570129,-0.9286024570465088
1761315614024208100,7.9812080078125,-0.13086214661598206,-0.3139027953147888,-0.9668174982070923
1761315614034256000,7.991255859375,0.061226338148117065,0.043905407190322876,-0.806429922580719
1761315614044302800,8.001302734375,0.2995252013206482,0.4396655261516571,-0.5137948989868164
1761315614054350800,8.011350830078126,0.35900530219078064,0.7854833602905273,-0.38633838295936584
1761315614064398000,8.021398193359374,0.2736850678920746,1.0618574619293213,-0.5407236814498901
1761315614074446000,8.031446044921875,0.11009028553962708,0.8967662453651428,-1.0519965887069702
1761315614084493800,8.041493896484376,-0.08440303057432175,-0.10759783536195755,-1.8563487529754639
1761315614094541000,8.051541015625,-0.2807163596153259,-1.434942603111267,-2.5287866592407227
1761315614104589000,8.061589111328125,-0.5031033754348755,-2.38216233253479,-2.8534340858459473
1761315614114636000,8.071635986328126,-0.6332157850265503,-2.7914342880249023,-2.782259702682495
1761315614124683800,8.081683837890624,-0.5936830639839172,-2.575087070465088,-2.3537161350250244
1761315614134731000,8.09173095703125,-0.41563209891319275,-1.9175074100494385,-1.7168915271759033
1761315614144779000,8.101779052734376,-0.198281392455101,-1.1624239683151245,-0.9981207847595215
1761315614154826800,8.11182666015625,-0.01558322086930275,-0.44811201095581055,-0.2839193344116211
1761315614164874000,8.1218740234375,0.05010417848825455,0.11890535056591034,0.3185412287712097
1761315614174922000,8.131921875,-0.07402469217777252,0.41622304916381836,0.6954432129859924
1761315614184969000,8.141968994140624,-0.3549101650714874,0.5130518674850464,0.8692251443862915
1761315614195017000,8.152016845703125,-0.6958216428756714,0.45385271310806274,0.8841692209243774
1761315614205064000,8.16206396484375,-0.9931300282478333,0.2878597378730774,0.8112073540687561
1761315614215112000,8.17211181640625,-1.1703429222106934,0.1179274320602417,0.715938925743103
1761315614225160000,8.182159912109375,-1.1590121984481812,0.022757776081562042,0.6694017648696899
1761315614235207200,8.192207275390626,-0.9281046986579895,0.05220887437462807,0.6827266216278076
1761315614245255000,8.2022548828125,-0.5675896406173706,0.20330438017845154,0.7466353178024292
1761315614255302000,8.212302001953125,-0.15623700618743896,0.4721614122390747,0.8611850738525391
1761315614265350000,8.222349853515626,0.22283494472503662,0.845580518245697,1.005083680152893
1761315614275398000,8.23239794921875,0.49539002776145935,1.212131142616272,1.0896986722946167
1761315614285444900,8.24244482421875,0.6200613975524902,1.505570650100708,1.0678335428237915
1761315614295492900,8.252492919921876,0.636216402053833,1.6936314105987549,0.9639082551002502
1761315614305539800,8.262539794921874,0.5620058178901672,1.7123239040374756,0.7864437103271484
1761315614315588000,8.272588134765625,0.42730632424354553,1.548148512840271,0.5715737342834473
1761315614325635000,8.282635009765626,0.24629685282707214,1.184346318244934,0.3596865236759186
1761315614335682800,8.292682861328124,0.09622906148433685,0.6636133790016174,0.22474415600299835
1761315614345731000,8.30273095703125,0.043114446103572845,0.23110805451869965,0.25298139452934265
1761315614355778000,8.312778076171876,0.05812668427824974,0.145811527967453,0.4512241780757904
1761315614365825800,8.32282568359375,0.10467048734426498,0.3546081483364105,0.7127127647399902
1761315614375872800,8.332872802734375,0.14491911232471466,0.6403166055679321,0.9801178574562073
1761315614385921000,8.342921142578126,0.17546182870864868,0.8732201457023621,1.2401198148727417
1761315614395968000,8.352968017578124,0.24746465682983398,0.901683509349823,1.4660470485687256
1761315614406016000,8.36301611328125,0.39879584312438965,0.7019307017326355,1.6697343587875366
1761315614416064000,8.37306396484375,0.6628786325454712,0.4226974546909332,1.8324545621871948
1761315614426111000,8.383111083984375,0.9823018908500671,0.1354510337114334,1.8494561910629272
1761315614436159000,8.393158935546875,1.2118679285049438,-0.18038548529148102,1.5668470859527588
1761315614446206000,8.4032060546875,1.2019191980361938,-0.4397936165332794,0.9226670861244202
1761315614456254000,8.41325390625,0.9440200328826904,-0.4989456236362457,0.06452146917581558
1761315614466301000,8.423301025390625,0.541036069393158,-0.2620049715042114,-0.7172009944915771
1761315614476349000,8.433348876953126,0.15523113310337067,0.41386881470680237,-1.103263258934021
1761315614486397000,8.44339697265625,-0.0498378649353981,1.2729161977767944,-1.0641735792160034
1761315614496444000,8.45344384765625,0.02009115368127823,1.8949514627456665,-0.7702072262763977
1761315614506492000,8.463491943359376,0.2869119346141815,1.9892289638519287,-0.4522087574005127
1761315614516539000,8.473538818359375,0.5865969061851501,1.6274327039718628,-0.3087541162967682
1761315614526587100,8.483587158203125,0.790065586566925,0.867986261844635,-0.49563905596733093
1761315614536633900,8.4936337890625,0.8025209307670593,-0.16798314452171326,-0.9620389938354492
1761315614546681900,8.503681884765625,0.6984139680862427,-0.916702389717102,-1.4827882051467896
1761315614556730000,8.513730224609375,0.5357012152671814,-1.1740100383758545,-1.9556605815887451
1761315614566777000,8.523777099609376,0.3280273973941803,-1.1266766786575317,-2.3707892894744873
1761315614576824800,8.533824951171875,0.1858164668083191,-0.9150757193565369,-2.7029170989990234
1761315614586871800,8.543871826171875,0.16816823184490204,-0.5928984880447388,-2.9818103313446045
1761315614596920000,8.553920166015626,0.22456839680671692,-0.28564879298210144,-3.150876045227051
1761315614606967800,8.5639677734375,0.25047776103019714,-0.1249464601278305,-3.13118839263916
1761315614617014800,8.574014892578125,0.04863731190562248,-0.15204626321792603,-2.9968440532684326
1761315614627063000,8.58406298828125,-0.25224369764328003,-0.3495793044567108,-2.7969751358032227
1761315614637110000,8.594110107421875,-0.47393694519996643,-0.6053125262260437,-2.412659168243408
1761315614647158000,8.604157958984375,-0.6001814007759094,-0.8317469954490662,-1.8647059202194214
1761315614657205000,8.614205078125,-0.6154314875602722,-0.9942784309387207,-1.026914358139038
1761315614667253000,8.6242529296875,-0.6155784726142883,-0.9318304657936096,-0.2057473063468933
1761315614677301000,8.634301025390625,-0.6899067759513855,-0.8225892186164856,0.41034623980522156
1761315614687344000,8.64434423828125,-0.6660720109939575,-0.7551161646842957,0.8810714483261108
1761315614697391900,8.654391845703126,-0.5584835410118103,-0.6036150455474854,1.231888771057129
1761315614707438800,8.66443896484375,-0.41023918986320496,-0.3787316083908081,1.435102105140686
1761315614717486800,8.67448681640625,-0.264317125082016,-0.11445041000843048,1.5197930335998535
1761315614727534000,8.6845341796875,-0.1253241002559662,0.16821883618831635,1.500528335571289
1761315614737582000,8.69458203125,-0.016641294583678246,0.5138918161392212,1.4342858791351318
1761315614747629800,8.7046298828125,0.0384477898478508,0.9171481728553772,1.357026219367981
1761315614757677000,8.714677001953126,0.06216563656926155,1.3378288745880127,1.2260940074920654
1761315614767725000,8.72472509765625,0.07977952063083649,1.7681528329849243,1.0220394134521484
1761315614777772000,8.73477197265625,0.10261692106723785,2.173739433288574,0.730067253112793
1761315614787819800,8.74481982421875,0.14770370721817017,2.4115827083587646,0.35650697350502014
1761315614797867000,8.754866943359374,0.25317978858947754,1.9335654973983765,-0.1405765563249588
1761315614807915000,8.7649150390625,0.4232122600078583,0.7623839378356934,-0.6366686224937439
1761315614817963000,8.774962890625,0.6069109439849854,-0.15689533948898315,-0.8883466720581055
1761315614828009700,8.785009765625,0.7225294709205627,-0.3729962110519409,-0.8323858976364136
1761315614838058000,8.79505810546875,0.8130340576171875,-0.11364800482988358,-0.5608300566673279
1761315614848105000,8.80510498046875,0.9089698791503906,0.3990110456943512,-0.19840283691883087
1761315614858153000,8.815153076171875,1.0090069770812988,0.9247874617576599,0.12605832517147064
1761315614868200000,8.825199951171875,1.072484016418457,1.3318886756896973,0.29394134879112244
1761315614878248000,8.835248046875,1.0234853029251099,1.603212833404541,0.24386538565158844
1761315614888296000,8.8452958984375,0.8518959283828735,1.7418991327285767,-0.0009744506096467376
1761315614898343000,8.855343017578125,0.6091808080673218,1.7235679626464844,-0.3646746277809143
1761315614908391000,8.865390869140626,0.3755861520767212,1.5315051078796387,-0.737679660320282
1761315614918438000,8.87543798828125,0.19984972476959229,1.1516698598861694,-1.040806770324707
1761315614928486000,8.88548583984375,0.09190408885478973,0.600360631942749,-1.190019130706787
1761315614938533000,8.895533203125,0.051535628736019135,-0.03279576450586319,-1.1718417406082153
1761315614948580900,8.905580810546875,0.09803734719753265,-0.5377939343452454,-1.023478627204895
1761315614958628900,8.91562890625,0.20443090796470642,-0.7764946818351746,-0.829734206199646
1761315614968675800,8.92567578125,0.33364349603652954,-0.7475783228874207,-0.6680419445037842
1761315614978724000,8.93572412109375,0.43945086002349854,-0.5081154108047485,-0.5533835887908936
1761315614988771000,8.94577099609375,0.4680881202220917,-0.05320676416158676,-0.45891618728637695
1761315614998818800,8.95581884765625,0.4518321752548218,0.5093873739242554,-0.3449656367301941
1761315615008866000,8.965865966796875,0.45989543199539185,1.0909804105758667,-0.20887066423892975
1761315615018914000,8.9759140625,0.4965498447418213,1.5256136655807495,-0.07742927968502045
1761315615028961000,8.9859609375,0.5411319732666016,1.8015602827072144,0.028924325481057167
1761315615039008800,8.9960087890625,0.479346364736557,1.9130021333694458,0.2837773859500885
1761315615049057000,9.00605712890625,0.29378020763397217,1.4173716306686401,0.47672155499458313
1761315615059104000,9.01610400390625,0.12079592794179916,0.5344399809837341,0.5320745706558228
1761315615069152000,9.026152099609375,0.030467361211776733,-0.33010387420654297,0.45124974846839905
1761315615079199000,9.036198974609375,-0.04309340938925743,-0.8662482500076294,0.3016653060913086
1761315615089247000,9.0462470703125,-0.13205790519714355,-1.040374755859375,0.14977937936782837
1761315615099294000,9.0562939453125,-0.2454792708158493,-1.0147820711135864,-0.014058294706046581
1761315615109342000,9.066342041015625,-0.405792236328125,-0.9991565346717834,-0.13581855595111847
1761315615119390000,9.076389892578124,-0.502477765083313,-1.0519424676895142,-0.2277735024690628
