time,seconds_elapsed,z,y,x
1761333579894446000,0.079446044921875,9.884750366210938,0.5431707501411438,0.2392822653055191
1761333579913145000,0.09814501953125,9.884750366210938,0.5288137793540955,0.24885354936122894
1761333579931844000,0.116843994140625,9.891928672790527,0.5383850932121277,0.23449662327766418
1761333579950542800,0.13554296875,9.879964828491211,0.5312066078186035,0.24646073579788208
1761333579969241900,0.154241943359375,9.879964828491211,0.5288137793540955,0.24167509377002716
1761333579987940900,0.17294091796875,9.872786521911621,0.5359922647476196,0.24406790733337402
1761333580006639900,0.191639892578125,9.884750366210938,0.5455635786056519,0.2560320198535919
1761333580025339000,0.2103388671875,9.8871431350708,0.519242525100708,0.24406790733337402
1761333580044037600,0.22903759765625,9.8871431350708,0.5431707501411438,0.23210379481315613
1761333580062736600,0.247736572265625,9.877572059631348,0.5407779216766357,0.24406790733337402
1761333580081435600,0.266435546875,9.8871431350708,0.5431707501411438,0.23210379481315613
1761333580100134700,0.285134765625,9.877572059631348,0.5431707501411438,0.24167509377002716
1761333580118833700,0.303833740234375,9.865608215332031,0.5647061467170715,0.2512463629245758
1761333580137532400,0.322532470703125,9.875179290771484,0.550349235534668,0.25363919138908386
1761333580156231400,0.3412314453125,9.863214492797852,0.5431707501411438,0.2273181527853012
1761333580174930400,0.359930419921875,9.903892517089844,0.5431707501411438,0.24406790733337402
1761333580193629400,0.37862939453125,9.891928672790527,0.5312066078186035,0.24167509377002716
1761333580212328400,0.397328369140625,9.879964828491211,0.5407779216766357,0.2512463629245758
1761333580231027200,0.416027099609375,9.889535903930664,0.5335994362831116,0.24167509377002716
1761333580249726200,0.434726318359375,9.896714210510254,0.5335994362831116,0.23688943684101105
1761333580268425200,0.45342529296875,9.8871431350708,0.5407779216766357,0.23688943684101105
1761333580287124000,0.4721240234375,9.875179290771484,0.5335994362831116,0.22971096634864807
1761333580305823000,0.490822998046875,9.879964828491211,0.5383850932121277,0.24885354936122894
1761333580324522000,0.50952197265625,9.879964828491211,0.5527420043945312,0.23449662327766418
1761333580343221000,0.528220947265625,9.882357597351074,0.5431707501411438,0.24406790733337402
1761333580361920000,0.546919921875,9.899106979370117,0.5431707501411438,0.23688943684101105
1761333580380619000,0.565618896484375,9.899106979370117,0.5479564070701599,0.23688943684101105
1761333580399317800,0.58431787109375,9.889535903930664,0.5431707501411438,0.2273181527853012
1761333580418016800,0.603016845703125,9.872786521911621,0.5407779216766357,0.2225325107574463
1761333580436715800,0.6217158203125,9.896714210510254,0.5407779216766357,0.2560320198535919
1761333580455414800,0.640414794921875,9.89432144165039,0.5359922647476196,0.2392822653055191
1761333580474113800,0.65911376953125,9.889535903930664,0.5383850932121277,0.2392822653055191
1761333580492812500,0.6778125,9.8871431350708,0.5431707501411438,0.2679961323738098
1761333580511511600,0.696511474609375,9.891928672790527,0.5335994362831116,0.25363919138908386
1761333580530210600,0.71521044921875,9.896714210510254,0.5312066078186035,0.2392822653055191
1761333580548909600,0.73390966796875,9.879964828491211,0.5551348328590393,0.23449662327766418
1761333580567608600,0.752608642578125,9.863214492797852,0.5479564070701599,0.23688943684101105
1761333580586307300,0.771307373046875,9.872786521911621,0.5359922647476196,0.24406790733337402
1761333580605006300,0.79000634765625,9.877572059631348,0.5455635786056519,0.24406790733337402
1761333580623705300,0.808705322265625,9.882357597351074,0.5359922647476196,0.24406790733337402
1761333580642404000,0.827404052734375,9.889535903930664,0.5407779216766357,0.23210379481315613
1761333580661103000,0.84610302734375,9.875179290771484,0.5216353535652161,0.24885354936122894
1761333580679802000,0.864802001953125,9.872786521911621,0.5383850932121277,0.24167509377002716
1761333580698501000,0.883501220703125,9.8871431350708,0.5312066078186035,0.2225325107574463
1761333580717200100,0.9022001953125,9.889535903930664,0.5431707501411438,0.24406790733337402
1761333580735899000,0.92089892578125,9.8871431350708,0.5431707501411438,0.24646073579788208
1761333580754598000,0.939597900390625,9.877572059631348,0.5335994362831116,0.24406790733337402
1761333580773297000,0.958296875,9.884750366210938,0.5455635786056519,0.24167509377002716
1761333580791996000,0.976995849609375,9.882357597351074,0.5240281820297241,0.23449662327766418
1761333580810695000,0.99569482421875,9.884750366210938,0.5431707501411438,0.23688943684101105
1761333580829393700,1.0143935546875,9.877572059631348,0.5551348328590393,0.23210379481315613
1761333580848092700,1.0330927734375,9.8871431350708,0.5383850932121277,0.24646073579788208
1761333580866791700,1.051791748046875,9.879964828491211,0.5455635786056519,0.23688943684101105
1761333580885490700,1.07049072265625,9.889535903930664,0.5335994362831116,0.24646073579788208
1761333580904189700,1.089189697265625,9.875179290771484,0.5431707501411438,0.24167509377002716
1761333580922888400,1.107888427734375,9.891928672790527,0.5431707501411438,0.24646073579788208
1761333580941587500,1.12658740234375,9.872786521911621,0.5312066078186035,0.22971096634864807
1761333580960286500,1.145286376953125,9.872786521911621,0.5335994362831116,0.2392822653055191
1761333580978985500,1.1639853515625,9.891928672790527,0.5359922647476196,0.24406790733337402
1761333580997684200,1.182684326171875,9.879964828491211,0.5479564070701599,0.23449662327766418
1761333581016383200,1.20138330078125,9.89432144165039,0.5216353535652161,0.24646073579788208
1761333581035082200,1.220082275390625,9.889535903930664,0.5551348328590393,0.24646073579788208
1761333581053781200,1.23878125,9.879964828491211,0.5335994362831116,0.22492532432079315
1761333581072480300,1.257480224609375,9.879964828491211,0.5335994362831116,0.2225325107574463
1761333581091179000,1.276178955078125,9.884750366210938,0.5359922647476196,0.2225325107574463
1761333581109878000,1.2948779296875,9.877572059631348,0.5383850932121277,0.23688943684101105
1761333581128577000,1.313576904296875,9.879964828491211,0.5168496966362,0.24406790733337402
1761333581147276000,1.332276123046875,9.875179290771484,0.5383850932121277,0.23449662327766418
1761333581165975000,1.35097509765625,9.89432144165039,0.5288137793540955,0.2273181527853012
1761333581184673800,1.369673828125,9.891928672790527,0.5335994362831116,0.2273181527853012
1761333581203372800,1.388372802734375,9.879964828491211,0.5455635786056519,0.23449662327766418
1761333581222071800,1.40707177734375,9.884750366210938,0.5431707501411438,0.22492532432079315
1761333581240770800,1.425770751953125,9.884750366210938,0.5359922647476196,0.24646073579788208
1761333581259469800,1.4444697265625,9.884750366210938,0.5431707501411438,0.24646073579788208
1761333581278168600,1.46316845703125,9.884750366210938,0.5455635786056519,0.24646073579788208
1761333581296867600,1.48186767578125,9.89432144165039,0.5599204897880554,0.26081767678260803
1761333581315566600,1.500566650390625,9.879964828491211,0.5383850932121277,0.2512463629245758
1761333581334265300,1.519265380859375,9.90149974822998,0.5264210104942322,0.24406790733337402
1761333581352964400,1.53796435546875,9.877572059631348,0.5455635786056519,0.24885354936122894
1761333581371663400,1.556663330078125,9.889535903930664,0.5383850932121277,0.24406790733337402
1761333581390362400,1.5753623046875,9.877572059631348,0.5335994362831116,0.23210379481315613
1761333581409061400,1.594061279296875,9.8871431350708,0.5647061467170715,0.2225325107574463
1761333581427760000,1.612760009765625,9.865608215332031,0.5407779216766357,0.24646073579788208
1761333581446459100,1.631459228515625,9.882357597351074,0.5312066078186035,0.24167509377002716
1761333581465158100,1.650158203125,9.899106979370117,0.5431707501411438,0.24406790733337402
1761333581483857200,1.668857177734375,9.891928672790527,0.5312066078186035,0.2512463629245758
1761333581502556200,1.68755615234375,9.877572059631348,0.5264210104942322,0.2584248483181
1761333581521255000,1.7062548828125,9.884750366210938,0.5383850932121277,0.24167509377002716
1761333581539954000,1.724953857421875,9.882357597351074,0.5288137793540955,0.2560320198535919
1761333581558653000,1.74365283203125,9.899106979370117,0.5527420043945312,0.25363919138908386
1761333581577352000,1.76235205078125,9.882357597351074,0.5383850932121277,0.24406790733337402
1761333581596051000,1.781051025390625,9.882357597351074,0.5240281820297241,0.22492532432079315
1761333581614750000,1.79975,9.882357597351074,0.5312066078186035,0.22971096634864807
1761333581633448700,1.81844873046875,9.884750366210938,0.5407779216766357,0.2392822653055191
1761333581652147700,1.837147705078125,9.872786521911621,0.5383850932121277,0.26081767678260803
1761333581670846700,1.8558466796875,9.882357597351074,0.5359922647476196,0.24646073579788208
1761333581689545700,1.874545654296875,9.8871431350708,0.550349235534668,0.24646073579788208
1761333581708244700,1.89324462890625,9.89432144165039,0.5312066078186035,0.23210379481315613
1761333581726943500,1.911943603515625,9.882357597351074,0.5383850932121277,0.24406790733337402
1761333581745642500,1.930642578125,9.90149974822998,0.5359922647476196,0.2273181527853012
1761333581764341500,1.949341552734375,9.877572059631348,0.5216353535652161,0.2512463629245758
1761333581783040300,1.968040283203125,9.877572059631348,0.5359922647476196,0.2512463629245758
1761333581801739300,1.9867392578125,9.875179290771484,0.5479564070701599,0.2560320198535919
1761333581820438300,2.005438232421875,9.889535903930664,0.5551348328590393,0.24885354936122894
1761333581839137300,2.02413720703125,9.882357597351074,0.5647061467170715,0.2512463629245758
1761333581857836300,2.042836181640625,9.877572059631348,0.5431707501411438,0.24167509377002716
1761333581876535000,2.06153515625,9.882357597351074,0.5383850932121277,0.2225325107574463
1761333581895234000,2.080234130859375,9.8871431350708,0.5407779216766357,0.22971096634864807
1761333581913933000,2.09893310546875,9.879964828491211,0.5288137793540955,0.22971096634864807
1761333581932632000,2.117632080078125,9.889535903930664,0.5575276613235474,0.24167509377002716
1761333581951331000,2.1363310546875,9.891928672790527,0.5479564070701599,0.23449662327766418
1761333581970029800,2.15502978515625,9.8871431350708,0.5359922647476196,0.24646073579788208
1761333581988728800,2.173728759765625,9.8871431350708,0.5407779216766357,0.2273181527853012
1761333582007427800,2.192427734375,9.89432144165039,0.5623133182525635,0.24646073579788208
1761333582026126800,2.211126953125,9.879964828491211,0.550349235534668,0.2225325107574463
1761333582044825900,2.229825927734375,9.896714210510254,0.5479564070701599,0.24167509377002716
1761333582063524600,2.248524658203125,9.870393753051758,0.5383850932121277,0.2392822653055191
1761333582082223600,2.2672236328125,9.882357597351074,0.5359922647476196,0.23449662327766418
1761333582100922600,2.285922607421875,9.877572059631348,0.5431707501411438,0.23210379481315613
1761333582119621600,2.30462158203125,9.8871431350708,0.5335994362831116,0.2392822653055191
1761333582138320600,2.323320556640625,9.884750366210938,0.5431707501411438,0.23210379481315613
1761333582157019400,2.342019287109375,9.89432144165039,0.5551348328590393,0.23210379481315613
1761333582175718400,2.360718505859375,9.8871431350708,0.5383850932121277,0.23449662327766418
1761333582194417400,2.37941748046875,9.8871431350708,0.5359922647476196,0.22971096634864807
1761333582213116400,2.398116455078125,9.879964828491211,0.5551348328590393,0.22492532432079315
1761333582231815200,2.416815185546875,9.882357597351074,0.5431707501411438,0.23210379481315613
1761333582250514200,2.43551416015625,9.882357597351074,0.5551348328590393,0.23688943684101105
1761333582269213200,2.454213134765625,9.896714210510254,0.5240281820297241,0.25363919138908386
1761333582287912200,2.472912109375,9.875179290771484,0.5216353535652161,0.22492532432079315
1761333582306611200,2.491611083984375,9.877572059631348,0.5359922647476196,0.2392822653055191
1761333582325310000,2.51031005859375,9.868000984191895,0.5383850932121277,0.22971096634864807
1761333582344009000,2.529009033203125,9.884750366210938,0.5479564070701599,0.23210379481315613
1761333582362708000,2.5477080078125,9.8871431350708,0.5527420043945312,0.24646073579788208
1761333582381407000,2.566406982421875,9.8871431350708,0.5431707501411438,0.23449662327766418
1761333582400106000,2.58510595703125,9.884750366210938,0.5431707501411438,0.24406790733337402
1761333582418804700,2.6038046875,9.868000984191895,0.5264210104942322,0.24406790733337402
1761333582437503700,2.622503662109375,9.882357597351074,0.5407779216766357,0.24646073579788208
1761333582456202800,2.64120263671875,9.882357597351074,0.5312066078186035,0.24406790733337402
1761333582474901800,2.65990185546875,9.882357597351074,0.5455635786056519,0.24406790733337402
1761333582493600800,2.678600830078125,9.882357597351074,0.5288137793540955,0.22971096634864807
1761333582512299500,2.697299560546875,9.875179290771484,0.5479564070701599,0.22971096634864807
1761333582530998500,2.71599853515625,9.889535903930664,0.5551348328590393,0.2584248483181
1761333582549697500,2.734697509765625,9.872786521911621,0.5431707501411438,0.24167509377002716
1761333582568396500,2.753396484375,9.879964828491211,0.5527420043945312,0.2392822653055191
1761333582587095600,2.772095458984375,9.872786521911621,0.5335994362831116,0.24885354936122894
1761333582605794300,2.790794189453125,9.879964828491211,0.5407779216766357,0.23210379481315613
1761333582624493300,2.809493408203125,9.8871431350708,0.5359922647476196,0.24406790733337402
1761333582643192300,2.8281923828125,9.877572059631348,0.5551348328590393,0.2632105052471161
1761333582661891300,2.846891357421875,9.877572059631348,0.5264210104942322,0.2512463629245758
1761333582680590300,2.86559033203125,9.879964828491211,0.5407779216766357,0.23210379481315613
1761333582699289000,2.8842890625,9.877572059631348,0.5383850932121277,0.24646073579788208
1761333582717988000,2.902988037109375,9.889535903930664,0.5647061467170715,0.23449662327766418
1761333582736687000,2.92168701171875,9.879964828491211,0.5527420043945312,0.24885354936122894
1761333582755386000,2.94038623046875,9.882357597351074,0.5455635786056519,0.24167509377002716
1761333582774085000,2.959085205078125,9.89432144165039,0.5551348328590393,0.2273181527853012
1761333582792784000,2.977783935546875,9.8871431350708,0.5431707501411438,0.2512463629245758
1761333582811483000,2.99648291015625,9.884750366210938,0.5359922647476196,0.2273181527853012
1761333582830182000,3.015181884765625,9.870393753051758,0.5455635786056519,0.2273181527853012
1761333582848881000,3.033880859375,9.8871431350708,0.5479564070701599,0.23688943684101105
1761333582867580000,3.052579833984375,9.872786521911621,0.5359922647476196,0.23449662327766418
1761333582886278700,3.071278564453125,9.879964828491211,0.5168496966362,0.2273181527853012
1761333582904977700,3.089977783203125,9.891928672790527,0.5240281820297241,0.22492532432079315
1761333582923676700,3.1086767578125,9.884750366210938,0.5599204897880554,0.24885354936122894
1761333582942375700,3.127375732421875,9.875179290771484,0.550349235534668,0.23449662327766418
1761333582961074700,3.14607470703125,9.875179290771484,0.5240281820297241,0.23210379481315613
1761333582979773700,3.164773681640625,9.879964828491211,0.5455635786056519,0.23688943684101105
1761333582998472400,3.183472412109375,9.89432144165039,0.550349235534668,0.23210379481315613
1761333583017171500,3.20217138671875,9.8871431350708,0.5479564070701599,0.2392822653055191
1761333583035870500,3.220870361328125,9.875179290771484,0.5407779216766357,0.2392822653055191
1761333583054569500,3.239569580078125,9.891928672790527,0.5312066078186035,0.2512463629245758
1761333583073268200,3.258268310546875,9.879964828491211,0.5383850932121277,0.2225325107574463
1761333583091967200,3.27696728515625,9.863214492797852,0.5431707501411438,0.24406790733337402
1761333583110666200,3.295666259765625,9.872786521911621,0.5359922647476196,0.2392822653055191
1761333583129365200,3.314365234375,9.875179290771484,0.5383850932121277,0.21774685382843018
1761333583148064000,3.33306396484375,9.882357597351074,0.5216353535652161,0.23688943684101105
1761333583166763000,3.351762939453125,9.877572059631348,0.5359922647476196,0.24406790733337402
1761333583185462000,3.3704619140625,9.884750366210938,0.5479564070701599,0.23449662327766418
1761333583204161000,3.3891611328125,9.8871431350708,0.5479564070701599,0.24406790733337402
1761333583222860000,3.407860107421875,9.877572059631348,0.5455635786056519,0.24167509377002716
1761333583241558800,3.426558837890625,9.8871431350708,0.5407779216766357,0.2392822653055191
1761333583260257800,3.4452578125,9.89432144165039,0.5527420043945312,0.2392822653055191
1761333583278956800,3.463956787109375,9.882357597351074,0.5407779216766357,0.23688943684101105
1761333583297655800,3.48265576171875,9.884750366210938,0.5335994362831116,0.24885354936122894
1761333583316354800,3.501354736328125,9.872786521911621,0.5431707501411438,0.25363919138908386
1761333583335053600,3.520053466796875,9.879964828491211,0.550349235534668,0.24885354936122894
1761333583353752600,3.538752685546875,9.882357597351074,0.5431707501411438,0.22971096634864807
1761333583372451600,3.55745166015625,9.889535903930664,0.5431707501411438,0.23688943684101105
1761333583391150600,3.576150634765625,9.875179290771484,0.5407779216766357,0.2392822653055191
1761333583409849600,3.594849609375,9.89432144165039,0.5264210104942322,0.24167509377002716
1761333583428548400,3.61354833984375,9.865608215332031,0.5312066078186035,0.22013968229293823
1761333583447247400,3.632247314453125,9.875179290771484,0.5407779216766357,0.23449662327766418
1761333583465946400,3.6509462890625,9.875179290771484,0.5431707501411438,0.2392822653055191
1761333583484645400,3.669645263671875,9.889535903930664,0.5407779216766357,0.2392822653055191
1761333583503344400,3.688344482421875,9.877572059631348,0.5455635786056519,0.23210379481315613
1761333583522043100,3.707043212890625,9.884750366210938,0.5527420043945312,0.2512463629245758
1761333583540742100,3.7257421875,9.879964828491211,0.5288137793540955,0.22971096634864807
1761333583559441200,3.744441162109375,9.884750366210938,0.5288137793540955,0.24406790733337402
1761333583578140200,3.76314013671875,9.872786521911621,0.5359922647476196,0.2632105052471161
1761333583596839200,3.781839111328125,9.879964828491211,0.5455635786056519,0.22492532432079315
1761333583615538200,3.8005380859375,9.882357597351074,0.5335994362831116,0.22971096634864807
1761333583634237000,3.81923681640625,9.8871431350708,0.5359922647476196,0.24406790733337402
1761333583652936000,3.83793603515625,9.879964828491211,0.5264210104942322,0.22971096634864807
1761333583671635000,3.856635009765625,9.8871431350708,0.5407779216766357,0.22492532432079315
1761333583690334000,3.875333984375,9.891928672790527,0.5312066078186035,0.23449662327766418
1761333583709033000,3.894032958984375,9.879964828491211,0.5431707501411438,0.24406790733337402
1761333583727732000,3.91273193359375,9.8871431350708,0.5431707501411438,0.22971096634864807
1761333583746431000,3.931430908203125,9.891928672790527,0.5694918036460876,0.2273181527853012
1761333583765129700,3.950129638671875,9.882357597351074,0.5431707501411438,0.23688943684101105
1761333583783828700,3.968828857421875,9.868000984191895,0.550349235534668,0.2512463629245758
1761333583802527700,3.98752783203125,9.882357597351074,0.5383850932121277,0.23688943684101105
1761333583821226800,4.006226806640625,9.882357597351074,0.5431707501411438,0.22492532432079315
1761333583839925800,4.02492578125,9.884750366210938,0.5335994362831116,0.23449662327766418
1761333583858624500,4.04362451171875,9.877572059631348,0.5335994362831116,0.24406790733337402
1761333583877323500,4.062323486328125,9.882357597351074,0.5312066078186035,0.23688943684101105
1761333583896022500,4.0810224609375,9.879964828491211,0.5455635786056519,0.24646073579788208
1761333583914721500,4.099721435546875,9.863214492797852,0.5264210104942322,0.2392822653055191
1761333583933420500,4.118420654296875,9.882357597351074,0.5431707501411438,0.2392822653055191
1761333583952119300,4.137119384765625,9.889535903930664,0.5359922647476196,0.2392822653055191
1761333583970818300,4.155818359375,9.882357597351074,0.5527420043945312,0.24885354936122894
1761333583989517300,4.174517333984375,9.879964828491211,0.5335994362831116,0.2632105052471161
1761333584008216300,4.19321630859375,9.879964828491211,0.5288137793540955,0.24406790733337402
1761333584026915300,4.211915283203125,9.872786521911621,0.5288137793540955,0.2392822653055191
1761333584045614000,4.230614013671875,9.882357597351074,0.5383850932121277,0.24167509377002716
1761333584064313000,4.24931298828125,9.879964828491211,0.5431707501411438,0.23688943684101105
1761333584083012000,4.26801220703125,9.889535903930664,0.5431707501411438,0.24646073579788208
1761333584101711000,4.286711181640625,9.891928672790527,0.5383850932121277,0.23449662327766418
1761333584120410000,4.30541015625,9.889535903930664,0.5527420043945312,0.24406790733337402
1761333584139108900,4.32410888671875,9.891928672790527,0.5407779216766357,0.24885354936122894
1761333584157807900,4.342807861328125,9.879964828491211,0.5527420043945312,0.22971096634864807
1761333584176507000,4.3615068359375,9.877572059631348,0.5479564070701599,0.24167509377002716
1761333584195206000,4.380205810546875,9.875179290771484,0.5407779216766357,0.23449662327766418
1761333584213905000,4.39890478515625,9.889535903930664,0.5383850932121277,0.2560320198535919
1761333584232604000,4.41760400390625,9.882357597351074,0.5312066078186035,0.23210379481315613
1761333584251302700,4.436302734375,9.882357597351074,0.5359922647476196,0.22492532432079315
1761333584270001700,4.455001708984375,9.896714210510254,0.5288137793540955,0.24406790733337402
1761333584288700700,4.47370068359375,9.877572059631348,0.5431707501411438,0.24167509377002716
1761333584307399700,4.492399658203125,9.889535903930664,0.5359922647476196,0.2392822653055191
1761333584326098700,4.5110986328125,9.889535903930664,0.5288137793540955,0.24406790733337402
1761333584344797400,4.52979736328125,9.879964828491211,0.5359922647476196,0.26081767678260803
1761333584363496400,4.548496337890625,9.903892517089844,0.5383850932121277,0.23449662327766418
1761333584382195500,4.567195556640625,9.875179290771484,0.5383850932121277,0.2632105052471161
1761333584400894500,4.58589453125,9.879964828491211,0.5599204897880554,0.23449662327766418
1761333584419593500,4.604593505859375,9.877572059631348,0.5575276613235474,0.2512463629245758
1761333584438292500,4.62329248046875,9.889535903930664,0.5551348328590393,0.24406790733337402
1761333584456991500,4.641991455078125,9.872786521911621,0.5264210104942322,0.2512463629245758
1761333584475690200,4.660690185546875,9.877572059631348,0.5479564070701599,0.24167509377002716
1761333584494389200,4.67938916015625,9.89432144165039,0.5383850932121277,0.22971096634864807
1761333584513088300,4.698088134765625,9.884750366210938,0.5407779216766357,0.23688943684101105
1761333584531787300,4.716787353515625,9.8871431350708,0.5431707501411438,0.24167509377002716
1761333584550486300,4.735486328125,9.882357597351074,0.5479564070701599,0.26081767678260803
1761333584569185000,4.75418505859375,9.877572059631348,0.5455635786056519,0.23688943684101105
1761333584587884000,4.772884033203125,9.870393753051758,0.5407779216766357,0.24167509377002716
1761333584606583000,4.7915830078125,9.8871431350708,0.5383850932121277,0.23449662327766418
1761333584625282000,4.810281982421875,9.872786521911621,0.5431707501411438,0.23688943684101105
1761333584643981000,4.82898095703125,9.875179290771484,0.5455635786056519,0.24646073579788208
1761333584662679800,4.8476796875,9.879964828491211,0.5383850932121277,0.2512463629245758
1761333584681378800,4.86637890625,9.877572059631348,0.5431707501411438,0.23210379481315613
1761333584700077800,4.885077880859375,9.889535903930664,0.5407779216766357,0.24646073579788208
1761333584718776800,4.90377685546875,9.882357597351074,0.5407779216766357,0.23449662327766418
1761333584737475800,4.922475830078125,9.8871431350708,0.5288137793540955,0.24885354936122894
1761333584756174800,4.9411748046875,9.870393753051758,0.5647061467170715,0.2560320198535919
1761333584774873900,4.959873779296875,9.858428955078125,0.5455635786056519,0.25363919138908386
1761333584793572900,4.97857275390625,9.8871431350708,0.5288137793540955,0.2560320198535919
1761333584812271600,4.997271728515625,9.884750366210938,0.5383850932121277,0.2392822653055191
1761333584830970600,5.015970703125,9.891928672790527,0.5455635786056519,0.2392822653055191
1761333584849669600,5.034669677734375,9.879964828491211,0.5455635786056519,0.23210379481315613
1761333584868368600,5.05336865234375,9.8871431350708,0.5240281820297241,0.24406790733337402
1761333584887067600,5.072067626953125,9.863214492797852,0.5216353535652161,0.24646073579788208
1761333584905766400,5.090766357421875,9.875179290771484,0.5527420043945312,0.23449662327766418
1761333584924465400,5.10946533203125,9.889535903930664,0.5359922647476196,0.23210379481315613
1761333584943164400,5.128164306640625,9.891928672790527,0.5551348328590393,0.2392822653055191
1761333584961863400,5.146863525390625,9.877572059631348,0.5359922647476196,0.2512463629245758
1761333584980562400,5.1655625,9.872786521911621,0.5407779216766357,0.24167509377002716
1761333584999261200,5.18426123046875,9.891928672790527,0.5383850932121277,0.24167509377002716
1761333585017960200,5.202960205078125,9.870393753051758,0.5312066078186035,0.24167509377002716
1761333585036659200,5.2216591796875,9.868000984191895,0.5288137793540955,0.23449662327766418
1761333585055358200,5.240358154296875,9.868000984191895,0.5359922647476196,0.2273181527853012
1761333585074057200,5.25905712890625,9.877572059631348,0.5312066078186035,0.23688943684101105
1761333585092756200,5.277756103515625,9.891928672790527,0.5216353535652161,0.2273181527853012
1761333585111455200,5.296455322265625,9.877572059631348,0.5264210104942322,0.2392822653055191
1761333585130154000,5.315154052734375,9.879964828491211,0.5335994362831116,0.23688943684101105
1761333585148853000,5.33385302734375,9.882357597351074,0.5407779216766357,0.23688943684101105
1761333585167552000,5.352552001953125,9.89432144165039,0.5407779216766357,0.21774685382843018
1761333585186251000,5.3712509765625,9.879964828491211,0.5359922647476196,0.24885354936122894
1761333585204950000,5.389949951171875,9.870393753051758,0.5383850932121277,0.2153540402650833
1761333585223648800,5.408648681640625,9.884750366210938,0.5264210104942322,0.24167509377002716
1761333585242347800,5.42734765625,9.872786521911621,0.5551348328590393,0.24167509377002716
1761333585261046800,5.446046875,9.865608215332031,0.5407779216766357,0.23210379481315613
1761333585279745800,5.464745849609375,9.89432144165039,0.5335994362831116,0.23210379481315613
1761333585298444800,5.48344482421875,9.879964828491211,0.550349235534668,0.23688943684101105
1761333585317143800,5.502143798828125,9.891928672790527,0.5335994362831116,0.23210379481315613
1761333585335842800,5.5208427734375,9.879964828491211,0.5455635786056519,0.23449662327766418
1761333585354541800,5.539541748046875,9.884750366210938,0.550349235534668,0.22492532432079315
1761333585373240600,5.558240478515625,9.8871431350708,0.5599204897880554,0.2273181527853012
1761333585391939600,5.576939697265625,9.879964828491211,0.5288137793540955,0.2392822653055191
1761333585410638600,5.595638671875,9.877572059631348,0.5431707501411438,0.23210379481315613
1761333585429337600,5.614337646484375,9.872786521911621,0.5264210104942322,0.2512463629245758
1761333585448036600,5.63303662109375,9.89432144165039,0.5551348328590393,0.23449662327766418
1761333585466735400,5.6517353515625,9.868000984191895,0.5479564070701599,0.2584248483181
1761333585485434600,5.6704345703125,9.882357597351074,0.5335994362831116,0.2392822653055191
1761333585504133400,5.68913330078125,9.875179290771484,0.5479564070701599,0.22971096634864807
1761333585522832400,5.707832275390625,9.8871431350708,0.550349235534668,0.2392822653055191
1761333585541531400,5.726531494140625,9.875179290771484,0.5479564070701599,0.23688943684101105
1761333585560230400,5.74523046875,9.891928672790527,0.5288137793540955,0.23688943684101105
1761333585578929400,5.763929443359375,9.872786521911621,0.5431707501411438,0.24167509377002716
1761333585597628200,5.782628173828125,9.872786521911621,0.5407779216766357,0.24885354936122894
1761333585616327200,5.8013271484375,9.884750366210938,0.5407779216766357,0.23688943684101105
1761333585635026200,5.820026123046875,9.889535903930664,0.5527420043945312,0.24406790733337402
1761333585653725200,5.83872509765625,9.884750366210938,0.5288137793540955,0.24646073579788208
1761333585672424200,5.857424072265625,9.884750366210938,0.550349235534668,0.22492532432079315
1761333585691123200,5.876123291015625,9.868000984191895,0.5240281820297241,0.2392822653055191
1761333585709822200,5.894822265625,9.877572059631348,0.5455635786056519,0.24167509377002716
1761333585728521000,5.91352099609375,9.868000984191895,0.5527420043945312,0.23688943684101105
1761333585747220000,5.932219970703125,9.879964828491211,0.5240281820297241,0.25363919138908386
1761333585765919000,5.9509189453125,9.875179290771484,0.5383850932121277,0.22971096634864807
1761333585784618000,5.969617919921875,9.868000984191895,0.5240281820297241,0.2512463629245758
1761333585803317000,5.98831689453125,9.875179290771484,0.5383850932121277,0.2273181527853012
1761333585822015700,6.007015625,9.90149974822998,0.5431707501411438,0.24646073579788208
1761333585840715000,6.025715087890625,9.870393753051758,0.5527420043945312,0.24167509377002716
1761333585859414000,6.0444140625,9.882357597351074,0.5288137793540955,0.2392822653055191
1761333585878112800,6.06311279296875,9.875179290771484,0.5383850932121277,0.24167509377002716
1761333585896811800,6.081811767578125,9.884750366210938,0.5383850932121277,0.23449662327766418
1761333585915510800,6.1005107421875,9.870393753051758,0.5575276613235474,0.24167509377002716
1761333585934209800,6.119209716796875,9.89432144165039,0.5288137793540955,0.24885354936122894
1761333585952908800,6.13790869140625,9.891928672790527,0.5455635786056519,0.24406790733337402
1761333585971607600,6.156607666015625,9.884750366210938,0.5455635786056519,0.2273181527853012
1761333585990306600,6.175306640625,9.889535903930664,0.5383850932121277,0.23449662327766418
1761333586009005600,6.194005615234375,9.884750366210938,0.5599204897880554,0.25363919138908386
1761333586027704600,6.21270458984375,9.8871431350708,0.5383850932121277,0.23449662327766418
1761333586046403600,6.231403564453125,9.868000984191895,0.5455635786056519,0.2273181527853012
1761333586065102600,6.2501025390625,9.879964828491211,0.5312066078186035,0.2392822653055191
1761333586083801600,6.268801513671875,9.896714210510254,0.5383850932121277,0.24167509377002716
1761333586102500400,6.287500244140625,9.868000984191895,0.550349235534668,0.24885354936122894
1761333586121199400,6.306199462890625,9.891928672790527,0.5575276613235474,0.23449662327766418
1761333586139898400,6.3248984375,9.884750366210938,0.5479564070701599,0.24406790733337402
1761333586158597400,6.343597412109375,9.884750366210938,0.5551348328590393,0.2225325107574463
1761333586177296400,6.36229638671875,9.8871431350708,0.5431707501411438,0.24406790733337402
1761333586195995400,6.380995361328125,9.879964828491211,0.5264210104942322,0.22971096634864807
1761333586214694400,6.3996943359375,9.8871431350708,0.550349235534668,0.2225325107574463
1761333586233393200,6.41839306640625,9.8871431350708,0.5335994362831116,0.25363919138908386
1761333586252092200,6.437092041015625,9.872786521911621,0.5359922647476196,0.24406790733337402
1761333586270791200,6.455791259765625,9.875179290771484,0.5527420043945312,0.2392822653055191
1761333586289490200,6.474490234375,9.882357597351074,0.5455635786056519,0.22492532432079315
1761333586308189200,6.493189208984375,9.884750366210938,0.5383850932121277,0.24885354936122894
1761333586326888200,6.51188818359375,9.870393753051758,0.550349235534668,0.2392822653055191
1761333586345587200,6.530587158203125,9.882357597351074,0.5359922647476196,0.24885354936122894
1761333586364286000,6.549285888671875,9.868000984191895,0.5240281820297241,0.2560320198535919
1761333586382985000,6.56798486328125,9.8871431350708,0.5479564070701599,0.22971096634864807
1761333586401684000,6.58668408203125,9.889535903930664,0.5407779216766357,0.25363919138908386
1761333586420383000,6.605383056640625,9.875179290771484,0.5431707501411438,0.24885354936122894
1761333586439082000,6.62408203125,9.877572059631348,0.5431707501411438,0.2392822653055191
1761333586457781000,6.642781005859375,9.89432144165039,0.5383850932121277,0.24406790733337402
1761333586476480000,6.66147998046875,9.879964828491211,0.5335994362831116,0.23688943684101105
1761333586495179000,6.680178955078125,9.870393753051758,0.5431707501411438,0.24885354936122894
1761333586513877800,6.698877685546875,9.889535903930664,0.5335994362831116,0.23688943684101105
1761333586532576800,6.71757666015625,9.884750366210938,0.5312066078186035,0.2512463629245758
1761333586551275800,6.73627587890625,9.884750366210938,0.5527420043945312,0.23688943684101105
1761333586569974800,6.754974853515625,9.89432144165039,0.550349235534668,0.24646073579788208
1761333586588673800,6.773673828125,9.884750366210938,0.5264210104942322,0.24885354936122894
1761333586607372800,6.792372802734375,9.8871431350708,0.5575276613235474,0.24167509377002716
1761333586626071800,6.81107177734375,9.877572059631348,0.5623133182525635,0.23688943684101105
1761333586644770600,6.8297705078125,9.882357597351074,0.5647061467170715,0.24885354936122894
1761333586663469600,6.848469482421875,9.868000984191895,0.5216353535652161,0.23688943684101105
1761333586682168600,6.86716845703125,9.879964828491211,0.5240281820297241,0.22013968229293823
1761333586700867600,6.88586767578125,9.877572059631348,0.550349235534668,0.22971096634864807
1761333586719566600,6.904566650390625,9.882357597351074,0.5312066078186035,0.22013968229293823
1761333586738265600,6.923265625,9.8871431350708,0.5359922647476196,0.23449662327766418
1761333586756964600,6.941964599609375,9.889535903930664,0.5527420043945312,0.24885354936122894
1761333586775663400,6.960663330078125,9.884750366210938,0.5335994362831116,0.2560320198535919
1761333586794362400,6.9793623046875,9.8871431350708,0.5455635786056519,0.25363919138908386
1761333586813061400,6.998061279296875,9.891928672790527,0.5312066078186035,0.23688943684101105
1761333586831760400,7.016760498046875,9.870393753051758,0.5383850932121277,0.23210379481315613
1761333586850459400,7.03545947265625,9.882357597351074,0.5431707501411438,0.24646073579788208
1761333586869158400,7.054158447265625,9.882357597351074,0.5335994362831116,0.23210379481315613
1761333586887857400,7.072857421875,9.891928672790527,0.5623133182525635,0.2273181527853012
1761333586906556200,7.09155615234375,9.868000984191895,0.5407779216766357,0.2392822653055191
1761333586925255400,7.11025537109375,9.884750366210938,0.5240281820297241,0.24885354936122894
1761333586943954400,7.128954345703125,9.889535903930664,0.5575276613235474,0.24167509377002716
1761333586962653200,7.147653076171875,9.875179290771484,0.550349235534668,0.24167509377002716
1761333586981352200,7.166352294921875,9.89432144165039,0.5312066078186035,0.23210379481315613
1761333587000051200,7.18505126953125,9.889535903930664,0.5240281820297241,0.2560320198535919
1761333587018750200,7.203750244140625,9.879964828491211,0.5288137793540955,0.23688943684101105
1761333587037449200,7.22244921875,9.870393753051758,0.5312066078186035,0.24406790733337402
1761333587056148200,7.241148193359375,9.884750366210938,0.5407779216766357,0.23210379481315613
1761333587074847200,7.25984716796875,9.8871431350708,0.5264210104942322,0.2392822653055191
1761333587093546000,7.2785458984375,9.856036186218262,0.550349235534668,0.23688943684101105
1761333587112245000,7.297244873046875,9.882357597351074,0.5335994362831116,0.2392822653055191
1761333587130944000,7.315944091796875,9.89432144165039,0.5288137793540955,0.22971096634864807
1761333587149643000,7.33464306640625,9.884750366210938,0.5240281820297241,0.2512463629245758
1761333587168342000,7.353342041015625,9.882357597351074,0.5407779216766357,0.26081767678260803
1761333587187041000,7.372041015625,9.872786521911621,0.5527420043945312,0.2584248483181
1761333587205740000,7.390739990234375,9.879964828491211,0.5288137793540955,0.2273181527853012
1761333587224438800,7.409438720703125,9.90149974822998,0.5335994362831116,0.24885354936122894
1761333587243137800,7.4281376953125,9.899106979370117,0.5527420043945312,0.23449662327766418
1761333587261836800,7.4468369140625,9.875179290771484,0.5455635786056519,0.2584248483181
1761333587280535800,7.465535888671875,9.89432144165039,0.550349235534668,0.2512463629245758
1761333587299234800,7.48423486328125,9.8871431350708,0.5312066078186035,0.24646073579788208
1761333587317933800,7.502933837890625,9.889535903930664,0.5455635786056519,0.22492532432079315
1761333587336632800,7.5216328125,9.865608215332031,0.5575276613235474,0.23449662327766418
1761333587355331600,7.54033154296875,9.879964828491211,0.550349235534668,0.23210379481315613
1761333587374030800,7.55903076171875,9.877572059631348,0.5479564070701599,0.24646073579788208
1761333587392729600,7.5777294921875,9.882357597351074,0.5312066078186035,0.24646073579788208
1761333587411428600,7.5964287109375,9.884750366210938,0.5479564070701599,0.23688943684101105
1761333587430127600,7.615127685546875,9.8871431350708,0.5551348328590393,0.25363919138908386
1761333587448826600,7.63382666015625,9.879964828491211,0.5407779216766357,0.24646073579788208
1761333587467525600,7.652525634765625,9.884750366210938,0.550349235534668,0.24167509377002716
1761333587486224600,7.671224609375,9.896714210510254,0.5335994362831116,0.22492532432079315
1761333587504923600,7.689923583984375,9.891928672790527,0.5407779216766357,0.23210379481315613
1761333587523622700,7.70862255859375,9.879964828491211,0.5479564070701599,0.24646073579788208
1761333587542321400,7.7273212890625,9.896714210510254,0.5479564070701599,0.24406790733337402
1761333587561020400,7.7460205078125,9.899106979370117,0.5383850932121277,0.2392822653055191
1761333587579719400,7.764719482421875,9.90149974822998,0.5551348328590393,0.23210379481315613
1761333587598418400,7.78341845703125,9.8871431350708,0.5455635786056519,0.23210379481315613
1761333587617117400,7.802117431640625,9.879964828491211,0.5335994362831116,0.23449662327766418
1761333587635816400,7.82081640625,9.884750366210938,0.5431707501411438,0.24406790733337402
1761333587654515500,7.839515380859375,9.89432144165039,0.5527420043945312,0.2273181527853012
1761333587673214200,7.858214111328125,9.8871431350708,0.5479564070701599,0.23210379481315613
1761333587691913500,7.87691357421875,9.882357597351074,0.5623133182525635,0.22013968229293823
1761333587710612200,7.8956123046875,9.877572059631348,0.5288137793540955,0.23449662327766418
1761333587729311200,7.914311279296875,9.879964828491211,0.5431707501411438,0.23449662327766418
1761333587748010200,7.93301025390625,9.872786521911621,0.5240281820297241,0.24406790733337402
1761333587766709200,7.951709228515625,9.884750366210938,0.5335994362831116,0.2392822653055191
1761333587785408300,7.970408203125,9.879964828491211,0.5216353535652161,0.24406790733337402
1761333587804107300,7.989107177734375,9.891928672790527,0.5335994362831116,0.23210379481315613
1761333587822806300,8.00780615234375,9.875179290771484,0.5455635786056519,0.24167509377002716
1761333587841505000,8.026505126953126,9.882357597351074,0.5359922647476196,0.23210379481315613
1761333587860204000,8.0452041015625,9.896714210510254,0.5527420043945312,0.24167509377002716
1761333587878903000,8.063903076171876,9.879964828491211,0.5479564070701599,0.24885354936122894
1761333587897602000,8.08260205078125,9.875179290771484,0.5479564070701599,0.24885354936122894
1761333587916301000,8.101301025390624,9.8871431350708,0.5479564070701599,0.2392822653055191
1761333587935000000,8.12,9.868000984191895,0.5431707501411438,0.26081767678260803
1761333587953699000,8.138698974609374,9.865608215332031,0.5383850932121277,0.2392822653055191
1761333587972397800,8.157397705078125,9.875179290771484,0.5335994362831116,0.23210379481315613
1761333587991097000,8.17609716796875,9.8871431350708,0.5455635786056519,0.2632105052471161
1761333588009796000,8.194796142578125,9.882357597351074,0.5335994362831116,0.2105683982372284
1761333588028494800,8.213494873046875,9.89432144165039,0.5407779216766357,0.23210379481315613
1761333588047193900,8.23219384765625,9.872786521911621,0.5455635786056519,0.23210379481315613
1761333588065892900,8.250892822265625,9.882357597351074,0.5551348328590393,0.24885354936122894
1761333588084591900,8.269591796875,9.882357597351074,0.5551348328590393,0.22013968229293823
1761333588103291000,8.288290771484375,9.8871431350708,0.5599204897880554,0.23688943684101105
1761333588121990000,8.306989990234374,9.879964828491211,0.5335994362831116,0.22971096634864807
1761333588140689000,8.32568896484375,9.89432144165039,0.5359922647476196,0.23449662327766418
1761333588159387600,8.3443876953125,9.877572059631348,0.5551348328590393,0.24646073579788208
1761333588178087000,8.3630869140625,9.8871431350708,0.5383850932121277,0.2512463629245758
1761333588196785700,8.38178564453125,9.884750366210938,0.5359922647476196,0.24646073579788208
1761333588215484700,8.400484619140625,9.879964828491211,0.5407779216766357,0.2225325107574463
1761333588234183700,8.41918359375,9.879964828491211,0.5383850932121277,0.24406790733337402
1761333588252882700,8.437882568359376,9.896714210510254,0.5551348328590393,0.23688943684101105
1761333588271581700,8.456581787109375,9.877572059631348,0.5551348328590393,0.23688943684101105
1761333588290280700,8.47528076171875,9.90149974822998,0.5383850932121277,0.22013968229293823
1761333588308979700,8.493979736328125,9.89432144165039,0.5431707501411438,0.2392822653055191
1761333588327678500,8.512678466796874,9.879964828491211,0.5479564070701599,0.23688943684101105
1761333588346377500,8.53137744140625,9.89432144165039,0.5431707501411438,0.24167509377002716
1761333588365076500,8.550076416015624,9.896714210510254,0.5383850932121277,0.24885354936122894
1761333588383775500,8.568775390625,9.870393753051758,0.550349235534668,0.23210379481315613
1761333588402474500,8.587474609375,9.879964828491211,0.5264210104942322,0.23688943684101105
1761333588421173500,8.606173583984376,9.882357597351074,0.5527420043945312,0.25363919138908386
1761333588439872500,8.62487255859375,9.865608215332031,0.550349235534668,0.2273181527853012
1761333588458571500,8.643571533203126,9.891928672790527,0.5335994362831116,0.24646073579788208
1761333588477270300,8.662270263671875,9.8871431350708,0.5431707501411438,0.2512463629245758
1761333588495969500,8.680969482421874,9.8871431350708,0.5527420043945312,0.25363919138908386
1761333588514668300,8.699668212890625,9.882357597351074,0.5455635786056519,0.2273181527853012
1761333588533367300,8.7183671875,9.863214492797852,0.5359922647476196,0.2392822653055191
1761333588552066300,8.73706640625,9.875179290771484,0.5431707501411438,0.26081767678260803
1761333588570765300,8.755765380859375,9.908679008483887,0.5527420043945312,0.2392822653055191
1761333588589464300,8.77446435546875,9.870393753051758,0.5335994362831116,0.21296121180057526
1761333588608163300,8.793163330078125,9.8871431350708,0.550349235534668,0.24406790733337402
1761333588626862300,8.8118623046875,9.89432144165039,0.5479564070701599,0.23210379481315613
1761333588645561300,8.830561279296875,9.8871431350708,0.5455635786056519,0.24167509377002716
1761333588664260400,8.84926025390625,9.89432144165039,0.5551348328590393,0.23688943684101105
1761333588682959000,8.867958984375,9.8871431350708,0.5431707501411438,0.2560320198535919
1761333588701658000,8.886658203125,9.872786521911621,0.5407779216766357,0.24167509377002716
1761333588720357000,8.905357177734375,9.896714210510254,0.5288137793540955,0.22013968229293823
1761333588739056000,8.92405615234375,9.884750366210938,0.550349235534668,0.23688943684101105
1761333588757755100,8.942755126953125,9.896714210510254,0.5479564070701599,0.2512463629245758
1761333588776454100,8.9614541015625,9.868000984191895,0.5407779216766357,0.2560320198535919
1761333588795153200,8.980153076171876,9.908679008483887,0.5312066078186035,0.2512463629245758
1761333588813852000,8.998851806640625,9.889535903930664,0.5431707501411438,0.23449662327766418
1761333588832551200,9.01755126953125,9.865608215332031,0.5431707501411438,0.22492532432079315
1761333588851250000,9.03625,9.889535903930664,0.5288137793540955,0.25363919138908386
1761333588869949000,9.054948974609376,9.875179290771484,0.5431707501411438,0.26081767678260803
1761333588888648000,9.07364794921875,9.853643417358398,0.550349235534668,0.23210379481315613
1761333588907347000,9.092346923828124,9.829715728759766,0.5335994362831116,0.2153540402650833
1761333588926046000,9.1110458984375,9.863214492797852,0.5288137793540955,0.23449662327766418
1761333588944745000,9.129744873046874,9.889535903930664,0.5431707501411438,0.24167509377002716
1761333588963444000,9.14844384765625,9.865608215332031,0.5455635786056519,0.24406790733337402
1761333588982142700,9.167142822265625,9.891928672790527,0.5527420043945312,0.23449662327766418
1761333589000841700,9.185841796875,9.891928672790527,0.5551348328590393,0.24885354936122894
1761333589019541000,9.204541015625,9.875179290771484,0.5479564070701599,0.24167509377002716
1761333589038239700,9.22323974609375,9.889535903930664,0.550349235534668,0.24885354936122894
1761333589056938800,9.241938720703125,9.872786521911621,0.5383850932121277,0.23210379481315613
1761333589075637800,9.2606376953125,9.875179290771484,0.5575276613235474,0.2392822653055191
1761333589094336800,9.279336669921875,9.870393753051758,0.5599204897880554,0.24885354936122894
1761333589113035800,9.298035888671874,9.875179290771484,0.5383850932121277,0.23688943684101105
1761333589131734800,9.31673486328125,9.877572059631348,0.5288137793540955,0.24167509377002716
1761333589150433800,9.335433837890625,9.889535903930664,0.5288137793540955,0.23210379481315613
1761333589169132500,9.354132568359375,9.8871431350708,0.5575276613235474,0.23688943684101105
1761333589187831600,9.37283154296875,9.882357597351074,0.5431707501411438,0.24406790733337402
1761333589206530600,9.391530517578126,9.877572059631348,0.5479564070701599,0.25363919138908386
1761333589225229600,9.4102294921875,9.877572059631348,0.5527420043945312,0.23688943684101105
1761333589243928600,9.428928466796876,9.882357597351074,0.5479564070701599,0.24885354936122894
1761333589262627600,9.447627685546875,9.884750366210938,0.5431707501411438,0.23210379481315613
1761333589281326600,9.46632666015625,9.889535903930664,0.5455635786056519,0.23449662327766418
1761333589300025600,9.485025634765625,9.760323524475098,0.5264210104942322,0.22013968229293823
1761333589318724600,9.503724609375,9.92542839050293,0.5335994362831116,0.23449662327766418
1761333589337423400,9.52242333984375,9.889535903930664,0.5264210104942322,0.2392822653055191
1761333589356122400,9.541122314453125,9.875179290771484,0.5479564070701599,0.2512463629245758
1761333589374821400,9.5598212890625,9.89432144165039,0.5288137793540955,0.24406790733337402
1761333589393520400,9.578520263671875,9.879964828491211,0.5359922647476196,0.23688943684101105
1761333589412219400,9.597219482421876,9.889535903930664,0.5455635786056519,0.24646073579788208
1761333589430918400,9.61591845703125,9.889535903930664,0.5407779216766357,0.21774685382843018
1761333589449617400,9.634617431640624,9.879964828491211,0.5383850932121277,0.22971096634864807
1761333589468316400,9.65331640625,9.879964828491211,0.519242525100708,0.24167509377002716
1761333589487015400,9.672015380859374,9.89432144165039,0.550349235534668,0.26081767678260803
1761333589505714200,9.690714111328125,9.884750366210938,0.5240281820297241,0.24646073579788208
1761333589524413200,9.7094130859375,9.90149974822998,0.5527420043945312,0.23688943684101105
1761333589543112400,9.728112548828125,9.891928672790527,0.5312066078186035,0.23449662327766418
1761333589561811200,9.746811279296875,9.903892517089844,0.5359922647476196,0.23688943684101105
1761333589580510200,9.76551025390625,9.877572059631348,0.5407779216766357,0.23449662327766418
1761333589599209200,9.784209228515625,9.8871431350708,0.5455635786056519,0.24167509377002716
1761333589617908200,9.802908203125,9.882357597351074,0.5455635786056519,0.24406790733337402
1761333589636607200,9.821607177734375,9.896714210510254,0.5455635786056519,0.21296121180057526
1761333589655306200,9.84030615234375,9.884750366210938,0.5288137793540955,0.24406790733337402
1761333589674005200,9.859005126953125,9.889535903930664,0.5407779216766357,0.22971096634864807
1761333589692704000,9.8777041015625,9.875179290771484,0.5479564070701599,0.2392822653055191
1761333589711403000,9.896403076171875,9.891928672790527,0.5670989751815796,0.23449662327766418
1761333589730102000,9.91510205078125,9.875179290771484,0.5479564070701599,0.24406790733337402
1761333589748801000,9.933801025390625,9.882357597351074,0.5407779216766357,0.24406790733337402
1761333589767500000,9.9525,9.877572059631348,0.5359922647476196,0.2584248483181
1761333589786199000,9.971198974609376,9.868000984191895,0.5383850932121277,0.23688943684101105
1761333589804898000,9.98989794921875,9.89432144165039,0.5312066078186035,0.23688943684101105
1761333589823597000,10.00859716796875,9.903892517089844,0.5431707501411438,0.2392822653055191
1761333589842296000,10.027296142578125,9.8871431350708,0.5383850932121277,0.24167509377002716
1761333589860994800,10.045994873046874,9.879964828491211,0.5431707501411438,0.2560320198535919
1761333589879693800,10.06469384765625,9.896714210510254,0.5383850932121277,0.24406790733337402
1761333589898392800,10.083392822265624,9.889535903930664,0.5383850932121277,0.23210379481315613
1761333589917091800,10.102091796875,9.889535903930664,0.5599204897880554,0.2584248483181
1761333589935790800,10.120790771484375,9.89432144165039,0.5288137793540955,0.24885354936122894
1761333589954489900,10.13948974609375,9.884750366210938,0.5431707501411438,0.24885354936122894
1761333589973188900,10.15818896484375,9.877572059631348,0.5431707501411438,0.22971096634864807
1761333589991888000,10.176887939453126,9.877572059631348,0.5383850932121277,0.25363919138908386
1761333590010587000,10.1955869140625,9.891928672790527,0.576670229434967,0.24167509377002716
1761333590029286000,10.214285888671874,9.865608215332031,0.5312066078186035,0.23210379481315613
1761333590047984600,10.232984619140625,9.877572059631348,0.5455635786056519,0.23210379481315613
1761333590066684000,10.251683837890624,9.8871431350708,0.5312066078186035,0.24406790733337402
1761333590085382700,10.270382568359375,9.872786521911621,0.5479564070701599,0.22971096634864807
1761333590104081700,10.28908154296875,9.875179290771484,0.5407779216766357,0.24646073579788208
1761333590122780700,10.30778076171875,9.872786521911621,0.5312066078186035,0.2512463629245758
1761333590141479700,10.326479736328125,9.882357597351074,0.5431707501411438,0.24646073579788208
1761333590160178700,10.3451787109375,9.889535903930664,0.550349235534668,0.24406790733337402
1761333590178877700,10.363877685546875,9.858428955078125,0.519242525100708,0.2584248483181
1761333590197576700,10.38257666015625,9.882357597351074,0.5335994362831116,0.2225325107574463
1761333590216275500,10.401275390625,9.865608215332031,0.5455635786056519,0.24406790733337402
1761333590234974700,10.419974609375,9.879964828491211,0.5575276613235474,0.23210379481315613
1761333590253673500,10.438673583984375,9.903892517089844,0.5479564070701599,0.23688943684101105
1761333590272372500,10.45737255859375,9.870393753051758,0.5288137793540955,0.24167509377002716
1761333590291071500,10.476071533203125,9.879964828491211,0.550349235534668,0.23688943684101105
1761333590319120100,10.5041201171875,9.872786521911621,0.5575276613235474,0.24406790733337402
1761333590337819000,10.52281884765625,9.877572059631348,0.5551348328590393,0.21774685382843018
1761333590356518000,10.541517822265625,9.877572059631348,0.5240281820297241,0.24885354936122894
1761333590375217000,10.560216796875,9.872786521911621,0.5335994362831116,0.25363919138908386
1761333590393916000,10.578916015625,9.889535903930664,0.5312066078186035,0.23210379481315613
1761333590412615000,10.597614990234375,9.8871431350708,0.5407779216766357,0.24646073579788208
1761333590431314000,10.61631396484375,9.879964828491211,0.5407779216766357,0.23688943684101105
1761333590450013000,10.635012939453125,9.875179290771484,0.5455635786056519,0.25363919138908386
1761333590468711700,10.653711669921876,9.906285285949707,0.5383850932121277,0.24646073579788208
1761333590487411000,10.672410888671875,9.875179290771484,0.5288137793540955,0.24167509377002716
1761333590506110000,10.69110986328125,9.877572059631348,0.5455635786056519,0.24167509377002716
1761333590524808700,10.70980859375,9.8871431350708,0.550349235534668,0.23688943684101105
1761333590543507700,10.7285078125,9.868000984191895,0.5455635786056519,0.24406790733337402
1761333590562206700,10.747206787109375,9.879964828491211,0.5264210104942322,0.24885354936122894
1761333590580905700,10.76590576171875,9.877572059631348,0.5479564070701599,0.23210379481315613
1761333590599604700,10.784604736328125,9.89432144165039,0.5288137793540955,0.23449662327766418
1761333590618303700,10.8033037109375,9.8871431350708,0.5551348328590393,0.24646073579788208
1761333590637002800,10.822002685546876,9.877572059631348,0.519242525100708,0.2560320198535919
1761333590655701800,10.84070166015625,9.889535903930664,0.5359922647476196,0.24406790733337402
1761333590674400800,10.85940087890625,9.896714210510254,0.5479564070701599,0.24885354936122894
1761333590693099500,10.878099609375,9.839286804199219,0.5431707501411438,0.21774685382843018
1761333590711798500,10.896798583984374,9.923035621643066,0.5335994362831116,0.26081767678260803
1761333590730497500,10.91549755859375,9.827322959899902,0.5288137793540955,0.22492532432079315
1761333590749196500,10.934196533203124,9.90149974822998,0.5312066078186035,0.23210379481315613
1761333590767895600,10.9528955078125,9.863214492797852,0.5479564070701599,0.24885354936122894
1761333590786594600,10.971594482421875,9.884750366210938,0.5647061467170715,0.24406790733337402
1761333590805293600,10.99029345703125,9.889535903930664,0.5479564070701599,0.23210379481315613
1761333590823992600,11.00899267578125,9.879964828491211,0.5288137793540955,0.24646073579788208
1761333590842691600,11.027691650390626,9.889535903930664,0.5431707501411438,0.22971096634864807
1761333590861390300,11.046390380859375,9.879964828491211,0.5383850932121277,0.2392822653055191
1761333590880089300,11.06508935546875,9.884750366210938,0.5240281820297241,0.25363919138908386
1761333590898788400,11.083788330078125,9.884750366210938,0.5551348328590393,0.23210379481315613
1761333590917487400,11.1024873046875,9.884750366210938,0.5455635786056519,0.2512463629245758
1761333590936186400,11.121186279296875,9.889535903930664,0.5264210104942322,0.2512463629245758
1761333590954885400,11.139885498046874,9.882357597351074,0.5312066078186035,0.2273181527853012
1761333590973584400,11.15858447265625,9.872786521911621,0.5407779216766357,0.23210379481315613
1761333590992283400,11.177283447265625,9.89432144165039,0.550349235534668,0.25363919138908386
1761333591010982400,11.195982421875,9.870393753051758,0.5312066078186035,0.23449662327766418
1761333591029681400,11.214681396484375,9.889535903930664,0.550349235534668,0.23449662327766418
1761333591048380200,11.233380126953126,9.884750366210938,0.5359922647476196,0.2392822653055191
1761333591067079200,11.2520791015625,9.865608215332031,0.5431707501411438,0.24646073579788208
1761333591085778200,11.270778076171876,9.870393753051758,0.5216353535652161,0.2512463629245758
1761333591104477200,11.289477294921875,9.884750366210938,0.5623133182525635,0.24167509377002716
1761333591123176200,11.30817626953125,9.875179290771484,0.5455635786056519,0.23449662327766418
1761333591141875200,11.326875244140625,9.879964828491211,0.5312066078186035,0.23688943684101105
1761333591160574200,11.34557421875,9.872786521911621,0.5312066078186035,0.24646073579788208
1761333591179273200,11.364273193359375,9.879964828491211,0.5288137793540955,0.24885354936122894
1761333591197972200,11.38297216796875,9.8871431350708,0.5312066078186035,0.2632105052471161
1761333591216671000,11.4016708984375,9.884750366210938,0.5335994362831116,0.24167509377002716
1761333591235370200,11.420370361328125,9.882357597351074,0.5479564070701599,0.24406790733337402
1761333591254069000,11.439069091796876,9.870393753051758,0.5072783827781677,0.24167509377002716
1761333591272768000,11.45776806640625,9.875179290771484,0.5264210104942322,0.24646073579788208
1761333591291467000,11.476467041015624,9.889535903930664,0.5479564070701599,0.24167509377002716
1761333591310166000,11.495166015625,9.889535903930664,0.5288137793540955,0.24646073579788208
1761333591328865000,11.513864990234374,9.877572059631348,0.5312066078186035,0.24646073579788208
1761333591347564000,11.53256396484375,9.89432144165039,0.5335994362831116,0.2273181527853012
1761333591366263000,11.551262939453125,9.882357597351074,0.5431707501411438,0.22971096634864807
1761333591384961800,11.5699619140625,9.882357597351074,0.5288137793540955,0.24167509377002716
1761333591403661000,11.5886611328125,9.882357597351074,0.5431707501411438,0.24646073579788208
1761333591422359800,11.60735986328125,9.889535903930664,0.550349235534668,0.24885354936122894
1761333591441058800,11.626058837890625,9.870393753051758,0.5407779216766357,0.24167509377002716
1761333591459757800,11.6447578125,9.858428955078125,0.519242525100708,0.24646073579788208
1761333591478456800,11.663456787109375,9.961320877075195,0.5455635786056519,0.23449662327766418
1761333591497155800,11.68215576171875,9.834501266479492,0.5455635786056519,0.24885354936122894
1761333591515854800,11.700854736328125,9.908679008483887,0.5479564070701599,0.25363919138908386
1761333591534553900,11.719553955078124,9.872786521911621,0.5288137793540955,0.23449662327766418
1761333591553252900,11.7382529296875,9.882357597351074,0.5431707501411438,0.23449662327766418
1761333591571951900,11.756951904296875,9.872786521911621,0.5335994362831116,0.2225325107574463
1761333591590651000,11.77565087890625,9.868000984191895,0.5407779216766357,0.23449662327766418
1761333591609349600,11.794349609375,9.891928672790527,0.550349235534668,0.23210379481315613
1761333591628048600,11.813048583984376,10.013962745666504,0.5288137793540955,0.24646073579788208
1761333591646747600,11.83174755859375,9.834501266479492,0.5072783827781677,0.24406790733337402
1761333591665446700,11.85044677734375,9.891928672790527,0.5479564070701599,0.24406790733337402
1761333591684145700,11.869145751953125,9.848857879638672,0.519242525100708,0.23688943684101105
