time,seconds_elapsed,z,y,x
1761333579874656300,0.05965625,0.007176399230957031,0.0036267638206481934,-0.0023878663778305054
1761333579893355000,0.07835498046875,-0.02751922607421875,0.007806718349456787,0.007815137505531311
1761333579912054000,0.097053955078125,0.014754295349121094,-0.017535030841827393,-0.003116920590400696
1761333579930753000,0.1157529296875,-0.016150474548339844,-0.012912452220916748,-0.0017190277576446533
1761333579949452000,0.1344521484375,0.019141197204589844,0.006220221519470215,-0.0030837953090667725
1761333579968151000,0.153151123046875,-0.00379180908203125,-0.004152059555053711,-0.009943366050720215
1761333579986849800,0.171849853515625,0.012464523315429688,-0.0071800947189331055,-0.00709649920463562
1761333580005548800,0.190548828125,-0.0031557083129882812,0.0026314258575439453,0.0020253360271453857
1761333580024247800,0.209247802734375,0.008353233337402344,-0.004486024379730225,-0.010175108909606934
1761333580042946800,0.22794677734375,-0.008042335510253906,0.0037075281143188477,-0.005265817046165466
1761333580061645800,0.246645751953125,0.015084266662597656,0.024122118949890137,0.00904148817062378
1761333580080344600,0.265344482421875,-0.00811767578125,0.009496212005615234,-0.0006781071424484253
1761333580099043600,0.284043701171875,0.0013294219970703125,-0.011466503143310547,0.008912429213523865
1761333580117742600,0.30274267578125,0.001560211181640625,0.0029388070106506348,0.008594676852226257
1761333580136441600,0.321441650390625,0.004473686218261719,0.002225637435913086,0.012682408094406128
1761333580155140600,0.340140625,-0.006953239440917969,-0.002734959125518799,-0.006539955735206604
1761333580173839400,0.35883935546875,-0.0037994384765625,0.008935332298278809,-0.01765426993370056
1761333580192538400,0.377538330078125,-0.00424957275390625,-0.012366116046905518,0.0036726146936416626
1761333580211237400,0.3962373046875,-0.009005546569824219,-0.004694044589996338,0.015148207545280457
1761333580229936400,0.414936279296875,0.0006532669067382812,0.0001817941665649414,-0.004200085997581482
1761333580248635100,0.43363525390625,0.007518768310546875,-0.004342854022979736,-0.004209831357002258
1761333580267334100,0.452334228515625,-0.011636734008789062,-0.004161536693572998,-0.015696197748184204
1761333580286033200,0.471033203125,-0.004422187805175781,-0.008782923221588135,0.0059188008308410645
1761333580304732200,0.489732177734375,-0.008824348449707031,-0.0037974119186401367,0.003690093755722046
1761333580323431000,0.508430908203125,0.012536048889160156,0.0033803582191467285,-0.0035749971866607666
1761333580342130000,0.5271298828125,-0.013437271118164062,-0.008684396743774414,0.0012611299753189087
1761333580360829000,0.545828857421875,-0.006112098693847656,0.0007387995719909668,0.010523021221160889
1761333580379528000,0.56452783203125,0.012521743774414062,0.0006514191627502441,-0.010673582553863525
1761333580398227000,0.58322705078125,0.00028514862060546875,-0.0017518997192382812,-0.012712180614471436
1761333580416925700,0.60192578125,0.0072536468505859375,-0.0017911791801452637,0.0019000470638275146
1761333580435624700,0.620624755859375,-0.013846397399902344,-0.0041925907135009766,-0.00249306857585907
1761333580454323700,0.63932373046875,-0.0020532608032226562,-0.006500542163848877,-0.0027696043252944946
1761333580473022700,0.658022705078125,0.014293670654296875,-0.001688838005065918,-0.019232213497161865
1761333580491721700,0.6767216796875,-0.00014209747314453125,-0.01335608959197998,-0.00943659245967865
1761333580510420500,0.69542041015625,-0.007232666015625,0.03385442495346069,0.0019682496786117554
1761333580529119500,0.714119384765625,0.004540443420410156,0.0003884434700012207,-0.0007396787405014038
1761333580547818500,0.732818603515625,-0.0027856826782226562,-0.013544797897338867,0.022714361548423767
1761333580566517500,0.751517578125,-0.00030231475830078125,-0.011178255081176758,-0.010542377829551697
1761333580585216500,0.770216552734375,0.0024127960205078125,-0.006380319595336914,-0.005640998482704163
1761333580603915300,0.788915283203125,0.004921913146972656,0.0008345842361450195,0.006165653467178345
1761333580622614300,0.8076142578125,0.00260162353515625,-0.0016396045684814453,0.020183533430099487
1761333580641313300,0.826313232421875,-0.016231536865234375,-0.015676796436309814,0.0010291486978530884
1761333580660012300,0.84501220703125,0.0004215240478515625,-0.005981028079986572,0.01051853597164154
1761333580678711000,0.8637109375,-0.004139900207519531,0.015573561191558838,0.0031645596027374268
1761333580697410000,0.88241015625,0.007878303527832031,-0.012916266918182373,-0.018011555075645447
1761333580716109000,0.901109130859375,-0.004073143005371094,0.022822201251983643,0.006068959832191467
1761333580734808000,0.91980810546875,0.0006132125854492188,-0.0011644363403320312,-0.017718687653541565
1761333580753507000,0.938507080078125,0.0005521774291992188,-0.0012200474739074707,0.008425101637840271
1761333580772205800,0.957205810546875,-0.0017023086547851562,0.0011819005012512207,-0.00341932475566864
1761333580790904800,0.97590478515625,-0.011102676391601562,0.001155257225036621,-0.003364548087120056
1761333580809603800,0.994603759765625,-0.0038309097290039062,-0.0009756684303283691,0.01791800558567047
1761333580828302800,1.013302734375,-0.015547752380371094,-0.0010374784469604492,-0.0011316239833831787
1761333580847001900,1.032001953125,-0.0010766983032226562,0.012880206108093262,-0.003263697028160095
1761333580865700600,1.05070068359375,0.0012359619140625,-0.003799140453338623,-0.005756452679634094
1761333580884399600,1.069399658203125,-0.005782127380371094,0.014921963214874268,-0.005592092871665955
1761333580903098600,1.0880986328125,-0.0034284591674804688,-0.0017587542533874512,0.0014111995697021484
1761333580921797600,1.106797607421875,0.0061779022216796875,0.019380927085876465,0.00832657516002655
1761333580940496600,1.12549658203125,-0.0011262893676757812,0.009644150733947754,0.010398223996162415
1761333580959195400,1.1441953125,-0.00799560546875,0.007381916046142578,0.003359749913215637
1761333580977894400,1.162894287109375,0.0017185211181640625,-0.001998305320739746,-0.006129860877990723
1761333580996593400,1.181593505859375,0.008603096008300781,-0.009023010730743408,0.0010980218648910522
1761333581015292200,1.200292236328125,0.015573501586914062,-0.006660521030426025,-0.022338882088661194
1761333581033991200,1.2189912109375,-0.0036840438842773438,0.005501210689544678,-0.008044198155403137
1761333581052690200,1.237690185546875,0.008047103881835938,-0.013675391674041748,0.001352950930595398
1761333581071389200,1.25638916015625,-0.0014352798461914062,0.026695311069488525,0.00860626995563507
1761333581090088200,1.275088134765625,0.0033588409423828125,0.007524430751800537,-0.0077656954526901245
1761333581108787000,1.293786865234375,0.00328826904296875,-0.001956939697265625,0.002075895667076111
1761333581127486000,1.31248583984375,-0.024896621704101562,0.009801328182220459,-0.0002529919147491455
1761333581146185000,1.33118505859375,-0.0032472610473632812,0.0029519200325012207,-0.009776115417480469
1761333581164884000,1.349884033203125,-0.0030612945556640625,-0.006492912769317627,-0.011877074837684631
1761333581183583000,1.3685830078125,0.015630722045898438,0.012659013271331787,0.0024322867393493652
1761333581202282000,1.387281982421875,-0.0012369155883789062,-0.020402073860168457,-0.004516899585723877
1761333581220980700,1.405980712890625,-0.0035076141357421875,-0.0107651948928833,0.007303312420845032
1761333581239679700,1.4246796875,0.013006210327148438,0.003401815891265869,0.005020573735237122
1761333581258378800,1.443378662109375,0.0033540725708007812,0.005855858325958252,-0.01635083556175232
1761333581277077800,1.462077880859375,-0.001422882080078125,-0.0037245750427246094,0.00969010591506958
1761333581295776800,1.48077685546875,-0.0061206817626953125,-0.015594124794006348,0.009532332420349121
1761333581314475500,1.4994755859375,0.0032186508178710938,0.007847249507904053,-0.000379413366317749
1761333581333174500,1.518174560546875,-0.010890007019042969,-0.015744388103485107,-0.0005517750978469849
1761333581351873500,1.53687353515625,0.0007677078247070312,-0.0012180209159851074,-0.007709085941314697
1761333581370572300,1.555572265625,0.014975547790527344,-0.005959928035736084,-0.0007142871618270874
1761333581389271300,1.574271240234375,0.005223274230957031,0.010613620281219482,0.008766040205955505
1761333581407970300,1.59297021484375,0.005251884460449219,0.010467469692230225,-0.007765054702758789
1761333581426669300,1.61166943359375,-0.011355400085449219,0.009983718395233154,0.0066603124141693115
1761333581445368300,1.630368408203125,-0.008507728576660156,-0.006672918796539307,-0.0006669312715530396
1761333581464067000,1.649067138671875,0.001068115234375,-0.006427407264709473,0.008737951517105103
1761333581482766000,1.66776611328125,-0.003909111022949219,0.0030228495597839355,-0.010280609130859375
1761333581501465000,1.686465087890625,-0.013385772705078125,-0.001605212688446045,0.01320047676563263
1761333581520164000,1.7051640625,-0.0012960433959960938,0.012745916843414307,0.0009342283010482788
1761333581538863000,1.723863037109375,0.00106048583984375,-0.0039286017417907715,-0.0014324188232421875
1761333581557561900,1.742561767578125,-0.008348464965820312,-0.006047844886779785,0.00546109676361084
1761333581576260900,1.7612607421875,0.010358810424804688,0.0031775832176208496,-0.004122495651245117
1761333581594960000,1.7799599609375,-0.008609771728515625,-0.022747933864593506,0.014732927083969116
1761333581613659000,1.798658935546875,-0.010796546936035156,-0.008011221885681152,-0.011115431785583496
1761333581632358000,1.81735791015625,-0.005898475646972656,0.008874595165252686,0.0033243894577026367
1761333581651056600,1.836056640625,-0.00817108154296875,0.013387799263000488,0.005607485771179199
1761333581669755600,1.854755615234375,-0.017281532287597656,-0.005492508411407471,-0.0018626898527145386
1761333581688454700,1.87345458984375,-0.007568359375,-0.0030670762062072754,-0.0019640177488327026
1761333581707153700,1.892153564453125,-0.00045680999755859375,-0.003213942050933838,-0.011420294642448425
1761333581725852400,1.910852294921875,0.013478279113769531,-0.007694900035858154,0.0030459314584732056
1761333581744551400,1.929551513671875,0.003856658935546875,0.004188597202301025,-0.013509124517440796
1761333581763250400,1.94825048828125,-0.008271217346191406,-0.021674275398254395,0.008068636059761047
1761333581781949400,1.966949462890625,0.0013742446899414062,0.023653090000152588,0.003124639391899109
1761333581800648200,1.985648193359375,-0.0009059906005859375,0.0044106245040893555,-0.001739412546157837
1761333581819347200,2.00434716796875,0.0015974044799804688,0.004168510437011719,0.0050631314516067505
1761333581838046200,2.023046142578125,-0.005593299865722656,-0.0008310079574584961,-0.0023021399974823
1761333581856745200,2.0417451171875,-0.007836341857910156,0.008105754852294922,-0.004761755466461182
1761333581875444200,2.0604443359375,0.013558387756347656,-0.0014552474021911621,0.0046846866607666016
1761333581894143200,2.079143310546875,-0.01018524169921875,0.0080452561378479,0.011932551860809326
1761333581912842000,2.097842041015625,0.001678466796875,-0.006180703639984131,0.004830151796340942
1761333581931541000,2.116541015625,0.0016984939575195312,0.001146554946899414,-0.011405304074287415
1761333581950240000,2.135239990234375,-0.005489349365234375,0.010173439979553223,-0.011263564229011536
1761333581968939000,2.15393896484375,-0.014954566955566406,-0.008959770202636719,0.014917030930519104
1761333581987638000,2.172637939453125,-0.0006542205810546875,0.010067224502563477,-0.008992895483970642
1761333582006336800,2.191336669921875,-0.000705718994140625,0.016880273818969727,-0.0015480667352676392
1761333582025035800,2.210035888671875,0.02265453338623047,-0.0026507973670959473,-0.015774428844451904
1761333582043734800,2.22873486328125,0.005862236022949219,-0.002719402313232422,-0.003381192684173584
1761333582062433800,2.247433837890625,0.00555419921875,0.004198670387268066,0.001377299427986145
1761333582081132800,2.2661328125,0.0033292770385742188,-0.0005449056625366211,-0.007917463779449463
1761333582099831600,2.28483154296875,0.0056476593017578125,0.004241824150085449,0.006546050310134888
1761333582118530600,2.303530517578125,-0.010815620422363281,-0.012292146682739258,0.008934155106544495
1761333582137229600,2.3222294921875,-0.0036296844482421875,0.002080857753753662,-0.0030072927474975586
1761333582155928600,2.340928466796875,0.015232086181640625,-0.0003019571304321289,-0.0028170794248580933
1761333582174627600,2.359627685546875,-0.0016641616821289062,0.004214882850646973,-0.03091612458229065
1761333582193326300,2.378326416015625,0.012420654296875,-0.00977402925491333,0.012093216180801392
1761333582212025300,2.397025390625,-0.01607227325439453,-0.009489953517913818,0.0026449114084243774
1761333582230724400,2.415724365234375,0.007796287536621094,-0.00022774934768676758,0.009904101490974426
1761333582249423000,2.434423095703125,-0.006424903869628906,-0.01668870449066162,0.005156487226486206
1761333582268122000,2.4531220703125,0.007824897766113281,-0.026017069816589355,0.019228577613830566
1761333582286821000,2.471821044921875,0.0074920654296875,-0.006561458110809326,0.016331732273101807
1761333582305520000,2.49052001953125,-0.006598472595214844,-0.0037540197372436523,0.0091400146484375
1761333582324219100,2.50921923828125,-0.01814556121826172,0.0010589957237243652,0.011363968253135681
1761333582342918000,2.52791796875,0.0059413909912109375,-0.008361577987670898,-0.012070730328559875
1761333582361617000,2.546616943359375,0.0034694671630859375,0.01285707950592041,0.016439929604530334
1761333582380316000,2.56531591796875,-0.013117790222167969,-0.003998219966888428,-0.005112811923027039
1761333582399015000,2.584014892578125,-0.005902290344238281,-0.0015927553176879883,-0.019048184156417847
1761333582417714000,2.6027138671875,-0.0081787109375,-0.015752732753753662,-0.006977200508117676
1761333582436412700,2.62141259765625,-0.017200469970703125,0.008241534233093262,0.014191612601280212
1761333582455111700,2.640111572265625,-0.0051422119140625,0.010425448417663574,0.002086654305458069
1761333582473810700,2.658810791015625,-0.009758949279785156,-0.0060926079750061035,-0.012071356177330017
1761333582492509700,2.677509765625,-0.009592056274414062,-0.0038055777549743652,-0.0071721673011779785
1761333582511208700,2.696208740234375,-0.004731178283691406,-0.0011156797409057617,-0.006883516907691956
1761333582529907700,2.71490771484375,-0.00218963623046875,0.010679423809051514,0.00039774179458618164
1761333582548606500,2.7336064453125,0.009495735168457031,-0.01570284366607666,0.0046739280223846436
1761333582567305500,2.752305419921875,0.0000820159912109375,0.010424673557281494,0.00457194447517395
1761333582586004500,2.77100439453125,-0.0022287368774414062,-0.01120668649673462,0.004402443766593933
1761333582604703500,2.789703369140625,-0.004391670227050781,-0.0062253475189208984,-0.012279778718948364
1761333582623402500,2.808402587890625,-0.0019369125366210938,0.012727558612823486,-0.00012271106243133545
1761333582642101200,2.827101318359375,-0.0019922256469726562,0.007915794849395752,0.01858118176460266
1761333582660800300,2.84580029296875,-0.011294364929199219,-0.006652176380157471,-0.0009217709302902222
1761333582679499300,2.864499267578125,0.005428314208984375,-0.0062757134437561035,0.00133436918258667
1761333582698198300,2.8831982421875,-0.015810012817382812,-0.0014437437057495117,0.006116807460784912
1761333582716897300,2.901897216796875,-0.008419990539550781,0.008000195026397705,-0.020120054483413696
1761333582735596000,2.920595947265625,0.0009908676147460938,0.014558911323547363,0.0015550106763839722
1761333582754295000,2.939294921875,-0.010766983032226562,0.004742741584777832,-0.010472521185874939
1761333582772994000,2.957994140625,-0.0082550048828125,0.006976962089538574,-0.008066341280937195
1761333582791693000,2.976693115234375,0.005779266357421875,-0.00033658742904663086,-0.000703766942024231
1761333582810392000,2.99539208984375,-0.006175994873046875,0.004327356815338135,-0.007929116487503052
1761333582829090800,3.0140908203125,0.010342597961425781,-0.009793460369110107,0.008898302912712097
1761333582847789800,3.032789794921875,-0.00141143798828125,0.00915616750717163,-0.005198881030082703
1761333582866488800,3.05148876953125,0.0032224655151367188,0.004169881343841553,-0.0073483288288116455
1761333582885187800,3.070187744140625,-0.0037527084350585938,0.011284947395324707,-0.00936824083328247
1761333582903886800,3.088886962890625,0.0057392120361328125,-0.033167123794555664,0.002871677279472351
1761333582922585600,3.107585693359375,-0.001590728759765625,0.021809101104736328,-0.003992229700088501
1761333582941284600,3.12628466796875,0.012493133544921875,-0.009311854839324951,-0.00413687527179718
1761333582959983600,3.144983642578125,-0.011133193969726562,-0.0046828389167785645,-0.008637338876724243
1761333582978682600,3.1636826171875,0.005623817443847656,-0.0066446661949157715,-0.00838172435760498
1761333582997381600,3.182381591796875,0.007912635803222656,-0.009043753147125244,0.0011442452669143677
1761333583016080400,3.201080322265625,0.0005159378051757812,0.0002849102020263672,-0.010477915406227112
1761333583034779400,3.219779296875,0.007477760314941406,-0.011567950248718262,0.017866402864456177
1761333583053478400,3.238478515625,0.01216888427734375,-0.0019299983978271484,-0.010672643780708313
1761333583072177200,3.25717724609375,0.00004482269287109375,-0.004171252250671387,0.003415927290916443
1761333583090876400,3.27587646484375,-0.0022706985473632812,0.007677793502807617,-0.008138671517372131
1761333583109575200,3.2945751953125,0.00042438507080078125,0.009949803352355957,0.0037285983562469482
1761333583128274200,3.313274169921875,-0.0135498046875,0.00042933225631713867,-0.012815818190574646
1761333583146973200,3.33197314453125,0.015019416809082031,0.012151956558227539,0.008906200528144836
1761333583165672200,3.350672119140625,-0.011126518249511719,0.009949743747711182,0.011129707098007202
1761333583184371000,3.369370849609375,0.00559234619140625,0.007488906383514404,-0.0008050352334976196
1761333583203070000,3.388070068359375,0.0101470947265625,0.012040793895721436,0.0016269087791442871
1761333583221769000,3.40676904296875,0.0028238296508789062,-0.004653573036193848,0.0015594810247421265
1761333583240468000,3.425468017578125,0.0004911422729492188,0.00008690357208251953,0.0015395283699035645
1761333583259167000,3.4441669921875,0.007451057434082031,0.002476930618286133,0.006262362003326416
1761333583277865700,3.46286572265625,-0.004643440246582031,-0.011783242225646973,0.0014342069625854492
1761333583296564700,3.481564697265625,0.009548187255859375,0.007271230220794678,0.00373975932598114
1761333583315263700,3.500263671875,-0.007115364074707031,-0.006921291351318359,-0.001251712441444397
1761333583333962800,3.518962646484375,-0.016252517700195312,0.0001938343048095703,-0.0014706701040267944
1761333583352661800,3.537661865234375,-0.0018281936645507812,-0.011805117130279541,0.0029890984296798706
1761333583371360500,3.556360595703125,-0.0041599273681640625,0.00956660509109497,0.007692456245422363
1761333583390059500,3.5750595703125,-0.008919715881347656,-0.016584038734436035,-0.006566941738128662
1761333583408758500,3.593758544921875,-0.0016031265258789062,0.007204830646514893,0.005251899361610413
1761333583427457500,3.61245751953125,0.009981155395507812,-0.009167492389678955,0.007429152727127075
1761333583446156500,3.631156494140625,0.0077304840087890625,0.0005867481231689453,0.01927982270717621
1761333583464855300,3.649855224609375,0.005360603332519531,-0.013621389865875244,0.011988252401351929
1761333583483554300,3.66855419921875,-0.004038810729980469,-0.00629192590713501,-0.007025286555290222
1761333583502253300,3.68725341796875,-0.0064544677734375,-0.008568763732910156,0.004918798804283142
1761333583520952300,3.705952392578125,0.0054836273193359375,-0.0061833858489990234,0.0003151446580886841
1761333583539651300,3.7246513671875,0.012399673461914062,-0.008663535118103027,-0.0021734684705734253
1761333583558350000,3.74335009765625,-0.0018911361694335938,-0.00364762544631958,0.002735137939453125
1761333583577049000,3.762049072265625,-0.006618499755859375,-0.012725412845611572,-0.006795987486839294
1761333583595748000,3.780748046875,0.0006952285766601562,0.0017491579055786133,0.014056101441383362
1761333583614447000,3.799447021484375,-0.0063495635986328125,0.01576995849609375,-0.00004532933235168457
1761333583633146000,3.81814599609375,0.005504608154296875,0.010881543159484863,0.011998116970062256
1761333583651844900,3.836844970703125,0.0029668807983398438,-0.00797337293624878,0.002213582396507263
1761333583670544100,3.855544189453125,0.010007858276367188,-0.0005903840065002441,0.002298131585121155
1761333583689243000,3.874242919921875,-0.01142120361328125,-0.0029204487800598145,-0.009316280484199524
1761333583707942000,3.89294189453125,-0.006691932678222656,0.020768821239471436,0.00039076805114746094
1761333583726641000,3.911640869140625,0.007567405700683594,-0.007893681526184082,-0.001988708972930908
1761333583745340000,3.93033984375,0.007354736328125,0.013387918472290039,-0.004148036241531372
1761333583764039000,3.949038818359375,-0.004694938659667969,-0.0014051198959350586,-0.010944798588752747
1761333583782738000,3.967738037109375,-0.002262115478515625,-0.008510172367095947,0.010336816310882568
1761333583801436700,3.986436767578125,0.002712249755859375,0.0032607316970825195,0.014678135514259338
1761333583820135700,4.0051357421875,-0.0020418167114257812,0.010220468044281006,0.009770914912223816
1761333583838834700,4.023834716796875,0.0074005126953125,-0.008894264698028564,-0.00661817193031311
1761333583857533700,4.04253369140625,0.007232666015625,-0.013303756713867188,0.01469053328037262
1761333583876232700,4.061232666015625,-0.0022192001342773438,0.0011203885078430176,0.0048532634973526
1761333583894931500,4.079931396484375,0.0048694610595703125,0.008339285850524902,0.007229253649711609
1761333583913630500,4.09863037109375,-0.009288787841796875,-0.006027638912200928,-0.00017136335372924805
1761333583932329500,4.11732958984375,-0.006472587585449219,-0.008082926273345947,-0.0024438947439193726
1761333583951028200,4.1360283203125,-0.008727073669433594,0.006090283393859863,0.0022613555192947388
1761333583969727500,4.1547275390625,-0.004002571105957031,-0.0010853409767150879,-0.018989920616149902
1761333583988426200,4.17342626953125,-0.0015974044799804688,-0.0012976527214050293,0.009465277194976807
1761333584007125200,4.192125244140625,-0.0038995742797851562,-0.012955307960510254,-0.009840726852416992
1761333584025824300,4.21082421875,-0.013224601745605469,0.006297588348388672,-0.0003296583890914917
1761333584044523300,4.229523193359375,0.008309364318847656,-0.0124739408493042,-0.002605915069580078
1761333584063222300,4.24822216796875,0.005795478820800781,0.004253268241882324,0.004526376724243164
1761333584081921000,4.266921142578125,0.0033626556396484375,0.0018528103828430176,-0.009607002139091492
1761333584100620000,4.2856201171875,-0.00153350830078125,0.004142880439758301,-0.01901407539844513
1761333584119319000,4.304319091796875,-0.0016765594482421875,0.0017172694206237793,0.00721721351146698
1761333584138018000,4.32301806640625,0.0005712509155273438,-0.012557446956634521,0.004619613289833069
1761333584156717000,4.341717041015625,0.0027456283569335938,-0.014689266681671143,0.013809531927108765
1761333584175415800,4.360415771484375,0.0050830841064453125,0.0018894076347351074,-0.005117595195770264
1761333584194114800,4.37911474609375,0.00272369384765625,0.011050105094909668,0.0019504576921463013
1761333584212813800,4.397813720703125,-0.013677597045898438,0.008474409580230713,-0.012213826179504395
1761333584231512800,4.416512939453125,0.002895355224609375,-0.003481924533843994,0.01601649820804596
1761333584250211800,4.4352119140625,0.00048828125,0.008406639099121094,-0.0029349476099014282
1761333584268910600,4.45391064453125,0.0075321197509765625,0.0036037564277648926,0.013784423470497131
1761333584287609600,4.472609619140625,0.0071659088134765625,0.010763168334960938,0.004086241126060486
1761333584306308600,4.49130859375,0.004771232604980469,-0.008262336254119873,-0.0054576098918914795
1761333584325007600,4.510007568359375,-0.01190185546875,-0.005620181560516357,0.011183708906173706
1761333584343706600,4.52870654296875,-0.014179229736328125,-0.002962827682495117,-0.007880687713623047
1761333584362405400,4.5474052734375,-0.00449371337890625,-0.007586359977722168,0.008392125368118286
1761333584381104600,4.566104736328125,-0.009487152099609375,0.01146388053894043,0.0013044178485870361
1761333584399803600,4.5848037109375,0.0002002716064453125,0.027738630771636963,0.0008601248264312744
1761333584418502400,4.60350244140625,0.011989593505859375,-0.017618834972381592,0.0009109973907470703
1761333584437201400,4.622201416015625,-0.018715858459472656,0.005833625793457031,-0.011027410626411438
1761333584455900400,4.640900390625,0.014417648315429688,0.010117411613464355,0.0031802207231521606
1761333584474599400,4.659599365234375,-0.011548995971679688,-0.013367235660552979,-0.004094108939170837
1761333584493298400,4.67829833984375,-0.008935928344726562,0.0009355545043945312,-0.00643746554851532
1761333584511997200,4.6969970703125,-0.0066432952880859375,0.003335714340209961,0.007983744144439697
1761333584530696200,4.7156962890625,-0.001873016357421875,-0.02734142541885376,0.0008187443017959595
1761333584549395200,4.734395263671875,-0.004279136657714844,0.0036239027976989746,0.0006978362798690796
1761333584568094200,4.75309423828125,-0.0018644332885742188,0.015229403972625732,0.0003196597099304199
1761333584586793200,4.771793212890625,-0.013532638549804688,-0.008605897426605225,-0.004256531596183777
1761333584605492000,4.790491943359375,-0.0037107467651367188,-0.008492529392242432,-0.0065924376249313354
1761333584624191000,4.80919091796875,-0.0037441253662109375,0.0034196972846984863,0.0006985217332839966
1761333584642890000,4.827889892578125,-0.00118255615234375,-0.001467585563659668,-0.004054844379425049
1761333584661589000,4.846589111328125,-0.0034151077270507812,0.012512564659118652,-0.029952794313430786
1761333584680288000,4.8652880859375,-0.008049964904785156,-0.004098713397979736,0.0009742528200149536
1761333584698986800,4.88398681640625,0.0039033889770507812,-0.029981493949890137,0.008176088333129883
1761333584717685800,4.902685791015625,-0.0010051727294921875,-0.0060378313064575195,-0.003869965672492981
1761333584736384800,4.921384765625,-0.0080718994140625,0.0034947991371154785,-0.00609801709651947
1761333584755083800,4.940083740234375,-0.0056896209716796875,0.013121187686920166,0.012592032551765442
1761333584773782800,4.95878271484375,-0.0007123947143554688,0.0007111430168151855,-0.016250118613243103
1761333584792481800,4.977481689453125,-0.00033664703369140625,0.005357682704925537,0.0002406388521194458
1761333584811180800,4.996180908203125,-0.0027971267700195312,-0.0181427001953125,0.0024676769971847534
1761333584829879600,5.014879638671875,-0.005177497863769531,-0.013128161430358887,-0.004470989108085632
1761333584848578600,5.03357861328125,0.0064868927001953125,0.0010373592376708984,0.002713620662689209
1761333584867277600,5.052277587890625,-0.010083198547363281,-0.015561521053314209,-0.0017625689506530762
1761333584885976600,5.0709765625,0.01820850372314453,0.003816664218902588,0.002878844738006592
1761333584904675600,5.089675537109375,-0.00298309326171875,0.004029572010040283,-0.001899614930152893
1761333584923374300,5.108374267578125,0.0183258056640625,-0.017290592193603516,-0.013613924384117126
1761333584942073300,5.1270732421875,0.006115913391113281,0.006502747535705566,-0.013226062059402466
1761333584960772400,5.1457724609375,0.0011224746704101562,0.017991364002227783,0.012907668948173523
1761333584979471400,5.164471435546875,-0.0058917999267578125,0.012971341609954834,0.012591034173965454
1761333584998170400,5.18317041015625,-0.0033054351806640625,-0.0036929845809936523,-0.0041965097188949585
1761333585016869400,5.201869384765625,0.01303863525390625,-0.01303476095199585,-0.02289801836013794
1761333585035568400,5.220568359375,0.015351295471191406,0.0038299560546875,-0.015522688627243042
1761333585054267400,5.239267333984375,-0.0011577606201171875,-0.01960766315460205,-0.012687146663665771
1761333585072966100,5.257966064453125,0.0037794113159179688,0.004280209541320801,-0.009794473648071289
1761333585091665200,5.2766650390625,-0.003292083740234375,-0.005037963390350342,0.01165686547756195
1761333585110364200,5.2953642578125,-0.0034160614013671875,-0.004690885543823242,-0.0024953633546829224
1761333585129063200,5.314063232421875,-0.00565338134765625,0.00492250919342041,-0.004737168550491333
1761333585147762200,5.33276220703125,0.01798725128173828,0.00484699010848999,-0.011668384075164795
1761333585166461000,5.3514609375,0.0059051513671875,-0.011761486530303955,0.004937261343002319
1761333585185160000,5.370159912109375,0.0008897781372070312,0.00008571147918701172,0.00045724213123321533
1761333585203859000,5.38885888671875,-0.00615692138671875,0.009464144706726074,0.01211574673652649
1761333585222558000,5.407557861328125,0.008241653442382812,0.011647284030914307,-0.0017523765563964844
1761333585241257000,5.426257080078125,0.005696296691894531,-0.0071846842765808105,-0.015877321362495422
1761333585259955700,5.444955810546875,-0.008381843566894531,0.004522502422332764,0.01263090968132019
1761333585278655000,5.463655029296875,0.017891883850097656,-0.007369041442871094,0.00794452428817749
1761333585297353700,5.482353759765625,0.005615234375,-0.00718158483505249,-0.0038312971591949463
1761333585316052700,5.501052734375,0.0031909942626953125,-0.0025139451026916504,0.005682021379470825
1761333585334751700,5.519751708984375,-0.011153221130371094,-0.007058143615722656,-0.024833127856254578
1761333585353450800,5.53845068359375,0.012587547302246094,0.02827531099319458,0.0014172941446304321
1761333585372149800,5.557149658203125,-0.004146575927734375,0.013536453247070312,0.006380364298820496
1761333585390848500,5.5758486328125,-0.018289566040039062,0.006009697914123535,-0.0029605627059936523
1761333585409547500,5.594547607421875,-0.006188392639160156,-0.0010416507720947266,0.008720770478248596
1761333585428246500,5.61324658203125,-0.0013227462768554688,-0.01275557279586792,-0.005439594388008118
1761333585446945500,5.631945556640625,-0.0011577606201171875,-0.014756500720977783,0.01090829074382782
1761333585465644500,5.65064453125,-0.0037164688110351562,-0.014682769775390625,-0.005622759461402893
1761333585484343600,5.669343505859375,0.0012712478637695312,0.006574034690856934,0.010554060339927673
1761333585503042600,5.68804248046875,0.005939483642578125,0.013540565967559814,0.015026584267616272
1761333585521741300,5.7067412109375,0.005942344665527344,0.003690004348754883,0.007818907499313354
1761333585540440300,5.7254404296875,0.008101463317871094,-0.005974233150482178,0.00998370349407196
1761333585559139300,5.744139404296875,0.005715370178222656,0.005738377571105957,0.002800300717353821
1761333585577838300,5.76283837890625,0.010150909423828125,-0.017665982246398926,0.0075568705797195435
1761333585596537300,5.781537353515625,0.007781028747558594,0.015437901020050049,-0.0020735859870910645
1761333585615236400,5.800236328125,-0.0063152313232421875,0.0033257603645324707,0.014285728335380554
1761333585633935000,5.81893505859375,-0.0015573501586914062,-0.013285279273986816,-0.00932110846042633
1761333585652634000,5.837634033203125,-0.015778541564941406,0.019703686237335205,-0.011808037757873535
1761333585671333000,5.8563330078125,0.0008945465087890625,0.0031872987747192383,0.01416119933128357
1761333585690032000,5.8750322265625,-0.017995834350585938,-0.011169791221618652,-0.009408026933670044
1761333585708731100,5.893731201171875,-0.00335693359375,0.017443478107452393,0.004819408059120178
1761333585727430100,5.91243017578125,0.010869026184082031,0.0053345561027526855,-0.006991550326347351
1761333585746129200,5.931129150390625,-0.000865936279296875,0.007380962371826172,-0.00672459602355957
1761333585764828000,5.949827880859375,-0.007898330688476562,0.005213797092437744,-0.011600345373153687
1761333585783527000,5.96852685546875,-0.017090797424316406,0.007552206516265869,0.005225688219070435
1761333585802226000,5.987225830078125,0.013981819152832031,0.014790356159210205,0.004896059632301331
1761333585820925000,6.005925048828125,0.018543243408203125,0.01685512065887451,-0.011497154831886292
1761333585839624000,6.0246240234375,0.010831832885742188,-0.007013976573944092,0.01446688175201416
1761333585858323000,6.043322998046875,-0.0009412765502929688,0.01176762580871582,-0.004570081830024719
1761333585877022000,6.06202197265625,0.006103515625,-0.006960511207580566,-0.011540055274963379
1761333585895720700,6.080720703125,-0.008026123046875,0.005050718784332275,-0.0019173026084899902
1761333585914419700,6.099419677734375,-0.0032520294189453125,-0.018542230129241943,0.014720618724822998
1761333585933118700,6.11811865234375,-0.003025054931640625,-0.0020647644996643066,0.012037903070449829
1761333585951817700,6.136817626953125,-0.00084686279296875,-0.008860886096954346,0.0022282451391220093
1761333585970516700,6.155516845703125,0.006046295166015625,0.005295217037200928,-0.0073316991329193115
1761333585989215500,6.174215576171875,0.008234977722167969,-0.008958578109741211,0.009528383612632751
1761333586007914800,6.192914794921875,-0.001453399658203125,0.012436330318450928,0.011869505047798157
1761333586026613500,6.211613525390625,0.0055751800537109375,0.0213051438331604,-0.002668514847755432
1761333586045312500,6.2303125,0.0030279159545898438,-0.0023887157440185547,-0.018940836191177368
1761333586064011500,6.249011474609375,-0.008566856384277344,-0.002334296703338623,0.012116625905036926
1761333586082710500,6.26771044921875,-0.010759353637695312,0.0026594996452331543,0.009574592113494873
1761333586101409500,6.286409423828125,-0.008487701416015625,0.00039064884185791016,-0.009490087628364563
1761333586120108500,6.305108642578125,0.00598907470703125,-0.016265273094177246,-0.011774301528930664
1761333586138807600,6.3238076171875,-0.008406639099121094,0.011998891830444336,0.000216752290725708
1761333586157506600,6.342506591796875,-0.0036211013793945312,-0.004746913909912109,-0.0022175759077072144
1761333586176205300,6.361205322265625,-0.0036191940307617188,-0.011979460716247559,0.005221650004386902
1761333586194904300,6.379904296875,0.022226333618164062,0.014046669006347656,0.00506533682346344
1761333586213603300,6.398603271484375,0.0007047653198242188,-0.000023126602172851562,-0.0019174963235855103
1761333586232302300,6.41730224609375,0.0170745849609375,0.002158522605895996,0.012509092688560486
1761333586251001300,6.43600146484375,0.012000083923339844,0.009286344051361084,0.007418394088745117
1761333586269700000,6.4547001953125,0.009606361389160156,-0.011980950832366943,0.00011736154556274414
1761333586288399400,6.4733994140625,0.00015544891357421875,0.0020707249641418457,0.007127091288566589
1761333586307098000,6.49209814453125,-0.0021991729736328125,-0.0004609227180480957,-0.009212881326675415
1761333586325797000,6.510797119140625,0.004856109619140625,-0.007534980773925781,-0.002098456025123596
1761333586344496000,6.52949609375,-0.009144783020019531,-0.0005713105201721191,-0.0020025670528411865
1761333586363195100,6.548195068359375,0.000415802001953125,-0.0029006600379943848,0.002593621611595154
1761333586381894100,6.56689404296875,0.0006427764892578125,0.011531651020050049,-0.007291451096534729
1761333586400593000,6.585593017578125,-0.008871078491210938,-0.0027952194213867188,-0.00004920363426208496
1761333586419292200,6.604292236328125,-0.0017948150634765625,-0.016876161098480225,-0.00021508336067199707
1761333586437991000,6.622990966796875,-0.011063575744628906,-0.01435154676437378,0.016066551208496094
1761333586456690000,6.64168994140625,0.015063285827636719,0.002414703369140625,-0.0031134039163589478
1761333586475389000,6.660388916015625,0.012253761291503906,0.0071027278900146484,0.0015355199575424194
1761333586494088000,6.679087890625,-0.009090423583984375,0.0023249387741088867,0.003987893462181091
1761333586512787000,6.697786865234375,-0.004047393798828125,-0.016538619995117188,-0.0032649487257003784
1761333586531485700,6.716485595703125,-0.004109382629394531,0.007365047931671143,-0.005442127585411072
1761333586550185000,6.73518505859375,0.000614166259765625,0.012140870094299316,-0.007986456155776978
1761333586568883700,6.7538837890625,0.002910614013671875,-0.004802048206329346,0.0016241222620010376
1761333586587582700,6.772582763671875,-0.011457443237304688,-0.0048941969871521,-0.005609050393104553
1761333586606281700,6.79128173828125,-0.0019016265869140625,-0.0045920610427856445,0.003766074776649475
1761333586624980700,6.809980712890625,-0.0019540786743164062,0.01401519775390625,-0.01989293098449707
1761333586643679700,6.8286796875,0.005209922790527344,-0.0006972551345825195,-0.010145455598831177
1761333586662378800,6.847378662109375,0.016878128051757812,0.020151376724243164,0.0016511529684066772
1761333586681077800,6.866077880859375,-0.011404037475585938,-0.017510294914245605,0.008744969964027405
1761333586699776800,6.88477685546875,0.0005807876586914062,-0.012187957763671875,0.00883270800113678
1761333586718475500,6.9034755859375,0.0029954910278320312,0.018435120582580566,-0.005308464169502258
1761333586737174500,6.922174560546875,-0.013532638549804688,0.008868038654327393,0.011476114392280579
1761333586755873500,6.94087353515625,0.0007143020629882812,-0.012327432632446289,0.002027347683906555
1761333586774572500,6.959572509765625,0.00057220458984375,0.0018458962440490723,0.006504222750663757
1761333586793271600,6.978271484375,-0.0041904449462890625,0.008932232856750488,0.0038421303033828735
1761333586811970600,6.996970458984375,0.000492095947265625,-0.02412998676300049,-0.008196189999580383
1761333586830669600,7.015669677734375,-0.009096145629882812,-0.009408414363861084,-0.01500074565410614
1761333586849368300,7.034368408203125,-0.011110305786132812,-0.006877243518829346,-0.012203842401504517
1761333586868067300,7.0530673828125,-0.008581161499023438,-0.006877720355987549,-0.00744958221912384
1761333586886766300,7.071766357421875,-0.006102561950683594,-0.011314690113067627,-0.016663342714309692
1761333586905465300,7.09046533203125,0.0126495361328125,0.009615778923034668,0.00034746527671813965
1761333586924164400,7.109164306640625,0.01971912384033203,0.002490401268005371,0.009705513715744019
1761333586942863400,7.12786328125,0.012277603149414062,0.014582693576812744,-0.007134169340133667
1761333586961562400,7.146562255859375,0.0048847198486328125,0.002334296703338623,-0.01634065806865692
1761333586980261000,7.16526123046875,0.01197052001953125,0.009346067905426025,0.0050794631242752075
1761333586998960000,7.183960205078125,-0.000194549560546875,-0.00002199411392211914,-0.0018833279609680176
1761333587017659100,7.2026591796875,0.018517494201660156,0.004945278167724609,-0.004425942897796631
1761333587036358100,7.221358154296875,0.00179290771484375,-0.0067768096923828125,-0.011425033211708069
1761333587055057200,7.24005712890625,-0.009796142578125,0.002881646156311035,0.014629200100898743
1761333587073756200,7.258756103515625,0.009153366088867188,-0.015956342220306396,-0.011431127786636353
1761333587092455200,7.277455078125,0.004223823547363281,-0.008368611335754395,-0.006646260619163513
1761333587111154000,7.29615380859375,-0.01658344268798828,-0.013069093227386475,-0.001846417784690857
1761333587129853000,7.31485302734375,-0.0021924972534179688,0.010704994201660156,0.0030016303062438965
1761333587148552200,7.33355224609375,-0.0023546218872070312,-0.017549514770507812,-0.0015881210565567017
1761333587167251000,7.3522509765625,-0.00000286102294921875,-0.00290524959564209,0.017063796520233154
1761333587185950000,7.370949951171875,-0.009413719177246094,-0.007611453533172607,-0.0047388821840286255
1761333587204649000,7.38964892578125,0.0026597976684570312,0.0040375590324401855,0.021028295159339905
1761333587223348000,7.408347900390625,-0.0020542144775390625,0.00882875919342041,-0.00498691201210022
1761333587242047000,7.427046875,0.011780738830566406,-0.0030066967010498047,-0.0004513561725616455
1761333587260746000,7.44574609375,0.00189971923828125,0.003917336463928223,-0.00746116042137146
1761333587279445000,7.464445068359375,-0.014475822448730469,0.006030440330505371,0.001834571361541748
1761333587298143700,7.483143798828125,-0.0026731491088867188,-0.0011571645736694336,0.006390824913978577
1761333587316842800,7.5018427734375,0.0043544769287109375,-0.0056722164154052734,0.008500292897224426
1761333587335541800,7.520541748046875,-0.012304306030273438,0.013181626796722412,0.0017305612564086914
1761333587354240800,7.53924072265625,-0.0118255615234375,-0.008412837982177734,0.013617560267448425
1761333587372939800,7.557939697265625,0.004872322082519531,0.0033548474311828613,0.02070458233356476
1761333587391638800,7.576638671875,0.014272689819335938,0.00561290979385376,-0.00320608913898468
1761333587410337800,7.595337890625,0.0022735595703125,0.01976597309112549,0.003702014684677124
1761333587429036500,7.61403662109375,-0.009569168090820312,0.00752866268157959,0.01793530583381653
1761333587447735600,7.632735595703125,0.009334564208984375,-0.014029920101165771,0.02919977903366089
1761333587466434600,7.6514345703125,-0.009601593017578125,0.012065231800079346,0.009871095418930054
1761333587485133600,7.670133544921875,0.009344100952148438,-0.014194667339324951,0.021482661366462708
1761333587503832600,7.68883251953125,-0.00045108795166015625,-0.011562585830688477,-0.009171977639198303
1761333587522531600,7.707531494140625,-0.005297660827636719,0.0003712177276611328,-0.0018482357263565063
1761333587541230600,7.726230712890625,0.006604194641113281,-0.009186089038848877,0.0004604160785675049
1761333587559929300,7.744929443359375,0.00156402587890625,0.011947095394134521,0.00518365204334259
1761333587578628600,7.763628662109375,-0.010488510131835938,-0.0023483633995056152,-0.018379315733909607
1761333587597327400,7.782327392578125,0.015271186828613281,0.011555790901184082,-0.0014447569847106934
1761333587616026400,7.8010263671875,-0.008569717407226562,-0.005192101001739502,0.003543853759765625
1761333587634725400,7.819725341796875,-0.010713577270507812,0.011418163776397705,0.0011883825063705444
1761333587653424400,7.83842431640625,-0.010552406311035156,-0.021814703941345215,0.015241727232933044
1761333587672123400,7.857123291015625,-0.008204460144042969,0.015990138053894043,0.0035095661878585815
1761333587690822400,7.875822509765625,0.00128173828125,0.00854712724685669,-0.0034659355878829956
1761333587709521400,7.894521484375,0.008339881896972656,-0.015530824661254883,0.011051982641220093
1761333587728220400,7.913220458984375,0.0035953521728515625,0.003752589225769043,0.013269826769828796
1761333587746919200,7.931919189453125,0.005948066711425781,-0.005757927894592285,-0.008024364709854126
1761333587765618200,7.9506181640625,-0.017508506774902344,-0.014745235443115234,-0.00783182680606842
1761333587784317200,7.969317138671875,-0.0054798126220703125,-0.021448194980621338,0.011141136288642883
1761333587803016200,7.98801611328125,-0.0006303787231445312,0.002737104892730713,-0.0032754093408584595
1761333587821715200,8.006715087890624,0.015709877014160156,-0.004325151443481445,-0.007894426584243774
1761333587840414200,8.025414306640625,0.008523941040039062,-0.01146763563156128,0.011153534054756165
1761333587859113200,8.04411328125,0.006049156188964844,0.0052474141120910645,-0.0007599443197250366
1761333587877812200,8.062812255859376,-0.013096809387207031,0.0074582695960998535,-0.007929682731628418
1761333587896511200,8.08151123046875,-0.015175819396972656,0.009602725505828857,0.001427486538887024
1761333587915210000,8.1002099609375,0.001682281494140625,0.009311556816101074,0.003512740135192871
1761333587933909000,8.118908935546875,-0.007819175720214844,-0.000437319278717041,0.0010738521814346313
1761333587952608000,8.13760791015625,-0.009797096252441406,0.006582379341125488,0.005439832806587219
1761333587971307000,8.15630712890625,-0.014070510864257812,-0.005095303058624268,0.005393922328948975
1761333587990006000,8.175006103515624,0.0074481964111328125,0.006967902183532715,0.0031181275844573975
1761333588008705000,8.193705078125,-0.0092315673828125,-0.012010753154754639,0.005076542496681213
1761333588027404000,8.212404052734374,0.007381439208984375,-0.0068359375,-0.00401461124420166
1761333588046102800,8.231102783203125,0.011767387390136719,-0.009151697158813477,0.0032676905393600464
1761333588064801800,8.2498017578125,-0.01415252685546875,0.005072176456451416,0.010426938533782959
1761333588083500800,8.268500732421876,0.00960540771484375,-0.009333789348602295,-0.00397782027721405
1761333588102199800,8.28719970703125,0.004740715026855469,0.011686563491821289,-0.003500014543533325
1761333588120898800,8.30589892578125,-0.004822731018066406,-0.014772236347198486,-0.010482341051101685
1761333588139597800,8.324597900390625,-0.00470733642578125,-0.009604871273040771,-0.0031132251024246216
1761333588158296800,8.343296875,0.00223541259765625,0.000030338764190673828,-0.00542081892490387
1761333588176995800,8.361995849609375,0.0022783279418945312,-0.00016832351684570312,0.01329202950000763
1761333588195694800,8.38069482421875,-0.0025453567504882812,0.004621326923370361,-0.00121346116065979
1761333588214393900,8.399393798828125,-0.000194549560546875,0.00006586313247680664,-0.015443950891494751
1761333588233092600,8.418092529296874,-0.004855155944824219,-0.009305596351623535,-0.012644141912460327
1761333588251791600,8.43679150390625,0.007030487060546875,0.0026906728744506836,-0.014956459403038025
1761333588270490600,8.45549072265625,0.011384010314941406,0.00014591217041015625,0.004071623086929321
1761333588289189600,8.474189697265626,0.008923530578613281,-0.009415149688720703,-0.007691726088523865
1761333588307888600,8.492888671875,0.006117820739746094,0.00022780895233154297,-0.004927679896354675
1761333588326587600,8.511587646484376,0.001132965087890625,0.014280855655670166,-0.002528563141822815
1761333588345286700,8.53028662109375,0.00353240966796875,-0.012027084827423096,-0.0025418102741241455
1761333588363985700,8.548985595703124,0.008008003234863281,-0.009583055973052979,0.004535883665084839
1761333588382684700,8.5676845703125,-0.011166572570800781,0.007178962230682373,0.011438146233558655
1761333588401383400,8.586383544921874,-0.0036973953247070312,-0.004824697971343994,-0.02171584963798523
1761333588420082400,8.60508251953125,-0.02005290985107422,-0.009121119976043701,-0.004770293831825256
1761333588438781400,8.623781494140625,0.0014705657958984375,-0.009132683277130127,0.0020911693572998047
1761333588457480400,8.64248046875,-0.012385368347167969,0.014477133750915527,-0.004839733242988586
1761333588476179500,8.661179443359375,-0.0029172897338867188,-0.004487276077270508,0.0021941661834716797
1761333588494878500,8.67987841796875,-0.0029354095458984375,-0.0045250654220581055,0.004324018955230713
1761333588513577500,8.698577392578125,-0.005306243896484375,-0.018837392330169678,-0.0030243247747421265
1761333588532276200,8.717276123046876,0.008916854858398438,-0.004724621772766113,0.006875574588775635
1761333588550975500,8.7359755859375,0.01616191864013672,-0.002510368824005127,0.004653364419937134
1761333588569674200,8.75467431640625,-0.0004425048828125,-0.009968161582946777,0.011851519346237183
1761333588588373200,8.773373291015625,0.0015048980712890625,0.008429288864135742,-0.025535523891448975
1761333588607072300,8.792072265625,0.0016937255859375,0.0013537406921386719,0.017555683851242065
1761333588625771300,8.810771240234375,-0.010172843933105469,-0.005660653114318848,0.007548794150352478
1761333588644470300,8.82947021484375,-0.0007829666137695312,0.013302981853485107,0.009736105799674988
1761333588663169300,8.848169189453126,-0.0031948089599609375,0.010870277881622314,0.004676759243011475
1761333588681868300,8.866868408203125,0.0037250518798828125,-0.008148133754730225,0.0021891742944717407
1761333588700567300,8.8855673828125,0.01772308349609375,-0.0033463239669799805,0.004138514399528503
1761333588719266000,8.90426611328125,-0.008274078369140625,-0.014997124671936035,-0.010179609060287476
1761333588737965300,8.92296533203125,0.0010538101196289062,-0.007441401481628418,0.004497140645980835
1761333588756664000,8.9416640625,0.017492294311523438,-0.005134940147399902,-0.012042805552482605
1761333588775363000,8.960363037109374,-0.013593673706054688,-0.0004177689552307129,0.018403008580207825
1761333588794062000,8.97906201171875,-0.0036973953247070312,-0.009776830673217773,-0.005627632141113281
1761333588812761000,8.997760986328124,-0.01580810546875,0.006833016872406006,0.003989711403846741
1761333588831460000,9.016460205078126,0.0031957626342773438,-0.014896273612976074,0.01624302566051483
1761333588850159000,9.0351591796875,-0.0012454986572265625,0.001337587833404541,-0.011733487248420715
1761333588868858000,9.053858154296876,0.0033931732177734375,-0.005876064300537109,-0.006673082709312439
1761333588887556900,9.072556884765625,0.0011320114135742188,-0.00603795051574707,0.002727225422859192
1761333588906256000,9.091255859375,0.060423851013183594,-0.010575056076049805,0.007178649306297302
1761333588924955000,9.109954833984375,0.008530616760253906,-0.014653265476226807,-0.004471912980079651
1761333588943654000,9.12865380859375,-0.012467384338378906,0.00022685527801513672,0.011878952383995056
1761333588962353000,9.147352783203125,0.008799552917480469,0.0003864169120788574,0.0020730942487716675
1761333588981052000,9.166052001953124,0.0042266845703125,0.009967386722564697,-0.010063812136650085
1761333588999751000,9.1847509765625,-0.010111808776855469,-0.011483252048492432,0.011270031332969666
1761333589018450000,9.203449951171875,0.004017829895019531,0.0027889013290405273,-0.0032838135957717896
1761333589037149000,9.22214892578125,-0.0006284713745117188,-0.006700396537780762,0.020181939005851746
1761333589055847700,9.24084765625,0.013388633728027344,-0.0018985271453857422,-0.010974153876304626
1761333589074546700,9.259546630859376,0.013337135314941406,0.0029076337814331055,-0.001332610845565796
1761333589093245700,9.27824560546875,0.008542060852050781,0.026089131832122803,-0.008280456066131592
1761333589111944700,9.29694482421875,0.01567363739013672,-0.005316376686096191,-0.003558129072189331
1761333589130643700,9.315643798828125,0.013199806213378906,0.018223881721496582,-0.0033726394176483154
1761333589149342700,9.3343427734375,0.0036687850952148438,0.020414352416992188,-0.015094056725502014
1761333589168041700,9.353041748046875,0.0058650970458984375,-0.0010132193565368652,0.0019346177577972412
1761333589186740500,9.371740478515624,0.0010099411010742188,-0.003842949867248535,0.009295880794525146
1761333589205439700,9.390439697265625,-0.020158767700195312,-0.013330459594726562,-0.01428656280040741
1761333589224138800,9.409138671875,0.0061588287353515625,0.010200083255767822,-0.00474974513053894
1761333589242837500,9.42783740234375,-0.005602836608886719,0.0025687217712402344,-0.0022141486406326294
1761333589261536500,9.44653662109375,0.029804229736328125,0.009322583675384521,0.004897579550743103
1761333589280235500,9.465235595703126,-0.0060024261474609375,-0.005128920078277588,-0.004188910126686096
1761333589298934500,9.4839345703125,0.10693645477294922,-0.004878044128417969,0.0263327956199646
1761333589317633500,9.502633544921874,0.029560089111328125,0.004874467849731445,0.0026367604732513428
1761333589336332500,9.52133251953125,-0.023382186889648438,-0.006661117076873779,-0.01166735589504242
1761333589355031600,9.540031494140624,0.00045013427734375,-0.015656888484954834,0.00019012391567230225
1761333589373730600,9.55873046875,0.0005884170532226562,-0.027106523513793945,-0.002575129270553589
1761333589392429600,9.5774296875,0.0003986358642578125,-0.007304847240447998,0.004293695092201233
1761333589411128300,9.59612841796875,-0.0089569091796875,-0.016255557537078857,-0.01005217432975769
1761333589429827300,9.614827392578125,0.0028657913208007812,-0.004155993461608887,-0.005497485399246216
1761333589448526300,9.6335263671875,0.0027341842651367188,0.0005390644073486328,0.01379343867301941
1761333589467225300,9.652225341796875,0.00040340423583984375,0.00771641731262207,-0.009792521595954895
1761333589485924400,9.67092431640625,0.005173683166503906,-0.010852575302124023,-0.007354244589805603
1761333589504623400,9.689623291015625,-0.0021371841430664062,0.005657851696014404,0.011264070868492126
1761333589523322400,9.708322265625,0.00025272369384765625,-0.006013393402099609,-0.0055942535400390625
1761333589542021400,9.727021484375,-0.0000324249267578125,0.0009707808494567871,-0.0007333755493164062
1761333589560720400,9.745720458984374,0.002208709716796875,-0.0130959153175354,0.001685991883277893
1761333589579419100,9.764419189453125,-0.012251853942871094,0.0036355257034301758,-0.010211408138275146
1761333589598118100,9.7831181640625,0.009253501892089844,-0.008282661437988281,0.006589129567146301
1761333589616817200,9.801817138671876,-0.0026960372924804688,-0.015320777893066406,-0.007761761546134949
1761333589635516200,9.82051611328125,-0.014370918273925781,-0.01282721757888794,0.006423652172088623
1761333589654215200,9.839215087890626,0.006844520568847656,0.003789961338043213,-0.009636417031288147
1761333589672914200,9.8579140625,-0.00032901763916015625,0.006348848342895508,0.004630237817764282
1761333589691613200,9.87661328125,-0.0074520111083984375,0.010854780673980713,-0.004692018032073975
1761333589710312200,9.895312255859375,-0.00010395050048828125,0.012818336486816406,0.016571372747421265
1761333589729011200,9.91401123046875,0.0021381378173828125,0.016794025897979736,-0.004842117428779602
1761333589747710200,9.932710205078125,-0.00009059906005859375,0.011783063411712646,0.011537805199623108
1761333589766409000,9.951408935546874,-0.007107734680175781,-0.004841983318328857,0.015883058309555054
1761333589785108000,9.97010791015625,0.0001811981201171875,0.00012022256851196289,0.010564669966697693
1761333589803807000,9.988806884765625,0.00750732421875,-0.0045642852783203125,0.005863100290298462
1761333589822506000,10.007506103515626,-0.018667221069335938,-0.006649017333984375,0.0012436509132385254
1761333589841205000,10.026205078125,-0.006920814514160156,0.005273222923278809,0.010721325874328613
1761333589859904000,10.044904052734376,0.00021457672119140625,-0.0066193342208862305,-0.001282230019569397
1761333589878603000,10.06360302734375,-0.0185394287109375,0.0028943419456481934,-0.0015556961297988892
1761333589897302000,10.082302001953124,-0.009028434753417969,-0.0017861723899841309,-0.01569308340549469
1761333589916001000,10.1010009765625,0.0027933120727539062,0.00542527437210083,-0.010628342628479004
1761333589934699800,10.11969970703125,0.01913166046142578,0.00029087066650390625,-0.0012739896774291992
1761333589953398800,10.138398681640625,-0.01898956298828125,-0.011305630207061768,0.0009270310401916504
1761333589972097800,10.157097900390625,-0.009259223937988281,-0.004176020622253418,0.005491897463798523
1761333589990796800,10.175796875,0.00511932373046875,0.0005905628204345703,-0.015471279621124268
1761333590009495800,10.194495849609375,-0.0207366943359375,0.007707178592681885,0.005704715847969055
1761333590028194800,10.21319482421875,0.019478797912597656,-0.0025023818016052246,-0.006043791770935059
1761333590046893800,10.231893798828125,-0.004063606262207031,-0.014083683490753174,-0.008251592516899109
1761333590065592800,10.2505927734375,0.007877349853515625,-0.004591166973114014,0.0014452636241912842
1761333590084291800,10.269291748046875,0.01004791259765625,0.007443666458129883,-0.0010914802551269531
1761333590102990600,10.287990478515624,-0.022871971130371094,0.004883229732513428,-0.00099240243434906
1761333590121689600,10.306689697265625,0.012936592102050781,0.00013464689254760742,0.0037490278482437134
1761333590140388600,10.325388671875,0.0011358261108398438,0.004978656768798828,-0.022310107946395874
1761333590159087600,10.344087646484375,-0.01062774658203125,0.009542584419250488,-0.0031527578830718994
1761333590177786600,10.36278662109375,-0.0011453628540039062,-0.014209210872650146,-0.003204450011253357
1761333590196485600,10.381485595703126,0.003993988037109375,-0.0019282698631286621,-0.005790233612060547
1761333590215184600,10.4001845703125,0.006297111511230469,0.0075013041496276855,0.004129394888877869
1761333590233883600,10.418883544921876,0.0041294097900390625,-0.013956427574157715,0.008824199438095093
1761333590252582700,10.437582763671875,0.0041103363037109375,-0.00931328535079956,-0.002948388457298279
1761333590271281700,10.45628173828125,-0.008068084716796875,0.0025783181190490723,-0.0005947649478912354
1761333590289980400,10.47498046875,-0.0030155181884765625,0.005066096782684326,0.0017489194869995117
1761333590308679400,10.493679443359374,-0.012331962585449219,0.011973440647125244,0.008787006139755249
1761333590327378400,10.51237841796875,-0.009728431701660156,0.016635775566101074,0.0040497928857803345
1761333590346077400,10.531077392578124,-0.00482177734375,0.014221251010894775,-0.021951645612716675
1761333590364776400,10.5497763671875,-0.0050201416015625,-0.016507327556610107,0.009140223264694214
1761333590383475500,10.568475341796875,-0.009877204895019531,-0.006575405597686768,0.013584166765213013
1761333590402174500,10.587174560546876,0.0067615509033203125,-0.008594036102294922,-0.007727667689323425
1761333590420873500,10.60587353515625,0.004225730895996094,0.0006701350212097168,0.006351664662361145
1761333590439572500,10.624572509765626,-0.0030164718627929688,0.0008600354194641113,-0.0032721012830734253
1761333590458271200,10.643271240234375,-0.0076236724853515625,0.005654871463775635,0.013029158115386963
1761333590476970200,10.66197021484375,0.02309894561767578,-0.0015659928321838379,0.005824387073516846
1761333590495669200,10.680669189453125,-0.007863044738769531,-0.01096642017364502,0.0010722428560256958
1761333590514368300,10.6993681640625,-0.005246162414550781,0.005836009979248047,0.0011092424392700195
1761333590533067300,10.7180673828125,0.0042209625244140625,0.010410904884338379,-0.0035817474126815796
1761333590551766300,10.736766357421875,-0.014664649963378906,0.0057364702224731445,0.0038211196660995483
1761333590570465300,10.75546533203125,-0.0027284622192382812,-0.013215303421020508,0.008378714323043823
1761333590589164300,10.774164306640625,-0.005146026611328125,0.008130848407745361,-0.008120357990264893
1761333590607863300,10.79286328125,0.011418342590332031,-0.01117318868637085,-0.0059716105461120605
1761333590626562000,10.81156201171875,0.0042209625244140625,0.015006005764007568,0.00577150285243988
1761333590645261000,10.830260986328126,-0.0051708221435546875,-0.02052760124206543,0.015016362071037292
1761333590663960000,10.8489599609375,0.0065288543701171875,-0.0036888718605041504,0.002942323684692383
1761333590682659000,10.8676591796875,0.013491630554199219,0.008249640464782715,0.007727116346359253
1761333590701358000,10.886358154296875,-0.04360771179199219,0.0028352737426757812,-0.022570714354515076
1761333590720057000,10.90505712890625,0.040221214294433594,-0.006493330001831055,0.02069026231765747
1761333590738756000,10.923756103515625,-0.05523109436035156,-0.010762333869934082,-0.015467211604118347
1761333590757455000,10.942455078125,0.01878833770751953,-0.008180499076843262,-0.008336320519447327
1761333590776154000,10.961154052734376,-0.019217491149902344,0.008642494678497314,0.008023768663406372
1761333590794853000,10.97985302734375,0.0022001266479492188,0.025237321853637695,0.0032635629177093506
1761333590813551900,10.9985517578125,0.006793022155761719,0.00799793004989624,-0.008704066276550293
1761333590832251100,11.017251220703125,-0.0026092529296875,-0.010817945003509521,0.005780637264251709
1761333590850950000,11.035949951171874,0.006728172302246094,0.0032873153686523438,-0.010637044906616211
1761333590869649000,11.05464892578125,-0.0027103424072265625,-0.0014261603355407715,-0.0010410994291305542
1761333590888348000,11.073347900390624,0.00196075439453125,-0.015400469303131104,0.013094395399093628
1761333590907047000,11.092046875,0.00201416015625,0.01525026559829712,-0.008230194449424744
1761333590925746000,11.110745849609375,0.0019464492797851562,0.005672037601470947,0.010735094547271729
1761333590944445000,11.12944482421875,0.006785392761230469,-0.013317644596099854,0.010497882962226868
1761333590963144000,11.14814404296875,-0.0005731582641601562,-0.008476734161376953,-0.013092860579490662
1761333590981843000,11.166843017578126,-0.009962081909179688,0.0009467005729675293,-0.008290871977806091
1761333591000542000,11.1855419921875,0.011386871337890625,0.010310649871826172,0.013291507959365845
1761333591019240700,11.20424072265625,-0.012281417846679688,-0.009063720703125,-0.005901038646697998
1761333591037939700,11.222939697265625,0.0065155029296875,0.00998079776763916,-0.00586584210395813
1761333591056638700,11.241638671875,0.0017070770263671875,-0.004293918609619141,-0.0008752793073654175
1761333591075337700,11.260337646484375,-0.017286300659179688,0.0027573108673095703,0.006029635667800903
1761333591094036700,11.27903662109375,-0.012356758117675781,-0.018542170524597168,0.01041547954082489
1761333591112735700,11.29773583984375,0.0020122528076171875,0.02165067195892334,0.0009697824716567993
1761333591131434800,11.316434814453125,-0.007351875305175781,0.005264759063720703,-0.006163284182548523
1761333591150133800,11.3351337890625,-0.00240325927734375,-0.009004652500152588,-0.003746315836906433
1761333591168832800,11.353832763671875,-0.00934600830078125,-0.008706331253051758,0.006077036261558533
1761333591187531800,11.37253173828125,-0.0022916793823242188,-0.010847806930541992,0.007933229207992554
1761333591206230500,11.39123046875,0.0046863555908203125,-0.008166909217834473,0.021987363696098328
1761333591224929500,11.409929443359376,0.0024137496948242188,-0.005503654479980469,0.0003372281789779663
1761333591243628500,11.428628662109375,0.0000171661376953125,0.008759021759033203,0.002702564001083374
1761333591262327600,11.44732763671875,-0.011826515197753906,-0.03133600950241089,0.0001665055751800537
1761333591281026600,11.466026611328125,-0.006846427917480469,-0.011846482753753662,0.004883170127868652
1761333591299725600,11.4847255859375,0.007342338562011719,0.009864270687103271,-0.00002942979335784912
1761333591318424600,11.503424560546875,0.007053375244140625,-0.008798301219940186,0.004821643233299255
1761333591337123600,11.52212353515625,-0.004782676696777344,-0.006342053413391113,0.0047747790813446045
1761333591355822600,11.540822509765626,0.011456489562988281,-0.003796398639678955,-0.014144524931907654
1761333591374521300,11.559521240234375,-0.000453948974609375,0.0055435895919799805,-0.011389195919036865
1761333591393220600,11.578220703125,-0.0005559921264648438,-0.008655250072479248,0.0006868243217468262
1761333591411919400,11.59691943359375,-0.0005054473876953125,0.00568467378616333,0.005440831184387207
1761333591430618400,11.615618408203124,0.0064907073974609375,0.01246023178100586,0.007802337408065796
1761333591449317400,11.6343173828125,-0.012501716613769531,0.0027438998222351074,0.0006979107856750488
1761333591468016400,11.653016357421874,-0.023242950439453125,-0.01854264736175537,0.005086034536361694
1761333591486715400,11.67171533203125,0.07802581787109375,0.007792532444000244,-0.006666406989097595
1761333591505414400,11.690414306640625,-0.04860210418701172,0.0076844096183776855,0.007658034563064575
1761333591524113400,11.709113525390626,0.025740623474121094,0.010073840618133545,0.012351736426353455
1761333591542812200,11.727812255859375,-0.010290145874023438,-0.008949518203735352,-0.006650850176811218
1761333591561511400,11.746511474609376,-0.0006618499755859375,0.005283832550048828,-0.006629198789596558
1761333591580210200,11.765210205078125,-0.010289192199707031,-0.003988742828369141,-0.018125280737876892
1761333591598909200,11.7839091796875,-0.014534950256347656,0.0029373764991760254,-0.006326138973236084
1761333591617608200,11.802608154296875,0.00923919677734375,0.011526823043823242,-0.00910542905330658
1761333591636307200,11.82130712890625,0.13257789611816406,-0.00983428955078125,0.005174428224563599
1761333591655006200,11.840006103515625,-0.049231529235839844,-0.031171560287475586,0.002913340926170349
1761333591673705200,11.858705322265624,0.009198188781738281,0.00953066349029541,0.003263711929321289
1761333591692404200,11.877404296875,-0.033740997314453125,-0.01891040802001953,-0.003697499632835388
