time,seconds_elapsed,z,y,x
1761333579884005600,0.069005615234375,0.009773836471140385,-0.014660755172371864,0.001221729558892548
1761333579902704600,0.08770458984375,0.010384701192378998,-0.014660755172371864,0.002443459117785096
1761333579921403600,0.106403564453125,0.009773836471140385,-0.01588248461484909,0.002443459117785096
1761333579940102400,0.125102294921875,0.010384701192378998,-0.01588248461484909,0.002443459117785096
1761333579958801400,0.143801513671875,0.010384701192378998,-0.014660755172371864,0.001832594396546483
1761333579977500400,0.16250048828125,0.010995565913617611,-0.015271619893610477,0.001221729558892548
1761333579996199400,0.181199462890625,0.010384701192378998,-0.015271619893610477,0.001832594396546483
1761333580014898400,0.1998984375,0.009773836471140385,-0.014660755172371864,0.001832594396546483
1761333580033597200,0.21859716796875,0.009773836471140385,-0.014660755172371864,0.001221729558892548
1761333580052296200,0.237296142578125,0.009773836471140385,-0.015271619893610477,0.001221729558892548
1761333580070995200,0.2559951171875,0.010995565913617611,-0.015271619893610477,0.001221729558892548
1761333580089694200,0.274694091796875,0.010995565913617611,-0.014660755172371864,0.000610864779446274
1761333580108393200,0.293393310546875,0.010995565913617611,-0.014660755172371864,0.001221729558892548
1761333580127092000,0.312092041015625,0.010995565913617611,-0.014660755172371864,0.000610864779446274
1761333580145791000,0.330791015625,0.010995565913617611,-0.014660755172371864,0.001221729558892548
1761333580164490000,0.349489990234375,0.010384701192378998,-0.01588248461484909,0.001221729558892548
1761333580183189000,0.36818896484375,0.010995565913617611,-0.015271619893610477,0.002443459117785096
1761333580201888000,0.386887939453125,0.010995565913617611,-0.01588248461484909,0.001832594396546483
1761333580220586800,0.405586669921875,0.010995565913617611,-0.01588248461484909,0.001221729558892548
1761333580239285800,0.42428564453125,0.009773836471140385,-0.01588248461484909,0.002443459117785096
1761333580257984800,0.44298486328125,0.010995565913617611,-0.01588248461484909,0.002443459117785096
1761333580276683500,0.46168359375,0.010384701192378998,-0.014660755172371864,0.002443459117785096
1761333580295382500,0.480382568359375,0.009773836471140385,-0.014660755172371864,0.001832594396546483
1761333580314081500,0.49908154296875,0.009773836471140385,-0.015271619893610477,0.001832594396546483
1761333580332780500,0.517780517578125,0.010995565913617611,-0.01588248461484909,0.001832594396546483
1761333580351479600,0.5364794921875,0.010384701192378998,-0.01588248461484909,0.002443459117785096
1761333580370178300,0.55517822265625,0.009773836471140385,-0.014660755172371864,0.002443459117785096
1761333580388877300,0.573877197265625,0.009773836471140385,-0.015271619893610477,0.001832594396546483
1761333580407576300,0.592576416015625,0.009773836471140385,-0.014660755172371864,0.001832594396546483
1761333580426275300,0.611275390625,0.010995565913617611,-0.014660755172371864,0.002443459117785096
1761333580444974300,0.629974365234375,0.010995565913617611,-0.015271619893610477,0.001832594396546483
1761333580463673000,0.648673095703125,0.010384701192378998,-0.01588248461484909,0.002443459117785096
1761333580482372000,0.6673720703125,0.010995565913617611,-0.014660755172371864,0.001832594396546483
1761333580501071000,0.686071044921875,0.010384701192378998,-0.01588248461484909,0.001832594396546483
1761333580519770000,0.70477001953125,0.009773836471140385,-0.01588248461484909,0.002443459117785096
1761333580538469000,0.72346923828125,0.010995565913617611,-0.01588248461484909,0.001832594396546483
1761333580557168000,0.742168212890625,0.009773836471140385,-0.01588248461484909,0.001832594396546483
1761333580575867000,0.760866943359375,0.009162971749901772,-0.01588248461484909,0.001832594396546483
1761333580594566000,0.77956591796875,0.010384701192378998,-0.014660755172371864,0.002443459117785096
1761333580613265000,0.798264892578125,0.010384701192378998,-0.014660755172371864,0.001832594396546483
1761333580631963600,0.816963623046875,0.010995565913617611,-0.014660755172371864,0.002443459117785096
1761333580650662700,0.83566259765625,0.010995565913617611,-0.015271619893610477,0.001832594396546483
1761333580669361700,0.854361572265625,0.010995565913617611,-0.015271619893610477,0.002443459117785096
1761333580688060700,0.873060791015625,0.010384701192378998,-0.015271619893610477,0.002443459117785096
1761333580706759700,0.891759765625,0.010995565913617611,-0.01588248461484909,0.001832594396546483
1761333580725458400,0.91045849609375,0.010384701192378998,-0.01588248461484909,0.001832594396546483
1761333580744157400,0.929157470703125,0.010995565913617611,-0.014660755172371864,0.002443459117785096
1761333580762856400,0.9478564453125,0.010384701192378998,-0.014660755172371864,0.002443459117785096
1761333580781555500,0.966555419921875,0.009773836471140385,-0.01588248461484909,0.001221729558892548
1761333580800254500,0.98525439453125,0.010384701192378998,-0.01588248461484909,0.002443459117785096
1761333580818953200,1.003953125,0.010384701192378998,-0.015271619893610477,0.002443459117785096
1761333580837652200,1.02265234375,0.010995565913617611,-0.015271619893610477,0.001832594396546483
1761333580856351200,1.041351318359375,0.009773836471140385,-0.01588248461484909,0.002443459117785096
1761333580875050200,1.06005029296875,0.010384701192378998,-0.015271619893610477,0.002443459117785096
1761333580893749200,1.078749267578125,0.010995565913617611,-0.01588248461484909,0.002443459117785096
1761333580912448000,1.097447998046875,0.010384701192378998,-0.01588248461484909,0.001832594396546483
1761333580931147000,1.11614697265625,0.010384701192378998,-0.015271619893610477,0.002443459117785096
1761333580949846000,1.134845947265625,0.010384701192378998,-0.01588248461484909,0.001832594396546483
1761333580968544800,1.153544677734375,0.010995565913617611,-0.015271619893610477,0.001832594396546483
1761333580987243800,1.172243896484375,0.009773836471140385,-0.014660755172371864,0.002443459117785096
1761333581005942800,1.19094287109375,0.010384701192378998,-0.01588248461484909,0.002443459117785096
1761333581024641800,1.209641845703125,0.009773836471140385,-0.01588248461484909,0.001832594396546483
1761333581043340800,1.2283408203125,0.010995565913617611,-0.015271619893610477,0.002443459117785096
1761333581062039600,1.24703955078125,0.009773836471140385,-0.01588248461484909,0.001832594396546483
1761333581080738600,1.265738525390625,0.010995565913617611,-0.015271619893610477,0.001832594396546483
1761333581099437600,1.2844375,0.009773836471140385,-0.015271619893610477,0.002443459117785096
1761333581118136600,1.303136474609375,0.010995565913617611,-0.01588248461484909,0.002443459117785096
1761333581136835600,1.321835693359375,0.010384701192378998,-0.01588248461484909,0.002443459117785096
1761333581155534300,1.340534423828125,0.010995565913617611,-0.015271619893610477,0.001832594396546483
1761333581174233300,1.3592333984375,0.009773836471140385,-0.01649334840476513,0.001221729558892548
1761333581192932400,1.377932373046875,0.010384701192378998,-0.015271619893610477,0.001832594396546483
1761333581211631400,1.39663134765625,0.010384701192378998,-0.01588248461484909,0.001832594396546483
1761333581230330400,1.415330322265625,0.010384701192378998,-0.01588248461484909,0.002443459117785096
1761333581249029400,1.434029296875,0.010384701192378998,-0.015271619893610477,0.001832594396546483
1761333581267728100,1.45272802734375,0.010384701192378998,-0.015271619893610477,0.002443459117785096
1761333581286427100,1.47142724609375,0.009773836471140385,-0.014660755172371864,0.002443459117785096
1761333581305126100,1.490126220703125,0.010995565913617611,-0.01588248461484909,0.001832594396546483
1761333581323825000,1.508824951171875,0.010384701192378998,-0.01588248461484909,0.001832594396546483
1761333581342524000,1.52752392578125,0.010384701192378998,-0.01588248461484909,0.002443459117785096
1761333581361223000,1.546222900390625,0.010384701192378998,-0.01588248461484909,0.002443459117785096
1761333581379922000,1.564921875,0.010384701192378998,-0.014660755172371864,0.002443459117785096
1761333581398621000,1.583620849609375,0.010995565913617611,-0.015271619893610477,0.002443459117785096
1761333581417319700,1.602319580078125,0.011606430634856224,-0.01588248461484909,0.001221729558892548
1761333581436018700,1.621018798828125,0.010995565913617611,-0.015271619893610477,0.002443459117785096
1761333581454717700,1.6397177734375,0.010995565913617611,-0.015271619893610477,0.002443459117785096
1761333581473416700,1.658416748046875,0.010384701192378998,-0.014660755172371864,0.002443459117785096
1761333581492115700,1.67711572265625,0.010384701192378998,-0.01588248461484909,0.002443459117785096
1761333581510814500,1.695814453125,0.010384701192378998,-0.015271619893610477,0.002443459117785096
1761333581529513500,1.714513427734375,0.009773836471140385,-0.01588248461484909,0.001832594396546483
1761333581548212500,1.73321240234375,0.010995565913617611,-0.014660755172371864,0.001832594396546483
1761333581566911500,1.751911376953125,0.009773836471140385,-0.014660755172371864,0.002443459117785096
1761333581585610500,1.770610595703125,0.010384701192378998,-0.015271619893610477,0.001832594396546483
1761333581604309200,1.789309326171875,0.010995565913617611,-0.01588248461484909,0.001832594396546483
1761333581623008300,1.80800830078125,0.010384701192378998,-0.015271619893610477,0.001221729558892548
1761333581641707300,1.826707275390625,0.009162971749901772,-0.01588248461484909,0.002443459117785096
1761333581660406300,1.84540625,0.010384701192378998,-0.014660755172371864,0.001221729558892548
1761333581679105300,1.864105224609375,0.010384701192378998,-0.015271619893610477,0.002443459117785096
1761333581697804000,1.882803955078125,0.011606430634856224,-0.01588248461484909,0.002443459117785096
1761333581716503000,1.9015029296875,0.010995565913617611,-0.015271619893610477,0.001832594396546483
1761333581735202000,1.9202021484375,0.009773836471140385,-0.015271619893610477,0.001832594396546483
1761333581753901000,1.938901123046875,0.010384701192378998,-0.015271619893610477,0.001832594396546483
1761333581772599800,1.957599853515625,0.010384701192378998,-0.014660755172371864,0.001832594396546483
1761333581791298800,1.976298828125,0.010995565913617611,-0.015271619893610477,0.002443459117785096
1761333581809997800,1.994997802734375,0.009773836471140385,-0.015271619893610477,0.001832594396546483
1761333581828696800,2.01369677734375,0.010384701192378998,-0.01588248461484909,0.001832594396546483
1761333581847395600,2.0323955078125,0.010384701192378998,-0.015271619893610477,0.002443459117785096
1761333581866094600,2.051094482421875,0.010995565913617611,-0.01588248461484909,0.001832594396546483
1761333581884793600,2.069793701171875,0.010995565913617611,-0.015271619893610477,0.001221729558892548
1761333581903492600,2.08849267578125,0.010384701192378998,-0.01588248461484909,0.002443459117785096
1761333581922191600,2.107191650390625,0.010384701192378998,-0.014660755172371864,0.002443459117785096
1761333581940890600,2.125890625,0.010384701192378998,-0.015271619893610477,0.002443459117785096
1761333581959589400,2.14458935546875,0.012217295356094837,-0.015271619893610477,0.001832594396546483
1761333581978288400,2.163288330078125,0.010995565913617611,-0.01588248461484909,0.002443459117785096
1761333581996987400,2.1819873046875,0.010995565913617611,-0.015271619893610477,0.002443459117785096
1761333582015686400,2.200686279296875,0.010384701192378998,-0.015271619893610477,0.002443459117785096
1761333582034385400,2.219385498046875,0.010384701192378998,-0.014660755172371864,0.002443459117785096
1761333582053084200,2.238084228515625,0.009773836471140385,-0.015271619893610477,0.002443459117785096
1761333582071783200,2.256783203125,0.009773836471140385,-0.014660755172371864,0.001832594396546483
1761333582090482200,2.275482177734375,0.010384701192378998,-0.014660755172371864,0.002443459117785096
1761333582109181200,2.29418115234375,0.009773836471140385,-0.015271619893610477,0.001832594396546483
1761333582127880200,2.312880126953125,0.010384701192378998,-0.01588248461484909,0.002443459117785096
1761333582146579000,2.331578857421875,0.010995565913617611,-0.014660755172371864,0.001832594396546483
1761333582165278000,2.35027783203125,0.009773836471140385,-0.01588248461484909,0.001832594396546483
1761333582183977000,2.36897705078125,0.010995565913617611,-0.015271619893610477,0.001221729558892548
1761333582202676000,2.387676025390625,0.010995565913617611,-0.015271619893610477,0.001221729558892548
1761333582221374700,2.406374755859375,0.010384701192378998,-0.015271619893610477,0.002443459117785096
1761333582240073700,2.42507373046875,0.010384701192378998,-0.01588248461484909,0.002443459117785096
1761333582258772700,2.443772705078125,0.010995565913617611,-0.015271619893610477,0.001832594396546483
1761333582277471700,2.4624716796875,0.010384701192378998,-0.015271619893610477,0.002443459117785096
1761333582296170500,2.48117041015625,0.010995565913617611,-0.01588248461484909,0.001832594396546483
1761333582314869500,2.499869384765625,0.010384701192378998,-0.015271619893610477,0.002443459117785096
1761333582333568500,2.518568603515625,0.011606430634856224,-0.014660755172371864,0.002443459117785096
1761333582352267500,2.537267578125,0.010995565913617611,-0.015271619893610477,0.001832594396546483
1761333582370966500,2.555966552734375,0.010995565913617611,-0.015271619893610477,0.001832594396546483
1761333582389665300,2.574665283203125,0.010384701192378998,-0.015271619893610477,0.001221729558892548
1761333582408364300,2.5933642578125,0.010384701192378998,-0.015271619893610477,0.001832594396546483
1761333582427063300,2.612063232421875,0.010384701192378998,-0.015271619893610477,0.001832594396546483
1761333582445762300,2.63076220703125,0.010995565913617611,-0.01588248461484909,0.002443459117785096
1761333582464461300,2.64946142578125,0.010384701192378998,-0.014660755172371864,0.001832594396546483
1761333582483160000,2.66816015625,0.010384701192378998,-0.015271619893610477,0.002443459117785096
1761333582501859000,2.686859130859375,0.010384701192378998,-0.014660755172371864,0.001221729558892548
1761333582520558000,2.70555810546875,0.010384701192378998,-0.01588248461484909,0.001221729558892548
1761333582539257000,2.724257080078125,0.010995565913617611,-0.01588248461484909,0.002443459117785096
1761333582557956000,2.7429560546875,0.010995565913617611,-0.015271619893610477,0.002443459117785096
1761333582576655000,2.761655029296875,0.010384701192378998,-0.01588248461484909,0.002443459117785096
1761333582595353900,2.780353759765625,0.010384701192378998,-0.014660755172371864,0.001832594396546483
1761333582614052900,2.799052978515625,0.010995565913617611,-0.014660755172371864,0.002443459117785096
1761333582632751900,2.817751953125,0.010384701192378998,-0.015271619893610477,0.001832594396546483
1761333582651451000,2.836450927734375,0.010384701192378998,-0.015271619893610477,0.002443459117785096
1761333582670150000,2.85514990234375,0.010995565913617611,-0.015271619893610477,0.001832594396546483
1761333582688848600,2.8738486328125,0.009773836471140385,-0.015271619893610477,0.001832594396546483
1761333582707547600,2.892547607421875,0.010384701192378998,-0.01588248461484909,0.002443459117785096
1761333582726246700,2.91124658203125,0.010995565913617611,-0.015271619893610477,0.001832594396546483
1761333582744945700,2.929945556640625,0.010384701192378998,-0.01588248461484909,0.001832594396546483
1761333582763644700,2.948644775390625,0.009773836471140385,-0.01588248461484909,0.001221729558892548
1761333582782343400,2.967343505859375,0.010384701192378998,-0.01588248461484909,0.001221729558892548
1761333582801042400,2.98604248046875,0.010995565913617611,-0.014660755172371864,0.001832594396546483
1761333582819741400,3.004741455078125,0.010384701192378998,-0.015271619893610477,0.002443459117785096
1761333582838440400,3.0234404296875,0.009773836471140385,-0.01588248461484909,0.001832594396546483
1761333582857139500,3.042139404296875,0.010384701192378998,-0.014660755172371864,0.002443459117785096
1761333582875838200,3.060838134765625,0.009773836471140385,-0.014660755172371864,0.002443459117785096
1761333582894537200,3.079537109375,0.009773836471140385,-0.014660755172371864,0.002443459117785096
1761333582913236200,3.098236328125,0.009773836471140385,-0.014660755172371864,0.001221729558892548
1761333582931935200,3.116935302734375,0.010384701192378998,-0.01588248461484909,0.001221729558892548
1761333582950634200,3.13563427734375,0.009773836471140385,-0.015271619893610477,0.002443459117785096
1761333582969333000,3.1543330078125,0.010384701192378998,-0.014660755172371864,0.001832594396546483
1761333582988032000,3.173031982421875,0.010995565913617611,-0.015271619893610477,0.002443459117785096
1761333583006731000,3.19173095703125,0.010995565913617611,-0.015271619893610477,0.002443459117785096
1761333583025430000,3.210429931640625,0.010995565913617611,-0.01588248461484909,0.001832594396546483
1761333583044129000,3.22912890625,0.010384701192378998,-0.014660755172371864,0.002443459117785096
1761333583062827800,3.247827880859375,0.010995565913617611,-0.015271619893610477,0.002443459117785096
1761333583081526800,3.26652685546875,0.010384701192378998,-0.014660755172371864,0.002443459117785096
1761333583100225800,3.285225830078125,0.010995565913617611,-0.015271619893610477,0.001832594396546483
1761333583118924500,3.303924560546875,0.010384701192378998,-0.015271619893610477,0.001832594396546483
1761333583137623600,3.32262353515625,0.011606430634856224,-0.015271619893610477,0.002443459117785096
1761333583156322600,3.341322509765625,0.010384701192378998,-0.01588248461484909,0.002443459117785096
1761333583175021600,3.360021484375,0.010995565913617611,-0.014049889519810677,0.002443459117785096
1761333583193720600,3.378720458984375,0.009773836471140385,-0.015271619893610477,0.001221729558892548
1761333583212419600,3.397419677734375,0.010384701192378998,-0.014660755172371864,0.001832594396546483
1761333583231118300,3.416118408203125,0.009773836471140385,-0.014660755172371864,0.001832594396546483
1761333583249817300,3.4348173828125,0.010384701192378998,-0.014660755172371864,0.002443459117785096
1761333583268516400,3.453516357421875,0.010995565913617611,-0.014660755172371864,0.001221729558892548
1761333583287215400,3.47221533203125,0.010384701192378998,-0.015271619893610477,0.001832594396546483
1761333583305914400,3.490914306640625,0.010384701192378998,-0.01588248461484909,0.002443459117785096
1761333583324613000,3.509613037109375,0.010384701192378998,-0.01588248461484909,0.002443459117785096
1761333583343312100,3.52831201171875,0.010384701192378998,-0.014660755172371864,0.002443459117785096
1761333583362011100,3.54701123046875,0.010995565913617611,-0.01588248461484909,0.001832594396546483
1761333583380710100,3.565710205078125,0.010995565913617611,-0.01588248461484909,0.002443459117785096
1761333583399409200,3.5844091796875,0.010384701192378998,-0.015271619893610477,0.002443459117785096
1761333583418108000,3.60310791015625,0.010384701192378998,-0.01588248461484909,0.001832594396546483
1761333583436807000,3.621806884765625,0.010384701192378998,-0.01588248461484909,0.001221729558892548
1761333583455506000,3.640505859375,0.010995565913617611,-0.014660755172371864,0.002443459117785096
1761333583474205000,3.659204833984375,0.010384701192378998,-0.015271619893610477,0.001221729558892548
1761333583492904000,3.677904052734375,0.010384701192378998,-0.014660755172371864,0.002443459117785096
1761333583511602700,3.696602783203125,0.010384701192378998,-0.015271619893610477,0.002443459117785096
1761333583530301700,3.7153017578125,0.009773836471140385,-0.014660755172371864,0.001832594396546483
1761333583549000700,3.734000732421875,0.010384701192378998,-0.015271619893610477,0.002443459117785096
1761333583567699700,3.75269970703125,0.010995565913617611,-0.015271619893610477,0.001832594396546483
1761333583586398700,3.771398681640625,0.010384701192378998,-0.015271619893610477,0.001832594396546483
1761333583605097500,3.790097412109375,0.010995565913617611,-0.015271619893610477,0.001221729558892548
1761333583623796500,3.80879638671875,0.010995565913617611,-0.014660755172371864,0.002443459117785096
1761333583642495500,3.82749560546875,0.010384701192378998,-0.01588248461484909,0.001832594396546483
1761333583661194500,3.846194580078125,0.009773836471140385,-0.01588248461484909,0.001832594396546483
1761333583679893500,3.8648935546875,0.010995565913617611,-0.015271619893610477,0.002443459117785096
1761333583698592500,3.883592529296875,0.010995565913617611,-0.015271619893610477,0.001832594396546483
1761333583717291300,3.902291259765625,0.010384701192378998,-0.014660755172371864,0.001832594396546483
1761333583735990300,3.920990234375,0.010384701192378998,-0.015271619893610477,0.001832594396546483
1761333583754689300,3.939689208984375,0.011606430634856224,-0.015271619893610477,0.001832594396546483
1761333583773388300,3.95838818359375,0.010995565913617611,-0.01588248461484909,0.002443459117785096
1761333583792087300,3.97708740234375,0.010384701192378998,-0.015271619893610477,0.002443459117785096
1761333583810786300,3.995786376953125,0.010995565913617611,-0.014660755172371864,0.002443459117785096
1761333583829485300,4.0144853515625,0.010384701192378998,-0.014660755172371864,0.002443459117785096
1761333583848184000,4.03318408203125,0.010995565913617611,-0.01588248461484909,0.001832594396546483
1761333583866883000,4.051883056640625,0.010995565913617611,-0.01588248461484909,0.002443459117785096
1761333583885582000,4.07058203125,0.011606430634856224,-0.015271619893610477,0.001832594396546483
1761333583904281000,4.089281005859375,0.010995565913617611,-0.01588248461484909,0.002443459117785096
1761333583922980000,4.10797998046875,0.009773836471140385,-0.015271619893610477,0.001832594396546483
1761333583941678800,4.126678955078125,0.010995565913617611,-0.015271619893610477,0.002443459117785096
1761333583960377900,4.1453779296875,0.009773836471140385,-0.015271619893610477,0.002443459117785096
1761333583979076900,4.164076904296875,0.010995565913617611,-0.015271619893610477,0.002443459117785096
1761333583997775600,4.182775634765625,0.010384701192378998,-0.015271619893610477,0.002443459117785096
1761333584016475000,4.201474853515625,0.010384701192378998,-0.014660755172371864,0.001832594396546483
1761333584035173600,4.220173583984375,0.010995565913617611,-0.015271619893610477,0.002443459117785096
1761333584053872600,4.23887255859375,0.010995565913617611,-0.015271619893610477,0.001832594396546483
1761333584072571600,4.257571533203125,0.010384701192378998,-0.015271619893610477,0.001832594396546483
1761333584091270700,4.276270751953125,0.009773836471140385,-0.01588248461484909,0.001832594396546483
1761333584109969700,4.2949697265625,0.010995565913617611,-0.01588248461484909,0.002443459117785096
1761333584128668400,4.31366845703125,0.010384701192378998,-0.015271619893610477,0.001832594396546483
1761333584147367400,4.332367431640625,0.010384701192378998,-0.014660755172371864,0.002443459117785096
1761333584166066400,4.35106640625,0.009773836471140385,-0.015271619893610477,0.001832594396546483
1761333584184765400,4.369765380859375,0.010384701192378998,-0.015271619893610477,0.002443459117785096
1761333584203464400,4.38846435546875,0.010995565913617611,-0.01588248461484909,0.002443459117785096
1761333584222163200,4.4071630859375,0.011606430634856224,-0.014660755172371864,0.002443459117785096
1761333584240862200,4.4258623046875,0.010995565913617611,-0.014660755172371864,0.002443459117785096
1761333584259561200,4.444561279296875,0.010995565913617611,-0.01588248461484909,0.001832594396546483
1761333584278260200,4.46326025390625,0.010995565913617611,-0.014660755172371864,0.002443459117785096
1761333584296959200,4.481959228515625,0.009773836471140385,-0.015271619893610477,0.001832594396546483
1761333584315658000,4.500657958984375,0.010384701192378998,-0.015271619893610477,0.001832594396546483
1761333584334357000,4.51935693359375,0.010384701192378998,-0.01588248461484909,0.001832594396546483
1761333584353056000,4.538055908203125,0.010384701192378998,-0.014660755172371864,0.002443459117785096
1761333584371755000,4.556755126953125,0.010384701192378998,-0.015271619893610477,0.001221729558892548
1761333584390454000,4.5754541015625,0.010995565913617611,-0.015271619893610477,0.002443459117785096
1761333584409153000,4.594153076171875,0.009773836471140385,-0.01588248461484909,0.001221729558892548
1761333584427852000,4.61285205078125,0.010384701192378998,-0.015271619893610477,0.002443459117785096
1761333584446551000,4.631551025390625,0.009773836471140385,-0.015271619893610477,0.002443459117785096
1761333584465249800,4.650249755859375,0.010995565913617611,-0.015271619893610477,0.002443459117785096
1761333584483948800,4.66894873046875,0.010995565913617611,-0.01588248461484909,0.001221729558892548
1761333584502647800,4.687647705078125,0.010384701192378998,-0.014660755172371864,0.001832594396546483
1761333584521346800,4.706346923828125,0.009773836471140385,-0.01588248461484909,0.001832594396546483
1761333584540045800,4.7250458984375,0.009773836471140385,-0.01588248461484909,0.002443459117785096
1761333584558744600,4.74374462890625,0.009773836471140385,-0.01588248461484909,0.001832594396546483
1761333584577443600,4.762443603515625,0.010995565913617611,-0.014660755172371864,0.001221729558892548
1761333584596142600,4.781142578125,0.010995565913617611,-0.015271619893610477,0.002443459117785096
1761333584614841600,4.799841552734375,0.010995565913617611,-0.01588248461484909,0.002443459117785096
1761333584633540600,4.81854052734375,0.010995565913617611,-0.01588248461484909,0.002443459117785096
1761333584652239400,4.8372392578125,0.010995565913617611,-0.015271619893610477,0.002443459117785096
1761333584670938400,4.8559384765625,0.010384701192378998,-0.014660755172371864,0.001832594396546483
1761333584689637400,4.874637451171875,0.009773836471140385,-0.014660755172371864,0.002443459117785096
1761333584708336400,4.89333642578125,0.011606430634856224,-0.01588248461484909,0.002443459117785096
1761333584727035400,4.912035400390625,0.010384701192378998,-0.015271619893610477,0.001832594396546483
1761333584745734100,4.930734130859375,0.010995565913617611,-0.01588248461484909,0.001221729558892548
1761333584764433400,4.949433349609375,0.010384701192378998,-0.01649334840476513,0.002443459117785096
1761333584783132200,4.968132080078125,0.010995565913617611,-0.01649334840476513,0.002443459117785096
1761333584801831200,4.9868310546875,0.011606430634856224,-0.014660755172371864,0.002443459117785096
1761333584820530200,5.0055302734375,0.010384701192378998,-0.014660755172371864,0.001832594396546483
1761333584839229200,5.024229248046875,0.010384701192378998,-0.01588248461484909,0.002443459117785096
1761333584857928200,5.04292822265625,0.010384701192378998,-0.014660755172371864,0.002443459117785096
1761333584876627000,5.061626953125,0.010995565913617611,-0.01588248461484909,0.001832594396546483
1761333584895326000,5.080325927734375,0.010995565913617611,-0.014660755172371864,0.001832594396546483
1761333584914025000,5.09902490234375,0.009773836471140385,-0.01588248461484909,0.001221729558892548
1761333584932724000,5.117723876953125,0.010384701192378998,-0.015271619893610477,0.002443459117785096
1761333584951423000,5.136423095703125,0.010995565913617611,-0.015271619893610477,0.001832594396546483
1761333584970122000,5.1551220703125,0.009773836471140385,-0.014660755172371864,0.002443459117785096
1761333584988820700,5.17382080078125,0.010384701192378998,-0.01588248461484909,0.001832594396546483
1761333585007519700,5.192519775390625,0.010384701192378998,-0.014660755172371864,0.002443459117785096
1761333585026218800,5.21121875,0.010995565913617611,-0.015271619893610477,0.001832594396546483
1761333585044917800,5.229917724609375,0.010384701192378998,-0.014660755172371864,0.002443459117785096
1761333585063616800,5.24861669921875,0.010995565913617611,-0.014660755172371864,0.001832594396546483
1761333585082315800,5.267315673828125,0.010384701192378998,-0.015271619893610477,0.001832594396546483
1761333585101014800,5.286014892578125,0.009773836471140385,-0.01588248461484909,0.002443459117785096
1761333585119713500,5.304713623046875,0.010995565913617611,-0.014660755172371864,0.002443459117785096
1761333585138412500,5.32341259765625,0.010995565913617611,-0.015271619893610477,0.002443459117785096
1761333585157111600,5.342111572265625,0.010384701192378998,-0.01588248461484909,0.002443459117785096
1761333585175810600,5.360810546875,0.009773836471140385,-0.015271619893610477,0.002443459117785096
1761333585194509600,5.379509521484375,0.010995565913617611,-0.015271619893610477,0.002443459117785096
1761333585213208300,5.398208251953125,0.010995565913617611,-0.014660755172371864,0.001832594396546483
1761333585231907300,5.4169072265625,0.010384701192378998,-0.015271619893610477,0.002443459117785096
1761333585250606300,5.4356064453125,0.010995565913617611,-0.014660755172371864,0.001832594396546483
1761333585269305300,5.454305419921875,0.009773836471140385,-0.014660755172371864,0.001832594396546483
1761333585288004400,5.47300439453125,0.009773836471140385,-0.015271619893610477,0.002443459117785096
1761333585306703400,5.491703369140625,0.009773836471140385,-0.01588248461484909,0.001221729558892548
1761333585325402400,5.51040234375,0.010995565913617611,-0.014660755172371864,0.001221729558892548
1761333585344101000,5.52910107421875,0.010384701192378998,-0.01588248461484909,0.002443459117785096
1761333585362800000,5.547800048828125,0.010384701192378998,-0.015271619893610477,0.001832594396546483
1761333585381499100,5.5664990234375,0.010995565913617611,-0.015271619893610477,0.001832594396546483
1761333585400198100,5.5851982421875,0.010995565913617611,-0.01588248461484909,0.002443459117785096
1761333585418897200,5.603897216796875,0.010995565913617611,-0.015271619893610477,0.001221729558892548
1761333585437596000,5.622595947265625,0.010995565913617611,-0.01588248461484909,0.002443459117785096
1761333585456295000,5.641294921875,0.010995565913617611,-0.014660755172371864,0.001832594396546483
1761333585474994000,5.659993896484375,0.010995565913617611,-0.015271619893610477,0.002443459117785096
1761333585493693000,5.67869287109375,0.010384701192378998,-0.01588248461484909,0.002443459117785096
1761333585512392000,5.697391845703125,0.010995565913617611,-0.01588248461484909,0.002443459117785096
1761333585531091000,5.716091064453125,0.010995565913617611,-0.01588248461484909,0.002443459117785096
1761333585549790000,5.7347900390625,0.010995565913617611,-0.014660755172371864,0.002443459117785096
1761333585568489000,5.753489013671875,0.010384701192378998,-0.014660755172371864,0.001832594396546483
1761333585587187700,5.772187744140625,0.010995565913617611,-0.01588248461484909,0.002443459117785096
1761333585605886700,5.79088671875,0.010384701192378998,-0.015271619893610477,0.002443459117785096
1761333585624585700,5.809585693359375,0.010384701192378998,-0.014660755172371864,0.002443459117785096
1761333585643284700,5.82828466796875,0.010995565913617611,-0.01649334840476513,0.002443459117785096
1761333585661983700,5.846983642578125,0.010995565913617611,-0.015271619893610477,0.001832594396546483
1761333585680682800,5.865682861328125,0.009773836471140385,-0.015271619893610477,0.001832594396546483
1761333585699381800,5.8843818359375,0.010384701192378998,-0.01588248461484909,0.002443459117785096
1761333585718080500,5.90308056640625,0.009773836471140385,-0.014660755172371864,0.001832594396546483
1761333585736779500,5.921779541015625,0.010995565913617611,-0.014660755172371864,0.001832594396546483
1761333585755478500,5.940478515625,0.010384701192378998,-0.015271619893610477,0.001832594396546483
1761333585774177500,5.959177490234375,0.010995565913617611,-0.01588248461484909,0.001832594396546483
1761333585792876500,5.97787646484375,0.009773836471140385,-0.015271619893610477,0.001221729558892548
1761333585811575300,5.9965751953125,0.009773836471140385,-0.01588248461484909,0.002443459117785096
1761333585830274600,6.015274658203125,0.010384701192378998,-0.014660755172371864,0.001832594396546483
1761333585848973300,6.033973388671875,0.009773836471140385,-0.015271619893610477,0.002443459117785096
1761333585867672300,6.05267236328125,0.009773836471140385,-0.015271619893610477,0.001221729558892548
1761333585886371300,6.071371337890625,0.010384701192378998,-0.014660755172371864,0.001221729558892548
1761333585905070300,6.0900703125,0.009773836471140385,-0.014660755172371864,0.002443459117785096
1761333585923769300,6.108769287109375,0.009773836471140385,-0.015271619893610477,0.001832594396546483
1761333585942468000,6.127468017578125,0.010384701192378998,-0.015271619893610477,0.001832594396546483
1761333585961167000,6.1461669921875,0.009773836471140385,-0.01588248461484909,0.001832594396546483
1761333585979866000,6.1648662109375,0.009773836471140385,-0.015271619893610477,0.001832594396546483
1761333585998565000,6.183565185546875,0.010384701192378998,-0.014660755172371864,0.002443459117785096
1761333586017264000,6.20226416015625,0.010995565913617611,-0.01588248461484909,0.002443459117785096
1761333586035963100,6.220963134765625,0.010384701192378998,-0.014660755172371864,0.001221729558892548
1761333586054662100,6.239662109375,0.009773836471140385,-0.015271619893610477,0.001832594396546483
1761333586073361000,6.25836083984375,0.010384701192378998,-0.014660755172371864,0.001832594396546483
1761333586092060000,6.277059814453125,0.009773836471140385,-0.015271619893610477,0.001221729558892548
1761333586110759000,6.295759033203125,0.010384701192378998,-0.015271619893610477,0.002443459117785096
1761333586129458000,6.3144580078125,0.010995565913617611,-0.015271619893610477,0.001832594396546483
1761333586148157000,6.333156982421875,0.011606430634856224,-0.015271619893610477,0.001832594396546483
1761333586166856000,6.35185595703125,0.010384701192378998,-0.015271619893610477,0.002443459117785096
1761333586185555000,6.370554931640625,0.010384701192378998,-0.015271619893610477,0.002443459117785096
1761333586204254000,6.38925390625,0.010995565913617611,-0.01588248461484909,0.001832594396546483
1761333586222952700,6.40795263671875,0.010995565913617611,-0.015271619893610477,0.001832594396546483
1761333586241651700,6.426651611328125,0.010995565913617611,-0.014660755172371864,0.001832594396546483
1761333586260350700,6.445350830078125,0.009773836471140385,-0.015271619893610477,0.001832594396546483
1761333586279049700,6.4640498046875,0.010995565913617611,-0.015271619893610477,0.002443459117785096
1761333586297748700,6.482748779296875,0.010384701192378998,-0.015271619893610477,0.002443459117785096
1761333586316447700,6.50144775390625,0.010384701192378998,-0.014660755172371864,0.002443459117785096
1761333586335146800,6.520146728515625,0.010384701192378998,-0.015271619893610477,0.002443459117785096
1761333586353845500,6.538845458984375,0.009773836471140385,-0.01588248461484909,0.002443459117785096
1761333586372544500,6.55754443359375,0.010384701192378998,-0.01588248461484909,0.001832594396546483
1761333586391243500,6.576243408203125,0.010384701192378998,-0.01588248461484909,0.001221729558892548
1761333586409942500,6.594942626953125,0.009773836471140385,-0.014660755172371864,0.001832594396546483
1761333586428641500,6.6136416015625,0.010384701192378998,-0.015271619893610477,0.002443459117785096
1761333586447340500,6.632340576171875,0.010384701192378998,-0.01588248461484909,0.001832594396546483
1761333586466039600,6.65103955078125,0.010995565913617611,-0.015271619893610477,0.001832594396546483
1761333586484738300,6.66973828125,0.009773836471140385,-0.015271619893610477,0.002443459117785096
1761333586503437300,6.688437255859375,0.009773836471140385,-0.015271619893610477,0.001221729558892548
1761333586522136300,6.70713623046875,0.010384701192378998,-0.014660755172371864,0.002443459117785096
1761333586540835300,6.72583544921875,0.010995565913617611,-0.01588248461484909,0.001832594396546483
1761333586559534300,6.744534423828125,0.010384701192378998,-0.015271619893610477,0.002443459117785096
1761333586578233300,6.7632333984375,0.010384701192378998,-0.015271619893610477,0.002443459117785096
1761333586596932400,6.781932373046875,0.010384701192378998,-0.015271619893610477,0.001832594396546483
1761333586615631400,6.80063134765625,0.010995565913617611,-0.01588248461484909,0.001832594396546483
1761333586634330000,6.819330078125,0.010995565913617611,-0.01588248461484909,0.001832594396546483
1761333586653029000,6.838029052734375,0.010995565913617611,-0.015271619893610477,0.002443459117785096
1761333586671728000,6.85672802734375,0.010384701192378998,-0.01588248461484909,0.001832594396546483
1761333586690427100,6.87542724609375,0.010384701192378998,-0.01588248461484909,0.001832594396546483
1761333586709126100,6.894126220703125,0.010384701192378998,-0.015271619893610477,0.001832594396546483
1761333586727825200,6.9128251953125,0.010384701192378998,-0.01588248461484909,0.001832594396546483
1761333586746524200,6.931524169921875,0.010995565913617611,-0.014660755172371864,0.001832594396546483
1761333586765223000,6.950222900390625,0.010384701192378998,-0.01588248461484909,0.001832594396546483
1761333586783922000,6.968921875,0.010995565913617611,-0.015271619893610477,0.002443459117785096
1761333586802621000,6.987620849609375,0.010995565913617611,-0.015271619893610477,0.001832594396546483
1761333586821320000,7.00631982421875,0.010995565913617611,-0.014660755172371864,0.001832594396546483
1761333586840019000,7.02501904296875,0.010995565913617611,-0.015271619893610477,0.001832594396546483
1761333586858718000,7.043718017578125,0.010384701192378998,-0.01588248461484909,0.002443459117785096
1761333586877417000,7.0624169921875,0.010995565913617611,-0.015271619893610477,0.001832594396546483
1761333586896115700,7.08111572265625,0.010384701192378998,-0.014660755172371864,0.002443459117785096
1761333586914815000,7.09981494140625,0.010384701192378998,-0.015271619893610477,0.001832594396546483
1761333586933513700,7.118513671875,0.010995565913617611,-0.015271619893610477,0.001221729558892548
1761333586952212700,7.137212646484375,0.009773836471140385,-0.014660755172371864,0.001832594396546483
1761333586970911700,7.155911865234375,0.010384701192378998,-0.01588248461484909,0.001221729558892548
1761333586989610800,7.17461083984375,0.010384701192378998,-0.014660755172371864,0.001832594396546483
1761333587008309800,7.193309814453125,0.010995565913617611,-0.014660755172371864,0.001832594396546483
1761333587027008800,7.2120087890625,0.010995565913617611,-0.01588248461484909,0.002443459117785096
1761333587045707800,7.230707763671875,0.009773836471140385,-0.015271619893610477,0.001832594396546483
1761333587064406500,7.249406494140625,0.010995565913617611,-0.01588248461484909,0.001832594396546483
1761333587083105500,7.26810546875,0.010995565913617611,-0.01588248461484909,0.001221729558892548
1761333587101804500,7.286804443359375,0.010995565913617611,-0.01588248461484909,0.002443459117785096
1761333587120503600,7.305503662109375,0.010995565913617611,-0.014660755172371864,0.002443459117785096
1761333587139202600,7.32420263671875,0.009773836471140385,-0.015271619893610477,0.002443459117785096
1761333587157901600,7.342901611328125,0.010995565913617611,-0.01588248461484909,0.002443459117785096
1761333587176600600,7.3616005859375,0.010384701192378998,-0.015271619893610477,0.001832594396546483
1761333587195299600,7.380299560546875,0.010995565913617611,-0.014660755172371864,0.002443459117785096
1761333587213998300,7.398998291015625,0.010384701192378998,-0.015271619893610477,0.001832594396546483
1761333587232697300,7.417697265625,0.010384701192378998,-0.01588248461484909,0.002443459117785096
1761333587251396400,7.436396240234375,0.010384701192378998,-0.01588248461484909,0.001832594396546483
1761333587270095400,7.455095458984375,0.009773836471140385,-0.015271619893610477,0.002443459117785096
1761333587288794400,7.47379443359375,0.010995565913617611,-0.014660755172371864,0.001221729558892548
1761333587307493400,7.492493408203125,0.010384701192378998,-0.01588248461484909,0.001832594396546483
1761333587326192400,7.5111923828125,0.010384701192378998,-0.014049889519810677,0.001832594396546483
1761333587344891100,7.52989111328125,0.010995565913617611,-0.014660755172371864,0.001221729558892548
1761333587363590100,7.548590087890625,0.010384701192378998,-0.014049889519810677,0.002443459117785096
1761333587382289200,7.5672890625,0.010384701192378998,-0.014660755172371864,0.001832594396546483
1761333587400988200,7.58598828125,0.010384701192378998,-0.01588248461484909,0.002443459117785096
1761333587419687200,7.604687255859375,0.010995565913617611,-0.014660755172371864,0.001832594396546483
1761333587438386200,7.62338623046875,0.010384701192378998,-0.01588248461484909,0.002443459117785096
1761333587457085200,7.642085205078125,0.010995565913617611,-0.014660755172371864,0.002443459117785096
1761333587475784200,7.6607841796875,0.010384701192378998,-0.015271619893610477,0.001832594396546483
1761333587494483200,7.679483154296875,0.009773836471140385,-0.015271619893610477,0.002443459117785096
1761333587513182000,7.698181884765625,0.010384701192378998,-0.01588248461484909,0.002443459117785096
1761333587531881000,7.716880859375,0.009773836471140385,-0.014660755172371864,0.002443459117785096
1761333587550580000,7.735580078125,0.009773836471140385,-0.015271619893610477,0.002443459117785096
1761333587569279000,7.754279052734375,0.009162971749901772,-0.01588248461484909,0.002443459117785096
1761333587587978000,7.77297802734375,0.010384701192378998,-0.015271619893610477,0.001832594396546483
1761333587606677000,7.791677001953125,0.010995565913617611,-0.014660755172371864,0.002443459117785096
1761333587625376000,7.8103759765625,0.010384701192378998,-0.015271619893610477,0.002443459117785096
1761333587644074800,7.82907470703125,0.010384701192378998,-0.01588248461484909,0.002443459117785096
1761333587662773800,7.847773681640625,0.010995565913617611,-0.015271619893610477,0.002443459117785096
1761333587681473000,7.86647314453125,0.010995565913617611,-0.014660755172371864,0.001832594396546483
1761333587700171800,7.885171875,0.010995565913617611,-0.01588248461484909,0.002443459117785096
1761333587718870800,7.903870849609375,0.010995565913617611,-0.01588248461484909,0.002443459117785096
1761333587737569800,7.92256982421875,0.010995565913617611,-0.015271619893610477,0.001832594396546483
1761333587756268800,7.941268798828125,0.010384701192378998,-0.014660755172371864,0.001221729558892548
1761333587774967800,7.9599677734375,0.010995565913617611,-0.01588248461484909,0.001832594396546483
1761333587793666800,7.978666748046875,0.010995565913617611,-0.015271619893610477,0.001832594396546483
1761333587812365800,7.99736572265625,0.010384701192378998,-0.01588248461484909,0.002443459117785096
1761333587831064600,8.016064697265625,0.010384701192378998,-0.014660755172371864,0.002443459117785096
1761333587849763600,8.034763671875,0.010384701192378998,-0.01588248461484909,0.002443459117785096
1761333587868462600,8.053462646484375,0.010384701192378998,-0.01588248461484909,0.001221729558892548
1761333587887161600,8.07216162109375,0.010995565913617611,-0.015271619893610477,0.001221729558892548
1761333587905860600,8.090860595703125,0.010995565913617611,-0.01588248461484909,0.002443459117785096
1761333587924559600,8.1095595703125,0.010995565913617611,-0.015271619893610477,0.002443459117785096
1761333587943258600,8.128258544921875,0.010384701192378998,-0.014660755172371864,0.002443459117785096
1761333587961957400,8.146957275390625,0.009773836471140385,-0.015271619893610477,0.001221729558892548
1761333587980656600,8.16565673828125,0.009162971749901772,-0.01588248461484909,0.001221729558892548
1761333587999355400,8.18435546875,0.009162971749901772,-0.015271619893610477,0.002443459117785096
1761333588018054400,8.203054443359376,0.010995565913617611,-0.01588248461484909,0.001221729558892548
1761333588036753400,8.22175341796875,0.010384701192378998,-0.014660755172371864,0.002443459117785096
1761333588055452400,8.240452392578124,0.010384701192378998,-0.014660755172371864,0.001832594396546483
1761333588074151400,8.2591513671875,0.009773836471140385,-0.014660755172371864,0.001832594396546483
1761333588092850400,8.277850341796874,0.010384701192378998,-0.015271619893610477,0.002443459117785096
1761333588111549400,8.296549560546875,0.010384701192378998,-0.015271619893610477,0.002443459117785096
1761333588130248200,8.315248291015624,0.009773836471140385,-0.015271619893610477,0.001221729558892548
1761333588148947200,8.333947265625,0.010995565913617611,-0.01588248461484909,0.002443459117785096
1761333588167646200,8.352646240234375,0.009773836471140385,-0.01588248461484909,0.001832594396546483
1761333588186345200,8.37134521484375,0.010384701192378998,-0.014660755172371864,0.001832594396546483
1761333588205044200,8.390044189453125,0.009773836471140385,-0.01588248461484909,0.001221729558892548
1761333588223743200,8.4087431640625,0.010995565913617611,-0.01588248461484909,0.002443459117785096
1761333588242442200,8.427442138671875,0.010995565913617611,-0.01588248461484909,0.001832594396546483
1761333588261141200,8.446141357421874,0.010384701192378998,-0.01588248461484909,0.001832594396546483
1761333588279840300,8.46484033203125,0.009162971749901772,-0.014660755172371864,0.001221729558892548
1761333588298539300,8.483539306640624,0.009773836471140385,-0.015271619893610477,0.001832594396546483
1761333588317238000,8.502238037109375,0.010384701192378998,-0.01588248461484909,0.001832594396546483
1761333588335937000,8.52093701171875,0.010384701192378998,-0.01588248461484909,0.002443459117785096
1761333588354636000,8.539635986328125,0.010384701192378998,-0.015271619893610477,0.002443459117785096
1761333588373335000,8.5583349609375,0.010384701192378998,-0.015271619893610477,0.001221729558892548
1761333588392034000,8.577033935546876,0.009773836471140385,-0.01649334840476513,0.001832594396546483
1761333588410733000,8.595733154296875,0.009773836471140385,-0.014660755172371864,0.001832594396546483
1761333588429432000,8.61443212890625,0.010384701192378998,-0.01588248461484909,0.002443459117785096
1761333588448130800,8.633130859375,0.010384701192378998,-0.01588248461484909,0.001221729558892548
1761333588466830000,8.651830078125,0.010995565913617611,-0.01588248461484909,0.001832594396546483
1761333588485528800,8.67052880859375,0.010995565913617611,-0.014660755172371864,0.002443459117785096
1761333588504227800,8.689227783203124,0.010995565913617611,-0.015271619893610477,0.002443459117785096
1761333588522926800,8.7079267578125,0.010384701192378998,-0.014660755172371864,0.0030543238390237093
1761333588541625900,8.7266259765625,0.009773836471140385,-0.014660755172371864,0.0030543238390237093
1761333588560324900,8.745324951171876,0.010384701192378998,-0.01282816007733345,0.003665188793092966
1761333588579024000,8.76402392578125,0.010384701192378998,-0.012217295356094837,0.004276053514331579
1761333588597723000,8.782722900390626,0.011606430634856224,-0.01588248461484909,0.001832594396546483
1761333588616421600,8.801421630859375,0.010384701192378998,-0.01588248461484909,0.001832594396546483
1761333588635120600,8.82012060546875,0.010384701192378998,-0.01649334840476513,0.001221729558892548
1761333588653819600,8.838819580078125,0.010384701192378998,-0.01588248461484909,0.001221729558892548
1761333588672518700,8.8575185546875,0.010995565913617611,-0.015271619893610477,0.000610864779446274
1761333588691217700,8.8762177734375,0.009773836471140385,-0.01649334840476513,0.001832594396546483
1761333588709916700,8.894916748046874,0.010995565913617611,-0.01588248461484909,0.002443459117785096
1761333588728615700,8.91361572265625,0.010384701192378998,-0.015271619893610477,0.001832594396546483
1761333588747314700,8.932314697265625,0.009773836471140385,-0.01588248461484909,0.001832594396546483
1761333588766013700,8.951013671875,0.010384701192378998,-0.01649334840476513,0.001832594396546483
1761333588784712700,8.969712646484375,0.010995565913617611,-0.014660755172371864,0.001832594396546483
1761333588803411500,8.988411376953126,0.009773836471140385,-0.013439024798572063,0.0030543238390237093
1761333588822110500,9.0071103515625,0.009773836471140385,-0.013439024798572063,0.004276053514331579
1761333588840809500,9.0258095703125,0.010384701192378998,-0.014049889519810677,0.004886918235570192
1761333588859508500,9.044508544921875,0.009773836471140385,-0.01282816007733345,0.004276053514331579
1761333588878207500,9.06320751953125,0.009773836471140385,-0.013439024798572063,0.003665188793092966
1761333588896906500,9.081906494140625,0.010995565913617611,-0.018325943499803543,-0.000610864779446274
1761333588915605500,9.10060546875,0.010995565913617611,-0.01588248461484909,0.000610864779446274
1761333588934304500,9.119304443359376,0.010995565913617611,-0.017104214057326317,0.000610864779446274
1761333588953003500,9.13800341796875,0.011606430634856224,-0.01588248461484909,0.000610864779446274
1761333588971702300,9.156702392578126,0.010995565913617611,-0.017104214057326317,0.000610864779446274
1761333588990401300,9.1754013671875,0.009773836471140385,-0.01588248461484909,0.001832594396546483
1761333589009100300,9.194100341796876,0.010384701192378998,-0.01588248461484909,0.000610864779446274
1761333589027799300,9.21279931640625,0.010384701192378998,-0.01588248461484909,0.001832594396546483
1761333589046498300,9.231498291015624,0.010384701192378998,-0.01588248461484909,0.001221729558892548
1761333589065197300,9.250197265625,0.010384701192378998,-0.01588248461484909,0.001832594396546483
1761333589083896300,9.268896240234374,0.010384701192378998,-0.014049889519810677,0.001832594396546483
1761333589102595300,9.28759521484375,0.010384701192378998,-0.01588248461484909,0.002443459117785096
1761333589121294300,9.30629443359375,0.010995565913617611,-0.014660755172371864,0.0030543238390237093
1761333589139993000,9.3249931640625,0.010384701192378998,-0.015271619893610477,0.002443459117785096
1761333589158692000,9.343692138671875,0.010995565913617611,-0.015271619893610477,0.002443459117785096
1761333589177391000,9.36239111328125,0.009773836471140385,-0.013439024798572063,0.003665188793092966
1761333589196090000,9.381090087890625,0.010384701192378998,-0.014660755172371864,0.0030543238390237093
1761333589214789000,9.3997890625,0.010384701192378998,-0.014660755172371864,0.0030543238390237093
1761333589233488100,9.418488037109375,0.010995565913617611,-0.014660755172371864,0.0030543238390237093
1761333589252187100,9.437187255859374,0.010384701192378998,-0.014660755172371864,0.002443459117785096
1761333589270886100,9.45588623046875,0.010384701192378998,-0.013439024798572063,0.0030543238390237093
1761333589289585200,9.474585205078125,0.010995565913617611,-0.017715077847242355,-0.002443459117785096
1761333589308284200,9.4932841796875,0.010995565913617611,-0.01588248461484909,0.001832594396546483
1761333589326983000,9.51198291015625,0.010995565913617611,-0.01588248461484909,0.002443459117785096
1761333589345682000,9.530681884765626,0.010384701192378998,-0.01588248461484909,0.001832594396546483
1761333589364381000,9.549380859375,0.010384701192378998,-0.01649334840476513,0.001221729558892548
1761333589383080000,9.568079833984376,0.010995565913617611,-0.01649334840476513,0.000610864779446274
1761333589401779000,9.586779052734375,0.009773836471140385,-0.01649334840476513,0.001221729558892548
1761333589420478000,9.60547802734375,0.010995565913617611,-0.017104214057326317,0.001221729558892548
1761333589439177000,9.624177001953125,0.010384701192378998,-0.01588248461484909,0.002443459117785096
1761333589457876000,9.6428759765625,0.010995565913617611,-0.015271619893610477,0.001832594396546483
1761333589476575000,9.661574951171875,0.009773836471140385,-0.015271619893610477,0.001832594396546483
1761333589495273700,9.680273681640625,0.009162971749901772,-0.015271619893610477,0.001221729558892548
1761333589513972700,9.69897265625,0.010384701192378998,-0.01588248461484909,0.002443459117785096
1761333589532671700,9.717671630859375,0.010384701192378998,-0.014660755172371864,0.001832594396546483
1761333589551370800,9.736370849609376,0.009773836471140385,-0.015271619893610477,0.002443459117785096
1761333589570069800,9.75506982421875,0.010384701192378998,-0.01588248461484909,0.001832594396546483
1761333589588768800,9.773768798828126,0.009773836471140385,-0.014660755172371864,0.002443459117785096
1761333589607467800,9.7924677734375,0.009773836471140385,-0.01588248461484909,0.001832594396546483
1761333589626166500,9.81116650390625,0.010995565913617611,-0.015271619893610477,0.002443459117785096
1761333589644865800,9.82986572265625,0.009773836471140385,-0.014660755172371864,0.001832594396546483
1761333589663564500,9.848564453125,0.010384701192378998,-0.015271619893610477,0.001832594396546483
1761333589682263600,9.867263671875,0.010995565913617611,-0.015271619893610477,0.002443459117785096
1761333589700962600,9.885962646484375,0.010384701192378998,-0.015271619893610477,0.002443459117785096
1761333589719661600,9.90466162109375,0.010995565913617611,-0.015271619893610477,0.002443459117785096
1761333589738360600,9.923360595703125,0.009773836471140385,-0.01588248461484909,0.001832594396546483
1761333589757059600,9.9420595703125,0.009773836471140385,-0.01588248461484909,0.001832594396546483
1761333589775758600,9.960758544921875,0.010995565913617611,-0.015271619893610477,0.001221729558892548
1761333589794457600,9.97945751953125,0.010995565913617611,-0.015271619893610477,0.001832594396546483
1761333589813156600,9.998156494140625,0.010995565913617611,-0.014660755172371864,0.001832594396546483
1761333589831855600,10.016855712890624,0.009773836471140385,-0.014660755172371864,0.001832594396546483
1761333589850554400,10.035554443359375,0.010384701192378998,-0.01588248461484909,0.002443459117785096
1761333589869253400,10.05425341796875,0.010384701192378998,-0.01588248461484909,0.002443459117785096
1761333589887952400,10.072952392578125,0.010995565913617611,-0.015271619893610477,0.002443459117785096
1761333589906651400,10.0916513671875,0.010384701192378998,-0.015271619893610477,0.001221729558892548
1761333589925350400,10.110350341796876,0.010995565913617611,-0.014660755172371864,0.001832594396546483
1761333589944049400,10.12904931640625,0.009773836471140385,-0.014660755172371864,0.002443459117785096
1761333589962748400,10.14774853515625,0.010995565913617611,-0.015271619893610477,0.0030543238390237093
1761333589981447400,10.166447509765625,0.010384701192378998,-0.014660755172371864,0.001832594396546483
1761333590000146400,10.185146484375,0.010384701192378998,-0.01588248461484909,0.001221729558892548
1761333590018845200,10.20384521484375,0.009773836471140385,-0.014660755172371864,0.002443459117785096
1761333590037544200,10.222544189453124,0.009773836471140385,-0.01588248461484909,0.002443459117785096
1761333590056243200,10.2412431640625,0.010384701192378998,-0.014660755172371864,0.002443459117785096
1761333590074942200,10.259942138671875,0.010384701192378998,-0.01588248461484909,0.002443459117785096
1761333590093641200,10.27864111328125,0.009773836471140385,-0.01588248461484909,0.002443459117785096
1761333590112340200,10.29734033203125,0.010995565913617611,-0.014660755172371864,0.001832594396546483
1761333590131039200,10.316039306640626,0.010384701192378998,-0.014660755172371864,0.002443459117785096
1761333590149738200,10.33473828125,0.010384701192378998,-0.014049889519810677,0.001832594396546483
1761333590168437200,10.353437255859374,0.010384701192378998,-0.01588248461484909,0.001832594396546483
1761333590187136000,10.372135986328125,0.010384701192378998,-0.01588248461484909,0.002443459117785096
1761333590205835000,10.3908349609375,0.010995565913617611,-0.014660755172371864,0.0030543238390237093
1761333590224534000,10.409533935546875,0.009773836471140385,-0.014049889519810677,0.002443459117785096
1761333590243233000,10.42823291015625,0.010384701192378998,-0.014660755172371864,0.002443459117785096
1761333590261932000,10.44693212890625,0.010995565913617611,-0.01588248461484909,0.001221729558892548
1761333590280631000,10.465631103515625,0.010995565913617611,-0.015271619893610477,0.001832594396546483
1761333590299330000,10.484330078125,0.009773836471140385,-0.01588248461484909,0.001832594396546483
1761333590318029000,10.503029052734375,0.009773836471140385,-0.01588248461484909,0.002443459117785096
1761333590336728000,10.52172802734375,0.010995565913617611,-0.01588248461484909,0.001221729558892548
1761333590355427000,10.540427001953125,0.010384701192378998,-0.015271619893610477,0.001832594396546483
1761333590374125800,10.559125732421874,0.010384701192378998,-0.01588248461484909,0.001221729558892548
1761333590392824800,10.577824951171875,0.009773836471140385,-0.015271619893610477,0.002443459117785096
1761333590411523800,10.59652392578125,0.010995565913617611,-0.015271619893610477,0.001832594396546483
1761333590430222800,10.615222900390625,0.010995565913617611,-0.01588248461484909,0.001832594396546483
1761333590448921900,10.633921875,0.010384701192378998,-0.015271619893610477,0.001832594396546483
1761333590467620900,10.652620849609375,0.010384701192378998,-0.015271619893610477,0.002443459117785096
1761333590486319900,10.67131982421875,0.010384701192378998,-0.014660755172371864,0.001221729558892548
1761333590505019000,10.690018798828126,0.010995565913617611,-0.015271619893610477,0.002443459117785096
1761333590523718000,10.7087177734375,0.010384701192378998,-0.014660755172371864,0.001832594396546483
1761333590542416600,10.727416748046876,0.010384701192378998,-0.015271619893610477,0.001832594396546483
1761333590561115600,10.74611572265625,0.010384701192378998,-0.01588248461484909,0.002443459117785096
1761333590579814700,10.764814697265624,0.009773836471140385,-0.015271619893610477,0.002443459117785096
1761333590598513700,10.783513671875,0.010995565913617611,-0.01588248461484909,0.002443459117785096
1761333590617212700,10.802212646484374,0.010384701192378998,-0.015271619893610477,0.002443459117785096
1761333590635911700,10.82091162109375,0.010384701192378998,-0.01588248461484909,0.001832594396546483
1761333590654610700,10.839610595703125,0.010995565913617611,-0.015271619893610477,0.002443459117785096
1761333590673309700,10.858309814453126,0.010384701192378998,-0.015271619893610477,0.002443459117785096
1761333590692008700,10.8770087890625,0.009773836471140385,-0.011606430634856224,0.004886918235570192
1761333590710707700,10.895707763671876,0.009773836471140385,-0.014660755172371864,0.001832594396546483
1761333590729406500,10.914406494140625,0.010995565913617611,-0.017104214057326317,0.001221729558892548
1761333590748105700,10.933105712890624,0.009773836471140385,-0.01649334840476513,0.001221729558892548
1761333590766804500,10.951804443359375,0.010995565913617611,-0.01649334840476513,0.000610864779446274
1761333590785503500,10.97050341796875,0.010995565913617611,-0.01588248461484909,0.001221729558892548
1761333590804202500,10.989202392578125,0.010995565913617611,-0.014660755172371864,0.002443459117785096
1761333590822901500,11.007901611328125,0.009773836471140385,-0.01588248461484909,0.001221729558892548
1761333590841600500,11.0266005859375,0.010384701192378998,-0.014660755172371864,0.002443459117785096
1761333590860299500,11.045299560546875,0.010384701192378998,-0.014660755172371864,0.001832594396546483
1761333590878998500,11.06399853515625,0.010995565913617611,-0.014660755172371864,0.001221729558892548
1761333590897697500,11.082697509765625,0.010384701192378998,-0.015271619893610477,0.001832594396546483
1761333590916396500,11.101396484375,0.010995565913617611,-0.015271619893610477,0.001832594396546483
1761333590935095300,11.12009521484375,0.009773836471140385,-0.015271619893610477,0.001832594396546483
1761333590953794300,11.138794189453124,0.010995565913617611,-0.01588248461484909,0.002443459117785096
1761333590972493300,11.157493408203125,0.009773836471140385,-0.015271619893610477,0.002443459117785096
1761333590991192300,11.1761923828125,0.010384701192378998,-0.01588248461484909,0.001832594396546483
1761333591009891300,11.194891357421875,0.010995565913617611,-0.01588248461484909,0.001832594396546483
1761333591028590300,11.21359033203125,0.010384701192378998,-0.015271619893610477,0.001832594396546483
1761333591047289300,11.232289306640626,0.010384701192378998,-0.014660755172371864,0.001832594396546483
1761333591065988000,11.250988037109375,0.009773836471140385,-0.015271619893610477,0.002443459117785096
1761333591084687400,11.269687255859376,0.009773836471140385,-0.015271619893610477,0.002443459117785096
1761333591103386000,11.28838623046875,0.010995565913617611,-0.014660755172371864,0.002443459117785096
1761333591122085000,11.307085205078126,0.010995565913617611,-0.015271619893610477,0.001832594396546483
1761333591140784000,11.3257841796875,0.009773836471140385,-0.01588248461484909,0.002443459117785096
1761333591159483100,11.344483154296874,0.009773836471140385,-0.015271619893610477,0.002443459117785096
1761333591178182100,11.36318212890625,0.010995565913617611,-0.01588248461484909,0.002443459117785096
1761333591196881200,11.381881103515624,0.010384701192378998,-0.014660755172371864,0.002443459117785096
1761333591215580200,11.400580078125,0.010995565913617611,-0.01588248461484909,0.001832594396546483
1761333591234279200,11.419279052734375,0.010995565913617611,-0.015271619893610477,0.001832594396546483
1761333591252978200,11.437978271484376,0.010384701192378998,-0.01588248461484909,0.001832594396546483
1761333591271677200,11.45667724609375,0.010384701192378998,-0.015271619893610477,0.002443459117785096
1761333591290376000,11.4753759765625,0.010384701192378998,-0.015271619893610477,0.002443459117785096
1761333591309075200,11.4940751953125,0.010995565913617611,-0.015271619893610477,0.001221729558892548
1761333591327774000,11.51277392578125,0.010384701192378998,-0.01588248461484909,0.002443459117785096
1761333591346473000,11.531472900390625,0.009773836471140385,-0.015271619893610477,0.002443459117785096
1761333591365172000,11.550171875,0.010384701192378998,-0.015271619893610477,0.001221729558892548
1761333591383871000,11.56887109375,0.010384701192378998,-0.015271619893610477,0.002443459117785096
1761333591402570000,11.587570068359375,0.010384701192378998,-0.014660755172371864,0.001832594396546483
1761333591421269000,11.60626904296875,0.009773836471140385,-0.014660755172371864,0.002443459117785096
1761333591439968000,11.624968017578125,0.009773836471140385,-0.015271619893610477,0.002443459117785096
1761333591458666800,11.643666748046876,0.009773836471140385,-0.017104214057326317,0.003665188793092966
1761333591477366000,11.662365966796875,0.010995565913617611,-0.015271619893610477,0.002443459117785096
1761333591496064800,11.681064697265626,0.010995565913617611,-0.014660755172371864,0.000610864779446274
1761333591514763800,11.699763671875,0.010384701192378998,-0.014660755172371864,0.001832594396546483
1761333591533462800,11.718462890625,0.010384701192378998,-0.015271619893610477,0.000610864779446274
1761333591552161800,11.737161865234375,0.010384701192378998,-0.01588248461484909,0.001832594396546483
1761333591570860800,11.75586083984375,0.010995565913617611,-0.015271619893610477,0.001221729558892548
1761333591589559800,11.774559814453125,0.010995565913617611,-0.015271619893610477,0.002443459117785096
1761333591608258800,11.7932587890625,0.011606430634856224,-0.01588248461484909,0.0030543238390237093
1761333591626957600,11.81195751953125,0.010384701192378998,-0.01649334840476513,0.0030543238390237093
1761333591645656800,11.83065673828125,0.009773836471140385,-0.014049889519810677,0.000610864779446274
1761333591664355600,11.84935546875,0.009773836471140385,-0.014660755172371864,0.001221729558892548
1761333591683054600,11.8680546875,0.011606430634856224,-0.014660755172371864,0
