time,seconds_elapsed,z,y,x
1761333579885096700,0.0700966796875,9.856036186218262,0.5623133182525635,0.24885354936122894
1761333579903795500,0.08879541015625,9.90149974822998,0.5312066078186035,0.23688943684101105
1761333579922494500,0.107494384765625,9.868000984191895,0.5312066078186035,0.2392822653055191
1761333579941193500,0.126193359375,9.906285285949707,0.550349235534668,0.23688943684101105
1761333579959892500,0.144892578125,9.882357597351074,0.5383850932121277,0.22971096634864807
1761333579978591500,0.163591552734375,9.899106979370117,0.5335994362831116,0.23210379481315613
1761333579997290200,0.182290283203125,9.882357597351074,0.5431707501411438,0.24167509377002716
1761333580015989200,0.2009892578125,9.89432144165039,0.5359922647476196,0.22971096634864807
1761333580034688300,0.219688232421875,9.877572059631348,0.5431707501411438,0.23449662327766418
1761333580053387300,0.23838720703125,9.90149974822998,0.5647061467170715,0.24885354936122894
1761333580072086300,0.257086181640625,9.877572059631348,0.550349235534668,0.2392822653055191
1761333580090785000,0.275784912109375,9.8871431350708,0.5288137793540955,0.24885354936122894
1761333580109484000,0.294484130859375,9.8871431350708,0.5431707501411438,0.24885354936122894
1761333580128183000,0.31318310546875,9.889535903930664,0.5431707501411438,0.25363919138908386
1761333580146882000,0.331882080078125,9.877572059631348,0.5383850932121277,0.23449662327766418
1761333580165580800,0.350580810546875,9.879964828491211,0.550349235534668,0.2225325107574463
1761333580184279800,0.36927978515625,9.879964828491211,0.5288137793540955,0.24406790733337402
1761333580202978800,0.387978759765625,9.875179290771484,0.5359922647476196,0.2560320198535919
1761333580221677800,0.406677734375,9.884750366210938,0.5407779216766357,0.23688943684101105
1761333580240376600,0.42537646484375,9.891928672790527,0.5359922647476196,0.23688943684101105
1761333580259075600,0.44407568359375,9.872786521911621,0.5359922647476196,0.22492532432079315
1761333580277774600,0.462774658203125,9.879964828491211,0.5312066078186035,0.24646073579788208
1761333580296473600,0.4814736328125,9.875179290771484,0.5359922647476196,0.24406790733337402
1761333580315172600,0.500172607421875,9.896714210510254,0.5431707501411438,0.23688943684101105
1761333580333871600,0.51887158203125,9.870393753051758,0.5312066078186035,0.24167509377002716
1761333580352570400,0.5375703125,9.877572059631348,0.5407779216766357,0.2512463629245758
1761333580371269400,0.556269287109375,9.896714210510254,0.5407779216766357,0.22971096634864807
1761333580389968400,0.574968505859375,9.884750366210938,0.5383850932121277,0.2273181527853012
1761333580408667400,0.59366748046875,9.891928672790527,0.5383850932121277,0.24167509377002716
1761333580427366400,0.612366455078125,9.870393753051758,0.5359922647476196,0.23688943684101105
1761333580446065200,0.631065185546875,9.882357597351074,0.5335994362831116,0.23688943684101105
1761333580464764200,0.64976416015625,9.899106979370117,0.5383850932121277,0.22013968229293823
1761333580483463200,0.668463134765625,9.884750366210938,0.5264210104942322,0.22971096634864807
1761333580502162200,0.687162109375,9.877572059631348,0.5742774605751038,0.24167509377002716
1761333580520861200,0.705861083984375,9.889535903930664,0.5407779216766357,0.2392822653055191
1761333580539560000,0.724559814453125,9.882357597351074,0.5264210104942322,0.2632105052471161
1761333580558259000,0.743259033203125,9.884750366210938,0.5288137793540955,0.22971096634864807
1761333580576958000,0.7619580078125,9.8871431350708,0.5335994362831116,0.23449662327766418
1761333580595656700,0.78065673828125,9.889535903930664,0.5407779216766357,0.24646073579788208
1761333580614355700,0.799355712890625,9.8871431350708,0.5383850932121277,0.26081767678260803
1761333580633054700,0.8180546875,9.868000984191895,0.5240281820297241,0.24167509377002716
1761333580651753700,0.836753662109375,9.884750366210938,0.5335994362831116,0.2512463629245758
1761333580670452700,0.85545263671875,9.879964828491211,0.5551348328590393,0.24406790733337402
1761333580689151500,0.8741513671875,9.891928672790527,0.5264210104942322,0.2225325107574463
1761333580707850500,0.8928505859375,9.879964828491211,0.5623133182525635,0.24646073579788208
1761333580726549500,0.911549560546875,9.884750366210938,0.5383850932121277,0.2225325107574463
1761333580745248500,0.93024853515625,9.884750366210938,0.5383850932121277,0.24885354936122894
1761333580763947500,0.948947509765625,9.882357597351074,0.5407779216766357,0.23688943684101105
1761333580782646300,0.967646240234375,9.872786521911621,0.5407779216766357,0.23688943684101105
1761333580801345300,0.98634521484375,9.879964828491211,0.5383850932121277,0.2584248483181
1761333580820044300,1.005044189453125,9.868000984191895,0.5383850932121277,0.2392822653055191
1761333580838743300,1.023743408203125,9.882357597351074,0.5527420043945312,0.23688943684101105
1761333580857442300,1.0424423828125,9.884750366210938,0.5359922647476196,0.23449662327766418
1761333580876141000,1.06114111328125,9.877572059631348,0.5551348328590393,0.23449662327766418
1761333580894840000,1.079840087890625,9.879964828491211,0.5383850932121277,0.24167509377002716
1761333580913539000,1.0985390625,9.889535903930664,0.5599204897880554,0.24885354936122894
1761333580932238000,1.117238037109375,9.882357597351074,0.550349235534668,0.2512463629245758
1761333580950937000,1.13593701171875,9.875179290771484,0.5479564070701599,0.24406790733337402
1761333580969635800,1.1546357421875,9.884750366210938,0.5383850932121277,0.23449662327766418
1761333580988334800,1.1733349609375,9.891928672790527,0.5312066078186035,0.24167509377002716
1761333581007033900,1.192033935546875,9.899106979370117,0.5335994362831116,0.21774685382843018
1761333581025732900,1.21073291015625,9.879964828491211,0.5455635786056519,0.23210379481315613
1761333581044431600,1.229431640625,9.891928672790527,0.5264210104942322,0.24167509377002716
1761333581063130600,1.248130615234375,9.882357597351074,0.5670989751815796,0.24885354936122894
1761333581081829600,1.26682958984375,9.8871431350708,0.5479564070701599,0.23210379481315613
1761333581100528600,1.285528564453125,9.8871431350708,0.5383850932121277,0.24167509377002716
1761333581119227600,1.3042275390625,9.858428955078125,0.550349235534668,0.2392822653055191
1761333581137926400,1.322926513671875,9.879964828491211,0.5431707501411438,0.22971096634864807
1761333581156625400,1.34162548828125,9.879964828491211,0.5335994362831116,0.2273181527853012
1761333581175324400,1.360324462890625,9.899106979370117,0.5527420043945312,0.24167509377002716
1761333581194023400,1.3790234375,9.882357597351074,0.519242525100708,0.23449662327766418
1761333581212722400,1.397722412109375,9.879964828491211,0.5288137793540955,0.24646073579788208
1761333581231421200,1.416421142578125,9.896714210510254,0.5431707501411438,0.24406790733337402
1761333581250120200,1.4351201171875,9.8871431350708,0.5455635786056519,0.2225325107574463
1761333581268819200,1.453819091796875,9.882357597351074,0.5359922647476196,0.24885354936122894
1761333581287518200,1.472518310546875,9.877572059631348,0.5240281820297241,0.24885354936122894
1761333581306217200,1.49121728515625,9.8871431350708,0.5479564070701599,0.2392822653055191
1761333581324916000,1.509916015625,9.872786521911621,0.5240281820297241,0.2392822653055191
1761333581343615000,1.528614990234375,9.884750366210938,0.5383850932121277,0.23210379481315613
1761333581362314000,1.54731396484375,9.899106979370117,0.5335994362831116,0.2392822653055191
1761333581381012700,1.5660126953125,9.889535903930664,0.550349235534668,0.24885354936122894
1761333581399711700,1.584711669921875,9.889535903930664,0.550349235534668,0.23210379481315613
1761333581418410800,1.60341064453125,9.872786521911621,0.550349235534668,0.24646073579788208
1761333581437109800,1.62210986328125,9.875179290771484,0.5335994362831116,0.2392822653055191
1761333581455808800,1.640808837890625,9.884750366210938,0.5335994362831116,0.24885354936122894
1761333581474507500,1.659507568359375,9.879964828491211,0.5431707501411438,0.22971096634864807
1761333581493206500,1.67820654296875,9.870393753051758,0.5383850932121277,0.25363919138908386
1761333581511905500,1.696905517578125,9.882357597351074,0.5527420043945312,0.24167509377002716
1761333581530604500,1.7156044921875,9.884750366210938,0.5359922647476196,0.2392822653055191
1761333581549303600,1.734303466796875,9.875179290771484,0.5335994362831116,0.24646073579788208
1761333581568002300,1.753002197265625,9.89432144165039,0.5431707501411438,0.23688943684101105
1761333581586701300,1.771701416015625,9.875179290771484,0.5168496966362,0.2560320198535919
1761333581605400300,1.790400390625,9.872786521911621,0.5312066078186035,0.22971096634864807
1761333581624099300,1.809099365234375,9.877572059631348,0.5479564070701599,0.24406790733337402
1761333581642798300,1.82779833984375,9.875179290771484,0.5527420043945312,0.24646073579788208
1761333581661497300,1.846497314453125,9.865608215332031,0.5335994362831116,0.2392822653055191
1761333581680196000,1.865196044921875,9.875179290771484,0.5359922647476196,0.2392822653055191
1761333581698895000,1.88389501953125,9.882357597351074,0.5359922647476196,0.22971096634864807
1761333581717594000,1.902593994140625,9.896714210510254,0.5312066078186035,0.24406790733337402
1761333581736292900,1.92129296875,9.8871431350708,0.5431707501411438,0.2273181527853012
1761333581754992000,1.9399921875,9.875179290771484,0.5168496966362,0.24885354936122894
1761333581773691000,1.95869091796875,9.884750366210938,0.5623133182525635,0.24406790733337402
1761333581792390000,1.977389892578125,9.882357597351074,0.5431707501411438,0.2392822653055191
1761333581811089000,1.9960888671875,9.884750366210938,0.5431707501411438,0.24646073579788208
1761333581829787600,2.01478759765625,9.877572059631348,0.5383850932121277,0.2392822653055191
1761333581848486700,2.033486572265625,9.875179290771484,0.5479564070701599,0.23688943684101105
1761333581867185700,2.052185546875,9.896714210510254,0.5383850932121277,0.24646073579788208
1761333581885884700,2.070884765625,9.872786521911621,0.5479564070701599,0.25363919138908386
1761333581904583700,2.089583740234375,9.884750366210938,0.5335994362831116,0.24646073579788208
1761333581923282400,2.108282470703125,9.884750366210938,0.5407779216766357,0.22971096634864807
1761333581941981400,2.1269814453125,9.877572059631348,0.550349235534668,0.22971096634864807
1761333581960680400,2.145680419921875,9.868000984191895,0.5312066078186035,0.2560320198535919
1761333581979379500,2.16437939453125,9.882357597351074,0.550349235534668,0.23210379481315613
1761333581998078500,2.183078369140625,9.882357597351074,0.5575276613235474,0.2392822653055191
1761333582016777200,2.201777099609375,9.906285285949707,0.5383850932121277,0.22492532432079315
1761333582035476200,2.220476318359375,9.889535903930664,0.5383850932121277,0.23688943684101105
1761333582054175200,2.23917529296875,9.889535903930664,0.5455635786056519,0.24167509377002716
1761333582072874200,2.257874267578125,9.8871431350708,0.5407779216766357,0.23210379481315613
1761333582091573200,2.2765732421875,9.889535903930664,0.5455635786056519,0.24646073579788208
1761333582110272000,2.29527197265625,9.872786521911621,0.5288137793540955,0.24885354936122894
1761333582128971000,2.313970947265625,9.879964828491211,0.5431707501411438,0.23688943684101105
1761333582147670000,2.332669921875,9.899106979370117,0.5407779216766357,0.23688943684101105
1761333582166369000,2.351369140625,9.882357597351074,0.5455635786056519,0.20817556977272034
1761333582185068000,2.370068115234375,9.896714210510254,0.5312066078186035,0.2512463629245758
1761333582203766800,2.388766845703125,9.868000984191895,0.5312066078186035,0.24167509377002716
1761333582222465800,2.4074658203125,9.891928672790527,0.5407779216766357,0.24885354936122894
1761333582241164800,2.426164794921875,9.877572059631348,0.5240281820297241,0.24406790733337402
1761333582259863600,2.444863525390625,9.891928672790527,0.5144568681716919,0.2584248483181
1761333582278562600,2.4635625,9.891928672790527,0.5335994362831116,0.2560320198535919
1761333582297261600,2.482261474609375,9.877572059631348,0.5359922647476196,0.24885354936122894
1761333582315960600,2.500960693359375,9.865608215332031,0.5407779216766357,0.2512463629245758
1761333582334659600,2.51965966796875,9.889535903930664,0.5312066078186035,0.2273181527853012
1761333582353358600,2.538358642578125,9.8871431350708,0.5527420043945312,0.2560320198535919
1761333582372057300,2.557057373046875,9.870393753051758,0.5359922647476196,0.23449662327766418
1761333582390756400,2.57575634765625,9.877572059631348,0.5383850932121277,0.22013968229293823
1761333582409455400,2.594455322265625,9.875179290771484,0.5240281820297241,0.23210379481315613
1761333582428154400,2.613154296875,9.865608215332031,0.5479564070701599,0.25363919138908386
1761333582446853400,2.631853271484375,9.877572059631348,0.550349235534668,0.24167509377002716
1761333582465552100,2.65055224609375,9.872786521911621,0.5335994362831116,0.2273181527853012
1761333582484251100,2.669251220703125,9.872786521911621,0.5359922647476196,0.23210379481315613
1761333582502950100,2.6879501953125,9.877572059631348,0.5383850932121277,0.23210379481315613
1761333582521649200,2.706649169921875,9.879964828491211,0.550349235534668,0.2392822653055191
1761333582540348200,2.72534814453125,9.891928672790527,0.5240281820297241,0.24406790733337402
1761333582559047000,2.744046875,9.882357597351074,0.550349235534668,0.24406790733337402
1761333582577746000,2.762745849609375,9.879964828491211,0.5288137793540955,0.24406790733337402
1761333582596445000,2.78144482421875,9.877572059631348,0.5335994362831116,0.2273181527853012
1761333582615144000,2.80014404296875,9.879964828491211,0.5527420043945312,0.2392822653055191
1761333582633843000,2.818843017578125,9.879964828491211,0.5479564070701599,0.2584248483181
1761333582652541700,2.837541748046875,9.870393753051758,0.5335994362831116,0.2392822653055191
1761333582671240700,2.85624072265625,9.8871431350708,0.5335994362831116,0.24167509377002716
1761333582689939700,2.874939697265625,9.865608215332031,0.5383850932121277,0.24646073579788208
1761333582708638700,2.893638671875,9.872786521911621,0.5479564070701599,0.22013968229293823
1761333582727337700,2.912337646484375,9.882357597351074,0.5551348328590393,0.24167509377002716
1761333582746036500,2.931036376953125,9.870393753051758,0.5455635786056519,0.22971096634864807
1761333582764735500,2.949735595703125,9.872786521911621,0.5479564070701599,0.23210379481315613
1761333582783434500,2.9684345703125,9.8871431350708,0.5407779216766357,0.2392822653055191
1761333582802133500,2.987133544921875,9.875179290771484,0.5455635786056519,0.23210379481315613
1761333582820832500,3.00583251953125,9.891928672790527,0.5312066078186035,0.24885354936122894
1761333582839531300,3.02453125,9.879964828491211,0.550349235534668,0.23449662327766418
1761333582858230300,3.043230224609375,9.884750366210938,0.5455635786056519,0.23210379481315613
1761333582876929300,3.06192919921875,9.877572059631348,0.5527420043945312,0.22971096634864807
1761333582895628300,3.080628173828125,9.8871431350708,0.5072783827781677,0.24167509377002716
1761333582914327300,3.099327392578125,9.879964828491211,0.5623133182525635,0.23449662327766418
1761333582933026300,3.1180263671875,9.89432144165039,0.5312066078186035,0.23449662327766418
1761333582951725000,3.13672509765625,9.870393753051758,0.5359922647476196,0.22971096634864807
1761333582970424000,3.155424072265625,9.8871431350708,0.5335994362831116,0.22971096634864807
1761333582989123000,3.174123046875,9.889535903930664,0.5312066078186035,0.2392822653055191
1761333583007821800,3.19282177734375,9.882357597351074,0.5407779216766357,0.2273181527853012
1761333583026521000,3.21152099609375,9.889535903930664,0.5288137793540955,0.2560320198535919
1761333583045219800,3.2302197265625,9.89432144165039,0.5383850932121277,0.2273181527853012
1761333583063918800,3.2489189453125,9.882357597351074,0.5359922647476196,0.24167509377002716
1761333583082617900,3.267617919921875,9.879964828491211,0.5479564070701599,0.22971096634864807
1761333583101316600,3.286316650390625,9.882357597351074,0.550349235534668,0.24167509377002716
1761333583120015600,3.305015625,9.868000984191895,0.5407779216766357,0.22492532432079315
1761333583138714600,3.323714599609375,9.896714210510254,0.5527420043945312,0.24646073579788208
1761333583157413600,3.34241357421875,9.870393753051758,0.550349235534668,0.24885354936122894
1761333583176112600,3.361112548828125,9.8871431350708,0.5479564070701599,0.23688943684101105
1761333583194811400,3.379811279296875,9.891928672790527,0.5527420043945312,0.2392822653055191
1761333583213510400,3.398510498046875,9.884750366210938,0.5359922647476196,0.2392822653055191
1761333583232209400,3.41720947265625,9.882357597351074,0.5407779216766357,0.2392822653055191
1761333583250908400,3.435908447265625,9.889535903930664,0.5431707501411438,0.24406790733337402
1761333583269607400,3.454607421875,9.877572059631348,0.5288137793540955,0.2392822653055191
1761333583288306200,3.47330615234375,9.891928672790527,0.5479564070701599,0.24167509377002716
1761333583307005200,3.492005126953125,9.875179290771484,0.5335994362831116,0.23688943684101105
1761333583325704200,3.5107041015625,9.865608215332031,0.5407779216766357,0.23688943684101105
1761333583344403200,3.5294033203125,9.879964828491211,0.5288137793540955,0.24167509377002716
1761333583363102200,3.548102294921875,9.877572059631348,0.550349235534668,0.24646073579788208
1761333583381801000,3.566801025390625,9.872786521911621,0.5240281820297241,0.23210379481315613
1761333583400500000,3.5855,9.879964828491211,0.5479564070701599,0.24406790733337402
1761333583419199000,3.604198974609375,9.891928672790527,0.5312066078186035,0.24646073579788208
1761333583437898000,3.62289794921875,9.889535903930664,0.5407779216766357,0.2584248483181
1761333583456597000,3.641596923828125,9.8871431350708,0.5264210104942322,0.2512463629245758
1761333583475295700,3.660295654296875,9.877572059631348,0.5335994362831116,0.23210379481315613
1761333583493994800,3.678994873046875,9.875179290771484,0.5312066078186035,0.24406790733337402
1761333583512693800,3.69769384765625,9.8871431350708,0.5335994362831116,0.2392822653055191
1761333583531392800,3.716392822265625,9.89432144165039,0.5312066078186035,0.23688943684101105
1761333583550091800,3.735091796875,9.879964828491211,0.5359922647476196,0.24167509377002716
1761333583568790800,3.753790771484375,9.875179290771484,0.5264210104942322,0.23210379481315613
1761333583587489500,3.772489501953125,9.882357597351074,0.5407779216766357,0.25363919138908386
1761333583606188500,3.7911884765625,9.875179290771484,0.5551348328590393,0.2392822653055191
1761333583624887600,3.809887451171875,9.8871431350708,0.550349235534668,0.2512463629245758
1761333583643586600,3.828586669921875,9.884750366210938,0.5312066078186035,0.24167509377002716
1761333583662285600,3.84728564453125,9.891928672790527,0.5383850932121277,0.24167509377002716
1761333583680984300,3.865984375,9.870393753051758,0.5359922647476196,0.22971096634864807
1761333583699683600,3.88468359375,9.875179290771484,0.5599204897880554,0.2392822653055191
1761333583718382300,3.90338232421875,9.889535903930664,0.5312066078186035,0.23688943684101105
1761333583737081300,3.922081298828125,9.889535903930664,0.5527420043945312,0.23449662327766418
1761333583755780400,3.9407802734375,9.877572059631348,0.5383850932121277,0.2273181527853012
1761333583774479400,3.959479248046875,9.879964828491211,0.5312066078186035,0.24885354936122894
1761333583793178400,3.978178466796875,9.884750366210938,0.5431707501411438,0.25363919138908386
1761333583811877000,3.996877197265625,9.879964828491211,0.550349235534668,0.24885354936122894
1761333583830576000,4.015576171875,9.889535903930664,0.5312066078186035,0.23210379481315613
1761333583849275100,4.034275146484375,9.889535903930664,0.5264210104942322,0.25363919138908386
1761333583867974100,4.05297412109375,9.879964828491211,0.5407779216766357,0.24406790733337402
1761333583886673200,4.071673095703125,9.8871431350708,0.5479564070701599,0.24646073579788208
1761333583905372000,4.090371826171875,9.872786521911621,0.5335994362831116,0.2392822653055191
1761333583924071000,4.10907080078125,9.875179290771484,0.5312066078186035,0.23688943684101105
1761333583942770000,4.12777001953125,9.872786521911621,0.5455635786056519,0.24167509377002716
1761333583961469000,4.146468994140625,9.877572059631348,0.5383850932121277,0.22013968229293823
1761333583980168000,4.16516796875,9.879964828491211,0.5383850932121277,0.24885354936122894
1761333583998866700,4.18386669921875,9.877572059631348,0.5264210104942322,0.22971096634864807
1761333584017565700,4.202565673828125,9.868000984191895,0.5455635786056519,0.2392822653055191
1761333584036264700,4.2212646484375,9.889535903930664,0.5264210104942322,0.23688943684101105
1761333584054963500,4.23996337890625,9.8871431350708,0.5431707501411438,0.24406790733337402
1761333584073662700,4.258662841796875,9.884750366210938,0.5407779216766357,0.22971096634864807
1761333584092361500,4.277361572265625,9.879964828491211,0.5431707501411438,0.22013968229293823
1761333584111060500,4.296060546875,9.879964828491211,0.5407779216766357,0.24646073579788208
1761333584129759500,4.314759521484375,9.882357597351074,0.5264210104942322,0.24406790733337402
1761333584148458500,4.33345849609375,9.884750366210938,0.5240281820297241,0.25363919138908386
1761333584167157500,4.352157470703125,9.8871431350708,0.5407779216766357,0.23449662327766418
1761333584185856500,4.3708564453125,9.884750366210938,0.550349235534668,0.24167509377002716
1761333584204555300,4.38955517578125,9.868000984191895,0.5479564070701599,0.2273181527853012
1761333584223254300,4.408254150390625,9.884750366210938,0.5359922647476196,0.2560320198535919
1761333584241953300,4.426953369140625,9.882357597351074,0.5479564070701599,0.23688943684101105
1761333584260652300,4.44565234375,9.889535903930664,0.5431707501411438,0.25363919138908386
1761333584279351300,4.464351318359375,9.889535903930664,0.550349235534668,0.24406790733337402
1761333584298050000,4.483050048828125,9.8871431350708,0.5312066078186035,0.23449662327766418
1761333584316749000,4.5017490234375,9.870393753051758,0.5335994362831116,0.2512463629245758
1761333584335448000,4.520447998046875,9.868000984191895,0.5359922647476196,0.23210379481315613
1761333584354147000,4.53914697265625,9.877572059631348,0.5312066078186035,0.24885354936122894
1761333584372846000,4.55784619140625,9.872786521911621,0.550349235534668,0.24167509377002716
1761333584391545000,4.576545166015625,9.882357597351074,0.5670989751815796,0.24167509377002716
1761333584410244000,4.595244140625,9.89432144165039,0.5216353535652161,0.24167509377002716
1761333584428942800,4.61394287109375,9.863214492797852,0.5455635786056519,0.22971096634864807
1761333584447641900,4.632641845703125,9.896714210510254,0.550349235534668,0.24406790733337402
1761333584466340900,4.6513408203125,9.870393753051758,0.5264210104942322,0.23688943684101105
1761333584485039900,4.670039794921875,9.872786521911621,0.5407779216766357,0.23449662327766418
1761333584503739000,4.68873876953125,9.875179290771484,0.5431707501411438,0.24885354936122894
1761333584522437600,4.707437744140625,9.879964828491211,0.5120640397071838,0.24167509377002716
1761333584541136600,4.72613671875,9.877572059631348,0.5431707501411438,0.24167509377002716
1761333584559835600,4.744835693359375,9.879964828491211,0.5551348328590393,0.24167509377002716
1761333584578534700,4.76353466796875,9.868000984191895,0.5312066078186035,0.23688943684101105
1761333584597233700,4.782233642578125,9.877572059631348,0.5312066078186035,0.23449662327766418
1761333584615932400,4.800932373046875,9.877572059631348,0.5431707501411438,0.24167509377002716
1761333584634631400,4.81963134765625,9.879964828491211,0.5383850932121277,0.23688943684101105
1761333584653330400,4.838330322265625,9.877572059631348,0.5527420043945312,0.2105683982372284
1761333584672029400,4.857029541015625,9.872786521911621,0.5359922647476196,0.24167509377002716
1761333584690728400,4.875728515625,9.884750366210938,0.5096712112426758,0.24885354936122894
1761333584709427200,4.89442724609375,9.879964828491211,0.5335994362831116,0.23688943684101105
1761333584728126200,4.913126220703125,9.872786521911621,0.5431707501411438,0.23449662327766418
1761333584746825200,4.9318251953125,9.875179290771484,0.5527420043945312,0.25363919138908386
1761333584765524200,4.950524169921875,9.879964828491211,0.5407779216766357,0.22492532432079315
1761333584784223200,4.96922314453125,9.879964828491211,0.5455635786056519,0.24167509377002716
1761333584802922200,4.987922119140625,9.877572059631348,0.5216353535652161,0.24406790733337402
1761333584821621200,5.006621337890625,9.875179290771484,0.5264210104942322,0.23688943684101105
1761333584840320300,5.0253203125,9.8871431350708,0.5407779216766357,0.24406790733337402
1761333584859019000,5.04401904296875,9.870393753051758,0.5240281820297241,0.2392822653055191
1761333584877718000,5.062718017578125,9.899106979370117,0.5431707501411438,0.24406790733337402
1761333584896417000,5.0814169921875,9.877572059631348,0.5431707501411438,0.2392822653055191
1761333584915116000,5.100115966796875,9.899106979370117,0.5216353535652161,0.2273181527853012
1761333584933815000,5.11881494140625,9.8871431350708,0.5455635786056519,0.2273181527853012
1761333584952513800,5.137513671875,9.882357597351074,0.5575276613235474,0.25363919138908386
1761333584971212800,5.156212890625,9.875179290771484,0.5527420043945312,0.25363919138908386
1761333584989911800,5.174911865234375,9.877572059631348,0.5359922647476196,0.23688943684101105
1761333585008610800,5.19361083984375,9.89432144165039,0.5264210104942322,0.21774685382843018
1761333585027309800,5.212309814453125,9.896714210510254,0.5431707501411438,0.22492532432079315
1761333585046008800,5.2310087890625,9.879964828491211,0.519242525100708,0.2273181527853012
1761333585064707800,5.249707763671875,9.884750366210938,0.5431707501411438,0.22971096634864807
1761333585083406600,5.268406494140625,9.877572059631348,0.5335994362831116,0.2512463629245758
1761333585102105600,5.287105712890625,9.877572059631348,0.5335994362831116,0.23688943684101105
1761333585120804600,5.3058046875,9.875179290771484,0.5431707501411438,0.23449662327766418
1761333585139503600,5.324503662109375,9.899106979370117,0.5431707501411438,0.2273181527853012
1761333585158202600,5.34320263671875,9.8871431350708,0.5264210104942322,0.24406790733337402
1761333585176901400,5.3619013671875,9.882357597351074,0.5383850932121277,0.2392822653055191
1761333585195600400,5.380600341796875,9.875179290771484,0.5479564070701599,0.2512463629245758
1761333585214299400,5.39929931640625,9.889535903930664,0.550349235534668,0.23688943684101105
1761333585232998400,5.417998291015625,9.8871431350708,0.5312066078186035,0.2225325107574463
1761333585251697400,5.436697509765625,9.872786521911621,0.5431707501411438,0.2512463629245758
1761333585270396200,5.455396240234375,9.899106979370117,0.5312066078186035,0.24646073579788208
1761333585289095400,5.474095458984375,9.8871431350708,0.5312066078186035,0.23449662327766418
1761333585307794400,5.49279443359375,9.884750366210938,0.5359922647476196,0.24406790733337402
1761333585326493200,5.5114931640625,9.870393753051758,0.5312066078186035,0.21296121180057526
1761333585345192200,5.530192138671875,9.89432144165039,0.5670989751815796,0.2392822653055191
1761333585363891200,5.54889111328125,9.877572059631348,0.5527420043945312,0.24406790733337402
1761333585382590200,5.567590087890625,9.863214492797852,0.5455635786056519,0.23449662327766418
1761333585401289200,5.586289306640625,9.875179290771484,0.5383850932121277,0.24646073579788208
1761333585419988000,5.604988037109375,9.879964828491211,0.5264210104942322,0.23210379481315613
1761333585438687000,5.62368701171875,9.879964828491211,0.5240281820297241,0.24885354936122894
1761333585457386000,5.642385986328125,9.877572059631348,0.5240281820297241,0.23210379481315613
1761333585476085000,5.6610849609375,9.882357597351074,0.5455635786056519,0.24885354936122894
1761333585494784000,5.679783935546875,9.8871431350708,0.5527420043945312,0.25363919138908386
1761333585513483000,5.69848291015625,9.8871431350708,0.5431707501411438,0.24646073579788208
1761333585532182000,5.71718212890625,9.889535903930664,0.5335994362831116,0.24885354936122894
1761333585550880800,5.735880859375,9.8871431350708,0.5455635786056519,0.24167509377002716
1761333585569579800,5.754579833984375,9.891928672790527,0.5216353535652161,0.24646073579788208
1761333585588278800,5.77327880859375,9.889535903930664,0.5551348328590393,0.23688943684101105
1761333585606977800,5.791977783203125,9.875179290771484,0.5431707501411438,0.25363919138908386
1761333585625676800,5.8106767578125,9.879964828491211,0.5264210104942322,0.22971096634864807
1761333585644375600,5.82937548828125,9.865608215332031,0.5599204897880554,0.2273181527853012
1761333585663074600,5.848074462890625,9.882357597351074,0.5431707501411438,0.25363919138908386
1761333585681773600,5.866773681640625,9.863214492797852,0.5288137793540955,0.22971096634864807
1761333585700472600,5.88547265625,9.877572059631348,0.5575276613235474,0.24406790733337402
1761333585719171600,5.904171630859375,9.891928672790527,0.5455635786056519,0.23210379481315613
1761333585737870600,5.92287060546875,9.879964828491211,0.5479564070701599,0.23210379481315613
1761333585756569600,5.941569580078125,9.872786521911621,0.5455635786056519,0.2273181527853012
1761333585775268400,5.960268310546875,9.863214492797852,0.5479564070701599,0.24406790733337402
1761333585793967400,5.97896728515625,9.89432144165039,0.5551348328590393,0.24406790733337402
1761333585812666400,5.997666259765625,9.899106979370117,0.5575276613235474,0.2273181527853012
1761333585831365400,6.016365478515625,9.891928672790527,0.5335994362831116,0.25363919138908386
1761333585850064400,6.035064453125,9.879964828491211,0.5527420043945312,0.23449662327766418
1761333585868763400,6.053763427734375,9.8871431350708,0.5335994362831116,0.2273181527853012
1761333585887462400,6.07246240234375,9.872786521911621,0.5455635786056519,0.23688943684101105
1761333585906161400,6.091161376953125,9.877572059631348,0.5216353535652161,0.25363919138908386
1761333585924860200,6.109860107421875,9.877572059631348,0.5383850932121277,0.2512463629245758
1761333585943559200,6.12855908203125,9.879964828491211,0.5312066078186035,0.24167509377002716
1761333585962258200,6.147258056640625,9.8871431350708,0.5455635786056519,0.23210379481315613
1761333585980957200,6.165957275390625,9.889535903930664,0.5312066078186035,0.24885354936122894
1761333585999656200,6.18465625,9.879964828491211,0.5527420043945312,0.2512463629245758
1761333586018355200,6.203355224609375,9.8871431350708,0.5623133182525635,0.23688943684101105
1761333586037054200,6.22205419921875,9.884750366210938,0.5383850932121277,0.22013968229293823
1761333586055753000,6.2407529296875,9.872786521911621,0.5383850932121277,0.2512463629245758
1761333586074452000,6.259451904296875,9.870393753051758,0.5431707501411438,0.24885354936122894
1761333586093151000,6.27815087890625,9.872786521911621,0.5407779216766357,0.22971096634864807
1761333586111850000,6.29685009765625,9.8871431350708,0.5240281820297241,0.2273181527853012
1761333586130549000,6.315549072265625,9.872786521911621,0.5527420043945312,0.2392822653055191
1761333586149248000,6.334248046875,9.877572059631348,0.5359922647476196,0.23688943684101105
1761333586167947000,6.352947021484375,9.877572059631348,0.5288137793540955,0.24406790733337402
1761333586186645800,6.371645751953125,9.903892517089844,0.5551348328590393,0.24406790733337402
1761333586205344800,6.3903447265625,9.882357597351074,0.5407779216766357,0.23688943684101105
1761333586224043800,6.409043701171875,9.899106979370117,0.5431707501411438,0.2512463629245758
1761333586242742800,6.42774267578125,9.89432144165039,0.550349235534668,0.24646073579788208
1761333586261441800,6.44644189453125,9.891928672790527,0.5288137793540955,0.2392822653055191
1761333586280140500,6.465140625,9.882357597351074,0.5431707501411438,0.24646073579788208
1761333586298839800,6.48383984375,9.879964828491211,0.5407779216766357,0.22971096634864807
1761333586317538600,6.50253857421875,9.8871431350708,0.5335994362831116,0.23688943684101105
1761333586336237600,6.521237548828125,9.872786521911621,0.5407779216766357,0.23688943684101105
1761333586354936600,6.5399365234375,9.882357597351074,0.5383850932121277,0.24167509377002716
1761333586373635600,6.558635498046875,9.882357597351074,0.5527420043945312,0.23210379481315613
1761333586392334600,6.57733447265625,9.872786521911621,0.5383850932121277,0.2392822653055191
1761333586411033300,6.596033447265625,9.879964828491211,0.5240281820297241,0.2392822653055191
1761333586429732600,6.614732666015625,9.870393753051758,0.5264210104942322,0.2560320198535919
1761333586448431600,6.633431640625,9.896714210510254,0.5431707501411438,0.23688943684101105
1761333586467130400,6.65213037109375,9.89432144165039,0.5479564070701599,0.24167509377002716
1761333586485829400,6.670829345703125,9.872786521911621,0.5431707501411438,0.24406790733337402
1761333586504528400,6.6895283203125,9.877572059631348,0.5240281820297241,0.23688943684101105
1761333586523227400,6.708227294921875,9.877572059631348,0.5479564070701599,0.23449662327766418
1761333586541926400,6.726926513671875,9.882357597351074,0.5527420043945312,0.23210379481315613
1761333586560625400,6.74562548828125,9.884750366210938,0.5359922647476196,0.24167509377002716
1761333586579324400,6.764324462890625,9.870393753051758,0.5359922647476196,0.23449662327766418
1761333586598023200,6.783023193359375,9.879964828491211,0.5359922647476196,0.24406790733337402
1761333586616722200,6.80172216796875,9.879964828491211,0.5551348328590393,0.22013968229293823
1761333586635421200,6.820421142578125,9.8871431350708,0.5407779216766357,0.22971096634864807
1761333586654120200,6.8391201171875,9.899106979370117,0.5623133182525635,0.24167509377002716
1761333586672819200,6.857819091796875,9.870393753051758,0.5240281820297241,0.24885354936122894
1761333586691518200,6.876518310546875,9.882357597351074,0.5288137793540955,0.24885354936122894
1761333586710217200,6.89521728515625,9.884750366210938,0.5599204897880554,0.23449662327766418
1761333586728916000,6.913916015625,9.868000984191895,0.550349235534668,0.2512463629245758
1761333586747615000,6.932614990234375,9.882357597351074,0.5288137793540955,0.24167509377002716
1761333586766314000,6.95131396484375,9.882357597351074,0.5431707501411438,0.24646073579788208
1761333586785013000,6.970012939453125,9.877572059631348,0.550349235534668,0.24406790733337402
1761333586803712000,6.9887119140625,9.882357597351074,0.5168496966362,0.23210379481315613
1761333586822411000,7.007410888671875,9.872786521911621,0.5312066078186035,0.22492532432079315
1761333586841110000,7.026110107421875,9.870393753051758,0.5335994362831116,0.2273181527853012
1761333586859808800,7.044808837890625,9.872786521911621,0.5335994362831116,0.23210379481315613
1761333586878507800,7.0635078125,9.875179290771484,0.5288137793540955,0.2225325107574463
1761333586897206800,7.082206787109375,9.89432144165039,0.550349235534668,0.2392822653055191
1761333586915905800,7.10090576171875,9.90149974822998,0.5431707501411438,0.24885354936122894
1761333586934604800,7.119604736328125,9.89432144165039,0.5551348328590393,0.23210379481315613
1761333586953303800,7.1383037109375,9.8871431350708,0.5431707501411438,0.2225325107574463
1761333586972002800,7.1570029296875,9.89432144165039,0.550349235534668,0.24406790733337402
1761333586990701800,7.175701904296875,9.882357597351074,0.5407779216766357,0.23688943684101105
1761333587009400600,7.194400634765625,9.90149974822998,0.5455635786056519,0.23449662327766418
1761333587028099800,7.213099853515625,9.884750366210938,0.5335994362831116,0.2273181527853012
1761333587046798600,7.231798583984375,9.872786521911621,0.5431707501411438,0.25363919138908386
1761333587065497600,7.25049755859375,9.891928672790527,0.5240281820297241,0.2273181527853012
1761333587084196600,7.269196533203125,9.8871431350708,0.5312066078186035,0.23210379481315613
1761333587102895600,7.2878955078125,9.865608215332031,0.5264210104942322,0.23688943684101105
1761333587121594600,7.3065947265625,9.879964828491211,0.550349235534668,0.24167509377002716
1761333587140293400,7.32529345703125,9.879964828491211,0.5216353535652161,0.23688943684101105
1761333587158992600,7.34399267578125,9.882357597351074,0.5359922647476196,0.2560320198535919
1761333587177691400,7.36269140625,9.872786521911621,0.5312066078186035,0.23449662327766418
1761333587196390400,7.381390380859375,9.884750366210938,0.5431707501411438,0.26081767678260803
1761333587215089400,7.40008935546875,9.879964828491211,0.5479564070701599,0.23449662327766418
1761333587233788400,7.418788330078125,9.89432144165039,0.5359922647476196,0.2392822653055191
1761333587252487400,7.4374873046875,9.884750366210938,0.5431707501411438,0.23210379481315613
1761333587271186400,7.4561865234375,9.868000984191895,0.5455635786056519,0.24167509377002716
1761333587289885400,7.474885498046875,9.879964828491211,0.5383850932121277,0.24646073579788208
1761333587308584200,7.493584228515625,9.8871431350708,0.5335994362831116,0.24885354936122894
1761333587327283200,7.512283203125,9.870393753051758,0.5527420043945312,0.24167509377002716
1761333587345982200,7.530982177734375,9.870393753051758,0.5312066078186035,0.25363919138908386
1761333587364681200,7.54968115234375,9.8871431350708,0.5431707501411438,0.26081767678260803
1761333587383380200,7.568380126953125,9.896714210510254,0.5455635786056519,0.23688943684101105
1761333587402079200,7.587079345703125,9.884750366210938,0.5599204897880554,0.24406790733337402
1761333587420778200,7.6057783203125,9.872786521911621,0.5479564070701599,0.2584248483181
1761333587439477000,7.62447705078125,9.891928672790527,0.5264210104942322,0.27038896083831787
1761333587458176000,7.643176025390625,9.872786521911621,0.5527420043945312,0.2512463629245758
1761333587476875300,7.661875244140625,9.891928672790527,0.5264210104942322,0.2632105052471161
1761333587495574000,7.680573974609375,9.882357597351074,0.5288137793540955,0.23210379481315613
1761333587514273000,7.69927294921875,9.877572059631348,0.5407779216766357,0.2392822653055191
1761333587532972000,7.717971923828125,9.889535903930664,0.5312066078186035,0.24167509377002716
1761333587551671000,7.736671142578125,9.884750366210938,0.5527420043945312,0.24646073579788208
1761333587570370000,7.7553701171875,9.872786521911621,0.5383850932121277,0.2225325107574463
1761333587589069000,7.774069091796875,9.899106979370117,0.5527420043945312,0.2392822653055191
1761333587607768000,7.79276806640625,9.875179290771484,0.5359922647476196,0.24406790733337402
1761333587626466800,7.811466796875,9.872786521911621,0.5527420043945312,0.24167509377002716
1761333587645165800,7.830165771484375,9.872786521911621,0.519242525100708,0.2560320198535919
1761333587663864800,7.84886474609375,9.875179290771484,0.5575276613235474,0.24406790733337402
1761333587682563800,7.867563720703125,9.884750366210938,0.550349235534668,0.23688943684101105
1761333587701262800,7.886262939453125,9.891928672790527,0.5264210104942322,0.2512463629245758
1761333587719961900,7.9049619140625,9.8871431350708,0.5455635786056519,0.25363919138908386
1761333587738660900,7.923660888671875,9.889535903930664,0.5359922647476196,0.23210379481315613
1761333587757359600,7.942359619140625,9.865608215332031,0.5264210104942322,0.23210379481315613
1761333587776058600,7.96105859375,9.877572059631348,0.519242525100708,0.2512463629245758
1761333587794757600,7.979757568359375,9.882357597351074,0.5431707501411438,0.23688943684101105
1761333587813456600,7.99845654296875,9.899106979370117,0.5359922647476196,0.23210379481315613
1761333587832155600,8.01715576171875,9.891928672790527,0.5288137793540955,0.2512463629245758
1761333587850854700,8.035854736328124,9.889535903930664,0.5455635786056519,0.2392822653055191
1761333587869553700,8.0545537109375,9.870393753051758,0.5479564070701599,0.23210379481315613
1761333587888252700,8.073252685546874,9.868000984191895,0.550349235534668,0.24167509377002716
1761333587906951700,8.09195166015625,9.884750366210938,0.550349235534668,0.24406790733337402
1761333587925650400,8.110650390625,9.875179290771484,0.5407779216766357,0.24167509377002716
1761333587944349400,8.129349365234376,9.872786521911621,0.5479564070701599,0.24646073579788208
1761333587963048400,8.14804833984375,9.868000984191895,0.5359922647476196,0.24646073579788208
1761333587981747500,8.16674755859375,9.889535903930664,0.5479564070701599,0.24406790733337402
1761333588000446500,8.185446533203125,9.872786521911621,0.5288137793540955,0.24646073579788208
1761333588019145500,8.2041455078125,9.889535903930664,0.5335994362831116,0.23688943684101105
1761333588037844500,8.222844482421875,9.89432144165039,0.5312066078186035,0.24406790733337402
1761333588056543500,8.24154345703125,9.868000984191895,0.5455635786056519,0.2512463629245758
1761333588075242500,8.260242431640625,9.891928672790527,0.5312066078186035,0.23688943684101105
1761333588093941500,8.27894140625,9.8871431350708,0.5527420043945312,0.23688943684101105
1761333588112640300,8.29764013671875,9.877572059631348,0.5264210104942322,0.22971096634864807
1761333588131339300,8.31633935546875,9.877572059631348,0.5312066078186035,0.23688943684101105
1761333588150038300,8.335038330078126,9.884750366210938,0.5407779216766357,0.23449662327766418
1761333588168737300,8.3537373046875,9.884750366210938,0.5407779216766357,0.25363919138908386
1761333588187436300,8.372436279296876,9.879964828491211,0.5455635786056519,0.2392822653055191
1761333588206135300,8.39113525390625,9.882357597351074,0.5407779216766357,0.22492532432079315
1761333588224834300,8.409834228515624,9.877572059631348,0.5312066078186035,0.2273181527853012
1761333588243533000,8.428532958984375,9.889535903930664,0.5431707501411438,0.22492532432079315
1761333588262232300,8.447232421875,9.89432144165039,0.5407779216766357,0.24406790733337402
1761333588280931000,8.46593115234375,9.891928672790527,0.5312066078186035,0.23210379481315613
1761333588299630000,8.484630126953125,9.889535903930664,0.5407779216766357,0.23449662327766418
1761333588318329000,8.5033291015625,9.884750366210938,0.5551348328590393,0.23688943684101105
1761333588337028000,8.522028076171875,9.8871431350708,0.5288137793540955,0.23688943684101105
1761333588355727000,8.54072705078125,9.891928672790527,0.5312066078186035,0.24406790733337402
1761333588374426000,8.559426025390625,9.872786521911621,0.5479564070701599,0.2512463629245758
1761333588393125000,8.578125,9.879964828491211,0.5359922647476196,0.21774685382843018
1761333588411823900,8.596823974609375,9.863214492797852,0.5312066078186035,0.23449662327766418
1761333588430523000,8.61552294921875,9.884750366210938,0.5312066078186035,0.24167509377002716
1761333588449222000,8.634221923828125,9.870393753051758,0.5551348328590393,0.23449662327766418
1761333588467921000,8.6529208984375,9.879964828491211,0.5359922647476196,0.24167509377002716
1761333588486620000,8.671619873046875,9.879964828491211,0.5359922647476196,0.24406790733337402
1761333588505319000,8.69031884765625,9.877572059631348,0.5216353535652161,0.23688943684101105
1761333588524018000,8.709017822265626,9.891928672790527,0.5359922647476196,0.24646073579788208
1761333588542717000,8.727717041015625,9.899106979370117,0.5383850932121277,0.24406790733337402
1761333588561416000,8.746416015625,9.882357597351074,0.5312066078186035,0.2512463629245758
1761333588580115000,8.765114990234375,9.884750366210938,0.550349235534668,0.21296121180057526
1761333588598813700,8.783813720703124,9.884750366210938,0.5431707501411438,0.2560320198535919
1761333588617512700,8.8025126953125,9.872786521911621,0.5359922647476196,0.24646073579788208
1761333588636211700,8.821211669921874,9.882357597351074,0.5551348328590393,0.24885354936122894
1761333588654910700,8.83991064453125,9.879964828491211,0.5527420043945312,0.24406790733337402
1761333588673609700,8.858609619140625,9.8871431350708,0.5335994362831116,0.24167509377002716
1761333588692308700,8.877308837890626,9.90149974822998,0.5383850932121277,0.24406790733337402
1761333588711007700,8.8960078125,9.875179290771484,0.5264210104942322,0.22971096634864807
1761333588729706500,8.91470654296875,9.884750366210938,0.5335994362831116,0.24406790733337402
1761333588748405800,8.93340576171875,9.90149974822998,0.5359922647476196,0.2273181527853012
1761333588767104500,8.9521044921875,9.870393753051758,0.5407779216766357,0.2584248483181
1761333588785803500,8.970803466796875,9.879964828491211,0.5312066078186035,0.23449662327766418
1761333588804502500,8.98950244140625,9.868000984191895,0.5479564070701599,0.24406790733337402
1761333588823201500,9.008201416015625,9.8871431350708,0.5264210104942322,0.2560320198535919
1761333588841900500,9.026900634765624,9.882357597351074,0.5431707501411438,0.2273181527853012
1761333588860599600,9.045599609375,9.8871431350708,0.5359922647476196,0.23210379481315613
1761333588879298600,9.064298583984375,9.884750366210938,0.5359922647476196,0.24167509377002716
1761333588897997300,9.082997314453126,9.944570541381836,0.5312066078186035,0.24646073579788208
1761333588916696600,9.101696533203125,9.891928672790527,0.5264210104942322,0.23449662327766418
1761333588935395300,9.120395263671876,9.870393753051758,0.5407779216766357,0.2512463629245758
1761333588954094300,9.13909423828125,9.891928672790527,0.5407779216766357,0.24167509377002716
1761333588972793300,9.15779345703125,9.8871431350708,0.550349235534668,0.22971096634864807
1761333588991492400,9.176492431640625,9.872786521911621,0.5288137793540955,0.2512463629245758
1761333589010191400,9.19519140625,9.8871431350708,0.5431707501411438,0.23688943684101105
1761333589028890400,9.213890380859375,9.882357597351074,0.5335994362831116,0.26081767678260803
1761333589047589400,9.23258935546875,9.896714210510254,0.5383850932121277,0.22971096634864807
1761333589066288400,9.251288330078125,9.896714210510254,0.5431707501411438,0.2392822653055191
1761333589084987100,9.269987060546875,9.891928672790527,0.5670989751815796,0.23210379481315613
1761333589103686400,9.288686279296876,9.899106979370117,0.5359922647476196,0.23688943684101105
1761333589122385200,9.30738525390625,9.896714210510254,0.5599204897880554,0.23688943684101105
1761333589141084200,9.326084228515626,9.8871431350708,0.5623133182525635,0.22492532432079315
1761333589159783200,9.344783203125,9.889535903930664,0.5407779216766357,0.24167509377002716
1761333589178482200,9.363482177734374,9.884750366210938,0.5383850932121277,0.24885354936122894
1761333589197181200,9.38218115234375,9.863214492797852,0.5288137793540955,0.22492532432079315
1761333589215880200,9.400880126953124,9.889535903930664,0.5527420043945312,0.23449662327766418
1761333589234579200,9.4195791015625,9.877572059631348,0.5455635786056519,0.23688943684101105
1761333589253278000,9.43827783203125,9.913464546203613,0.5527420043945312,0.24406790733337402
1761333589271977000,9.45697705078125,9.877572059631348,0.5383850932121277,0.23449662327766418
1761333589290676000,9.475676025390625,9.992427825927734,0.5383850932121277,0.26560330390930176
1761333589309375000,9.494375,9.913464546203613,0.5479564070701599,0.24167509377002716
1761333589328074000,9.513073974609375,9.860821723937988,0.5359922647476196,0.2273181527853012
1761333589346773000,9.53177294921875,9.884750366210938,0.5264210104942322,0.2392822653055191
1761333589365472000,9.550471923828125,9.884750366210938,0.5144568681716919,0.23688943684101105
1761333589384171000,9.5691708984375,9.884750366210938,0.5335994362831116,0.24406790733337402
1761333589402870000,9.5878701171875,9.875179290771484,0.5240281820297241,0.22971096634864807
1761333589421568800,9.60656884765625,9.8871431350708,0.5359922647476196,0.23449662327766418
1761333589440267800,9.625267822265625,9.8871431350708,0.5407779216766357,0.25363919138908386
1761333589458966800,9.643966796875,9.884750366210938,0.5479564070701599,0.22971096634864807
1761333589477665800,9.662665771484376,9.889535903930664,0.5288137793540955,0.23210379481315613
1761333589496364800,9.68136474609375,9.882357597351074,0.5455635786056519,0.2512463629245758
1761333589515063800,9.700063720703126,9.884750366210938,0.5335994362831116,0.23449662327766418
1761333589533762800,9.7187626953125,9.884750366210938,0.5407779216766357,0.2392822653055191
1761333589552461800,9.7374619140625,9.8871431350708,0.5264210104942322,0.24167509377002716
1761333589571160800,9.756160888671875,9.872786521911621,0.5431707501411438,0.22971096634864807
1761333589589859800,9.77485986328125,9.89432144165039,0.5312066078186035,0.24646073579788208
1761333589608558600,9.79355859375,9.882357597351074,0.5240281820297241,0.23210379481315613
1761333589627257600,9.812257568359374,9.870393753051758,0.5264210104942322,0.24646073579788208
1761333589645956600,9.83095654296875,9.891928672790527,0.5431707501411438,0.22971096634864807
1761333589664655600,9.849655517578125,9.884750366210938,0.5455635786056519,0.24406790733337402
1761333589683354600,9.868354736328126,9.877572059631348,0.550349235534668,0.23449662327766418
1761333589702053600,9.8870537109375,9.884750366210938,0.5527420043945312,0.2560320198535919
1761333589720752600,9.905752685546876,9.8871431350708,0.5575276613235474,0.23449662327766418
1761333589739451600,9.92445166015625,9.884750366210938,0.5527420043945312,0.2512463629245758
1761333589758150700,9.943150634765624,9.877572059631348,0.5359922647476196,0.2560320198535919
1761333589776849400,9.961849365234375,9.884750366210938,0.5407779216766357,0.2512463629245758
1761333589795548400,9.98054833984375,9.891928672790527,0.5359922647476196,0.24646073579788208
1761333589814247400,9.999247314453125,9.865608215332031,0.5335994362831116,0.24167509377002716
1761333589832946400,10.017946533203125,9.877572059631348,0.5455635786056519,0.2512463629245758
1761333589851645400,10.0366455078125,9.884750366210938,0.5335994362831116,0.2392822653055191
1761333589870344400,10.055344482421875,9.865608215332031,0.5431707501411438,0.2392822653055191
1761333589889043500,10.07404345703125,9.875179290771484,0.5383850932121277,0.22492532432079315
1761333589907742500,10.092742431640625,9.8871431350708,0.5455635786056519,0.22971096634864807
1761333589926441500,10.11144140625,9.903892517089844,0.5407779216766357,0.2392822653055191
1761333589945140200,10.13014013671875,9.865608215332031,0.5288137793540955,0.24167509377002716
1761333589963839200,10.148839111328124,9.875179290771484,0.5359922647476196,0.24646073579788208
1761333589982538200,10.167538330078125,9.889535903930664,0.5407779216766357,0.22492532432079315
1761333590001237200,10.1862373046875,9.863214492797852,0.5479564070701599,0.24646073579788208
1761333590019936300,10.204936279296875,9.903892517089844,0.5383850932121277,0.23449662327766418
1761333590038635300,10.22363525390625,9.879964828491211,0.5264210104942322,0.23210379481315613
1761333590057334300,10.242334228515626,9.891928672790527,0.5359922647476196,0.24167509377002716
1761333590076033300,10.261033203125,9.89432144165039,0.5479564070701599,0.2392822653055191
1761333590094732300,10.279732177734376,9.860821723937988,0.5455635786056519,0.2392822653055191
1761333590113431300,10.298431396484375,9.896714210510254,0.5407779216766357,0.24406790733337402
1761333590132130000,10.317130126953124,9.884750366210938,0.5455635786056519,0.21774685382843018
1761333590150829300,10.335829345703125,9.872786521911621,0.550349235534668,0.23688943684101105
1761333590169528000,10.354528076171874,9.882357597351074,0.5264210104942322,0.23688943684101105
1761333590188227000,10.37322705078125,9.8871431350708,0.5383850932121277,0.23449662327766418
1761333590206926000,10.391926025390624,9.889535903930664,0.5479564070701599,0.24406790733337402
1761333590225625000,10.410625,9.8871431350708,0.5264210104942322,0.24885354936122894
1761333590244324000,10.429323974609375,9.8871431350708,0.5312066078186035,0.23688943684101105
1761333590263023000,10.448023193359376,9.875179290771484,0.5431707501411438,0.2392822653055191
1761333590281722000,10.46672216796875,9.879964828491211,0.5455635786056519,0.24167509377002716
1761333590300420900,10.4854208984375,9.870393753051758,0.5527420043945312,0.24885354936122894
1761333590319120100,10.5041201171875,9.872786521911621,0.5575276613235474,0.24406790733337402
1761333590337819000,10.52281884765625,9.877572059631348,0.5551348328590393,0.21774685382843018
1761333590356518000,10.541517822265625,9.877572059631348,0.5240281820297241,0.24885354936122894
1761333590375217000,10.560216796875,9.872786521911621,0.5335994362831116,0.25363919138908386
1761333590393916000,10.578916015625,9.889535903930664,0.5312066078186035,0.23210379481315613
1761333590412615000,10.597614990234375,9.8871431350708,0.5407779216766357,0.24646073579788208
1761333590431314000,10.61631396484375,9.879964828491211,0.5407779216766357,0.23688943684101105
1761333590450013000,10.635012939453125,9.875179290771484,0.5455635786056519,0.25363919138908386
1761333590468711700,10.653711669921876,9.906285285949707,0.5383850932121277,0.24646073579788208
1761333590487411000,10.672410888671875,9.875179290771484,0.5288137793540955,0.24167509377002716
1761333590506110000,10.69110986328125,9.877572059631348,0.5455635786056519,0.24167509377002716
1761333590524808700,10.70980859375,9.8871431350708,0.550349235534668,0.23688943684101105
1761333590543507700,10.7285078125,9.868000984191895,0.5455635786056519,0.24406790733337402
1761333590562206700,10.747206787109375,9.879964828491211,0.5264210104942322,0.24885354936122894
1761333590580905700,10.76590576171875,9.877572059631348,0.5479564070701599,0.23210379481315613
1761333590599604700,10.784604736328125,9.89432144165039,0.5288137793540955,0.23449662327766418
1761333590618303700,10.8033037109375,9.8871431350708,0.5551348328590393,0.24646073579788208
1761333590637002800,10.822002685546876,9.877572059631348,0.519242525100708,0.2560320198535919
1761333590655701800,10.84070166015625,9.889535903930664,0.5359922647476196,0.24406790733337402
1761333590674400800,10.85940087890625,9.896714210510254,0.5479564070701599,0.24885354936122894
1761333590693099500,10.878099609375,9.839286804199219,0.5431707501411438,0.21774685382843018
1761333590711798500,10.896798583984374,9.923035621643066,0.5335994362831116,0.26081767678260803
1761333590730497500,10.91549755859375,9.827322959899902,0.5288137793540955,0.22492532432079315
1761333590749196500,10.934196533203124,9.90149974822998,0.5312066078186035,0.23210379481315613
1761333590767895600,10.9528955078125,9.863214492797852,0.5479564070701599,0.24885354936122894
1761333590786594600,10.971594482421875,9.884750366210938,0.5647061467170715,0.24406790733337402
1761333590805293600,10.99029345703125,9.889535903930664,0.5479564070701599,0.23210379481315613
1761333590823992600,11.00899267578125,9.879964828491211,0.5288137793540955,0.24646073579788208
1761333590842691600,11.027691650390626,9.889535903930664,0.5431707501411438,0.22971096634864807
1761333590861390300,11.046390380859375,9.879964828491211,0.5383850932121277,0.2392822653055191
1761333590880089300,11.06508935546875,9.884750366210938,0.5240281820297241,0.25363919138908386
1761333590898788400,11.083788330078125,9.884750366210938,0.5551348328590393,0.23210379481315613
1761333590917487400,11.1024873046875,9.884750366210938,0.5455635786056519,0.2512463629245758
1761333590936186400,11.121186279296875,9.889535903930664,0.5264210104942322,0.2512463629245758
1761333590954885400,11.139885498046874,9.882357597351074,0.5312066078186035,0.2273181527853012
1761333590973584400,11.15858447265625,9.872786521911621,0.5407779216766357,0.23210379481315613
1761333590992283400,11.177283447265625,9.89432144165039,0.550349235534668,0.25363919138908386
1761333591010982400,11.195982421875,9.870393753051758,0.5312066078186035,0.23449662327766418
1761333591029681400,11.214681396484375,9.889535903930664,0.550349235534668,0.23449662327766418
1761333591048380200,11.233380126953126,9.884750366210938,0.5359922647476196,0.2392822653055191
1761333591067079200,11.2520791015625,9.865608215332031,0.5431707501411438,0.24646073579788208
1761333591085778200,11.270778076171876,9.870393753051758,0.5216353535652161,0.2512463629245758
1761333591104477200,11.289477294921875,9.884750366210938,0.5623133182525635,0.24167509377002716
1761333591123176200,11.30817626953125,9.875179290771484,0.5455635786056519,0.23449662327766418
1761333591141875200,11.326875244140625,9.879964828491211,0.5312066078186035,0.23688943684101105
1761333591160574200,11.34557421875,9.872786521911621,0.5312066078186035,0.24646073579788208
1761333591179273200,11.364273193359375,9.879964828491211,0.5288137793540955,0.24885354936122894
1761333591197972200,11.38297216796875,9.8871431350708,0.5312066078186035,0.2632105052471161
1761333591216671000,11.4016708984375,9.884750366210938,0.5335994362831116,0.24167509377002716
1761333591235370200,11.420370361328125,9.882357597351074,0.5479564070701599,0.24406790733337402
1761333591254069000,11.439069091796876,9.870393753051758,0.5072783827781677,0.24167509377002716
1761333591272768000,11.45776806640625,9.875179290771484,0.5264210104942322,0.24646073579788208
1761333591291467000,11.476467041015624,9.889535903930664,0.5479564070701599,0.24167509377002716
1761333591310166000,11.495166015625,9.889535903930664,0.5288137793540955,0.24646073579788208
1761333591328865000,11.513864990234374,9.877572059631348,0.5312066078186035,0.24646073579788208
1761333591347564000,11.53256396484375,9.89432144165039,0.5335994362831116,0.2273181527853012
1761333591366263000,11.551262939453125,9.882357597351074,0.5431707501411438,0.22971096634864807
1761333591384961800,11.5699619140625,9.882357597351074,0.5288137793540955,0.24167509377002716
1761333591403661000,11.5886611328125,9.882357597351074,0.5431707501411438,0.24646073579788208
1761333591422359800,11.60735986328125,9.889535903930664,0.550349235534668,0.24885354936122894
1761333591441058800,11.626058837890625,9.870393753051758,0.5407779216766357,0.24167509377002716
1761333591459757800,11.6447578125,9.858428955078125,0.519242525100708,0.24646073579788208
1761333591478456800,11.663456787109375,9.961320877075195,0.5455635786056519,0.23449662327766418
1761333591497155800,11.68215576171875,9.834501266479492,0.5455635786056519,0.24885354936122894
1761333591515854800,11.700854736328125,9.908679008483887,0.5479564070701599,0.25363919138908386
1761333591534553900,11.719553955078124,9.872786521911621,0.5288137793540955,0.23449662327766418
1761333591553252900,11.7382529296875,9.882357597351074,0.5431707501411438,0.23449662327766418
1761333591571951900,11.756951904296875,9.872786521911621,0.5335994362831116,0.2225325107574463
1761333591590651000,11.77565087890625,9.868000984191895,0.5407779216766357,0.23449662327766418
1761333591609349600,11.794349609375,9.891928672790527,0.550349235534668,0.23210379481315613
1761333591628048600,11.813048583984376,10.013962745666504,0.5288137793540955,0.24646073579788208
1761333591646747600,11.83174755859375,9.834501266479492,0.5072783827781677,0.24406790733337402
1761333591665446700,11.85044677734375,9.891928672790527,0.5479564070701599,0.24406790733337402
1761333591684145700,11.869145751953125,9.848857879638672,0.519242525100708,0.23688943684101105
