time,seconds_elapsed,z,y,x
1761333951826821400,0.0938212890625,9.133403778076172,2.9359934329986572,1.2442678213119507
1761333951845521700,0.112521728515625,9.047262191772461,2.888136863708496,1.399801254272461
1761333951864222200,0.13122216796875,9.20279598236084,2.809173822402954,1.5290136337280273
1761333951882922500,0.149922607421875,8.982656478881836,2.7278177738189697,1.6079767942428589
1761333951901623000,0.168623046875,9.126225471496582,2.7397818565368652,1.2586246728897095
1761333951920323300,0.1873232421875,9.059226989746094,2.8187451362609863,1.428515076637268
1761333951939024000,0.20602392578125,9.32722282409668,2.8594231605529785,1.3950155973434448
1761333951957724200,0.22472412109375,9.396614074707031,2.833101987838745,1.1748759746551514
1761333951976424700,0.2434248046875,9.506684303283691,2.8115665912628174,1.1102696657180786
1761333951995125000,0.262125,9.547362327575684,2.8666014671325684,1.1174482107162476
1761333952013825500,0.280825439453125,9.511469841003418,2.9312076568603516,1.191625714302063
1761333952032525800,0.29952587890625,9.322437286376953,2.9288148880004883,1.25144624710083
1761333952051226400,0.318226318359375,9.200403213500977,2.8450660705566406,0.8949156403541565
1761333952069926700,0.3369267578125,9.521040916442871,2.768495798110962,0.8422735929489136
1761333952088627200,0.355627197265625,9.930213928222656,2.715853691101074,1.1748759746551514
1761333952107327500,0.374327392578125,10.016355514526367,2.6727828979492188,1.2131611108779907
1761333952126028000,0.393028076171875,9.722038269042969,2.6967110633850098,1.0145567655563354
1761333952144728600,0.411728515625,9.475577354431152,2.6871397495269775,0.7800601720809937
1761333952163428900,0.430428955078125,9.241081237792969,2.6967110633850098,0.6173482537269592
1761333952182129400,0.44912939453125,9.066405296325684,2.706282377243042,0.5886343717575073
1761333952200829700,0.46782958984375,9.190832138061523,2.6871397495269775,0.6005984544754028
1761333952219530200,0.4865302734375,9.497113227844238,2.63449764251709,0.7226324677467346
1761333952238230500,0.50523046875,9.540184020996094,2.6632115840911865,0.6699903607368469
1761333952256931000,0.52393115234375,9.399007797241211,2.682354211807251,0.6340979933738708
1761333952275631400,0.54263134765625,9.518648147583008,2.7565317153930664,0.6532405614852905
1761333952294332000,0.561331787109375,9.585647583007812,2.7014968395233154,0.6508477330207825
1761333952313032200,0.5800322265625,9.595218658447266,2.7014968395233154,0.8183453679084778
1761333952331732700,0.598732666015625,9.58325481414795,2.7086751461029053,0.8470591902732849
1761333952350433000,0.61743310546875,9.710074424743652,2.6775684356689453,0.8350951075553894
1761333952369133600,0.636133544921875,9.810572624206543,2.6368906497955322,0.9499505758285522
1761333952387833900,0.654833740234375,9.7005033493042,2.6057839393615723,0.9212366938591003
1761333952406534400,0.673534423828125,9.494720458984375,2.6560330390930176,0.8997012972831726
1761333952425234700,0.692234619140625,9.308079719543457,2.651247501373291,0.9068797826766968
1761333952443935200,0.710935302734375,9.317651748657227,2.682354211807251,0.9308080077171326
1761333952462635500,0.729635498046875,9.454042434692383,2.63449764251709,0.9978070259094238
1761333952481336000,0.748336181640625,9.513862609863281,2.6321048736572266,1.0193424224853516
1761333952500036400,0.767036376953125,9.44447135925293,2.6608188152313232,1.0241280794143677
1761333952518737000,0.78573681640625,9.293723106384277,2.7086751461029053,1.069591760635376
1761333952537437400,0.8044375,9.324830055236816,2.737389087677002,1.0265209674835205
1761333952556137700,0.8231376953125,9.497113227844238,2.675175666809082,1.0671988725662231
1761333952574838300,0.84183837890625,9.623932838439941,2.675175666809082,1.2011969089508057
1761333952593538600,0.86053857421875,9.710074424743652,2.7110681533813477,1.3615161180496216
1761333952612239000,0.879239013671875,9.719645500183105,2.7086751461029053,1.4380863904953003
1761333952630939400,0.897939453125,9.611968994140625,2.7086751461029053,1.337587833404541
1761333952649640000,0.916639892578125,9.499505996704102,2.6560330390930176,1.25144624710083
1761333952668340200,0.93534033203125,9.487542152404785,2.6009981632232666,1.222732424736023
1761333952687040800,0.954040771484375,9.410971641540527,2.6392834186553955,1.2729816436767578
1761333952705741000,0.972740966796875,9.43489933013916,2.6057839393615723,1.2442678213119507
1761333952724441600,0.991441650390625,9.528220176696777,2.5292134284973145,1.2035897970199585
1761333952743142000,1.010141845703125,9.446864128112793,2.5124638080596924,1.2442678213119507
1761333952761842400,1.028842529296875,9.279366493225098,2.5459632873535156,1.306481122970581
1761333952780542700,1.047542724609375,9.312865257263184,2.4837498664855957,1.1653046607971191
1761333952799243300,1.0662431640625,9.430113792419434,2.4430718421936035,1.00259268283844
1761333952817943600,1.084943603515625,9.494720458984375,2.414358139038086,0.9786644577980042
1761333952836644000,1.10364404296875,9.523433685302734,2.4885356426239014,1.0360921621322632
1761333952855344400,1.122344482421875,9.509077072143555,2.541177749633789,1.0839486122131348
1761333952874045000,1.141044921875,9.454042434692383,2.572284460067749,1.129412293434143
1761333952892745200,1.1597451171875,9.477970123291016,2.581855535507202,1.1102696657180786
1761333952911445800,1.17844580078125,9.45882797241211,2.651247501373291,1.0360921621322632
1761333952930146000,1.19714599609375,9.442078590393066,2.6560330390930176,1.0767701864242554
1761333952948846600,1.2158466796875,9.485149383544922,2.5938198566436768,1.057627558708191
1761333952967547000,1.234546875,9.45882797241211,2.6368906497955322,1.0217353105545044
1761333952986247400,1.253247314453125,9.485149383544922,2.644068956375122,1.0217353105545044
1761333953004947700,1.27194775390625,9.470791816711426,2.6536402702331543,0.9786644577980042
1761333953023648300,1.290648193359375,9.410971641540527,2.6608188152313232,0.9643075466156006
1761333953042348800,1.309348876953125,9.607182502746582,2.6321048736572266,1.062413215637207
1761333953061049000,1.328049072265625,9.7005033493042,2.6057839393615723,1.0887342691421509
1761333953079749600,1.34674951171875,9.556933403015137,2.6799614429473877,0.9858429431915283
1761333953098450000,1.365449951171875,9.346364974975586,2.7086751461029053,0.9499505758285522
1761333953117150500,1.384150390625,9.384650230407715,2.7254250049591064,0.9116654396057129
1761333953135850800,1.402850830078125,9.600004196166992,2.7086751461029053,0.9571290612220764
1761333953154551300,1.42155126953125,9.678967475891113,2.6943182945251465,1.0791629552841187
1761333953173251600,1.44025146484375,9.533005714416504,2.7349963188171387,1.0241280794143677
1761333953191952100,1.4589521484375,9.499505996704102,2.744567632675171,0.9236295223236084
1761333953210652400,1.47765234375,9.516255378723145,2.7349963188171387,0.8733802437782288
1761333953229353000,1.49635302734375,9.511469841003418,2.6943182945251465,0.8949156403541565
1761333953248053200,1.51505322265625,9.588040351867676,2.5938198566436768,1.0289137363433838
1761333953266753800,1.53375390625,9.509077072143555,2.5938198566436768,1.0480563640594482
1761333953285454000,1.5524541015625,9.382257461547852,2.6608188152313232,1.00259268283844
1761333953304154600,1.571154541015625,9.399007797241211,2.6081767082214355,1.0480563640594482
1761333953322855000,1.58985498046875,9.53061294555664,2.56510591506958,1.1102696657180786
1761333953341555500,1.608555419921875,9.523433685302734,2.5770699977874756,0.9906286001205444
1761333953360255700,1.627255859375,9.43489933013916,2.589034080505371,0.9475577473640442
1761333953378956300,1.645956298828125,9.430113792419434,2.5938198566436768,1.0648061037063599
1761333953397656600,1.664656494140625,9.525827407836914,2.555534601211548,1.1413763761520386
1761333953416357000,1.683357177734375,9.621540069580078,2.5698914527893066,1.0887342691421509
1761333953435057400,1.702057373046875,9.559326171875,2.548356056213379,1.0217353105545044
1761333953453758000,1.720758056640625,9.470791816711426,2.586641311645508,0.9571290612220764
1761333953472458200,1.739458251953125,9.44447135925293,2.6057839393615723,0.9116654396057129
1761333953491158800,1.75815869140625,9.492327690124512,2.6273193359375,1.031306505203247
1761333953509859000,1.776859130859375,9.56889820098877,2.5770699977874756,1.1174482107162476
1761333953528559600,1.7955595703125,9.602396965026855,2.60339093208313,1.1437692642211914
1761333953547260000,1.814260009765625,9.664610862731934,2.5842485427856445,1.1653046607971191
1761333953565960400,1.83296044921875,9.621540069580078,2.541177749633789,1.1748759746551514
1761333953584660700,1.85166064453125,9.449256896972656,2.581855535507202,1.1030912399291992
1761333953603361300,1.870361328125,9.454042434692383,2.586641311645508,1.191625714302063
1761333953622061600,1.8890615234375,9.439684867858887,2.53399920463562,1.2323036193847656
1761333953640762000,1.90776220703125,9.394221305847168,2.500499725341797,1.2035897970199585
1761333953659462400,1.92646240234375,9.389435768127441,2.4670002460479736,1.1892328262329102
1761333953678163000,1.945162841796875,9.336793899536133,2.462214469909668,1.0815558433532715
1761333953696863200,1.96386328125,9.360722541809082,2.4335005283355713,0.9595218896865845
1761333953715563800,1.982563720703125,9.382257461547852,2.4741785526275635,0.9595218896865845
1761333953734264000,2.00126416015625,9.53061294555664,2.445464849472046,1.0552347898483276
1761333953752964600,2.019964599609375,9.516255378723145,2.524427890777588,1.0049854516983032
1761333953771665000,2.038664794921875,9.533005714416504,2.572284460067749,1.007378339767456
1761333953790365400,2.057365478515625,9.470791816711426,2.6368906497955322,0.9810572862625122
1761333953809065700,2.076065673828125,9.494720458984375,2.6488547325134277,0.9882357716560364
1761333953827766300,2.094766357421875,9.53779125213623,2.6871397495269775,1.0289137363433838
1761333953846466600,2.113466552734375,9.54496955871582,2.6775684356689453,1.098305583000183
1761333953865167000,2.1321669921875,9.523433685302734,2.713460922241211,1.153340458869934
1761333953883867600,2.15086767578125,9.621540069580078,2.6967110633850098,1.191625714302063
1761333953902568000,2.16956787109375,9.53779125213623,2.682354211807251,1.1748759746551514
1761333953921268200,2.188268310546875,9.42772102355957,2.6775684356689453,1.0815558433532715
1761333953939968800,2.20696875,9.492327690124512,2.68953275680542,1.1270195245742798
1761333953958669300,2.22566943359375,9.523433685302734,2.6536402702331543,1.1198409795761108
1761333953977369600,2.24436962890625,9.518648147583008,2.644068956375122,1.0767701864242554
1761333953996070000,2.26306982421875,9.56889820098877,2.6560330390930176,1.129412293434143
1761333954014770400,2.2817705078125,9.578469276428223,2.610569477081299,1.1461620330810547
1761333954033471000,2.300470947265625,9.611968994140625,2.651247501373291,1.0671988725662231
1761333954052171300,2.319171142578125,9.521040916442871,2.5842485427856445,1.0360921621322632
1761333954070871800,2.337871826171875,9.358329772949219,2.610569477081299,0.9690931439399719
1761333954089572000,2.356572021484375,9.293723106384277,2.6057839393615723,0.916451096534729
1761333954108272600,2.375272705078125,9.494720458984375,2.5435705184936523,0.9523434042930603
1761333954126973000,2.393972900390625,9.710074424743652,2.526820659637451,1.0289137363433838
1761333954145673500,2.412673583984375,9.722038269042969,2.5124638080596924,0.8997012972831726
1761333954164373800,2.431373779296875,9.580862045288086,2.5387847423553467,0.794417142868042
1761333954183074300,2.45007421875,9.425328254699707,2.60339093208313,0.7800601720809937
1761333954201774600,2.468774658203125,9.468399047851562,2.60339093208313,0.9332008361816406
1761333954220475100,2.48747509765625,9.375079154968262,2.6368906497955322,1.0265209674835205
1761333954239175400,2.506175537109375,9.332008361816406,2.620140790939331,1.0887342691421509
1761333954257876000,2.5248759765625,9.396614074707031,2.6560330390930176,1.160519003868103
1761333954276576300,2.543576171875,9.473184585571289,2.5698914527893066,1.1437692642211914
1761333954295276800,2.56227685546875,9.468399047851562,2.6632115840911865,1.124626636505127
1761333954313977000,2.58097705078125,9.542576789855957,2.6321048736572266,1.0911271572113037
1761333954332677600,2.599677734375,9.580862045288086,2.6536402702331543,1.0815558433532715
1761333954351378000,2.6183779296875,9.549755096435547,2.6297121047973633,1.1413763761520386
1761333954370078500,2.637078369140625,9.470791816711426,2.6943182945251465,1.1629117727279663
1761333954388778800,2.65577880859375,9.391828536987305,2.6847469806671143,1.0839486122131348
1761333954407479300,2.674479248046875,9.339186668395996,2.713460922241211,1.0241280794143677
1761333954426179600,2.6931796875,9.394221305847168,2.6799614429473877,1.0887342691421509
1761333954444880100,2.711880126953125,9.497113227844238,2.6775684356689453,1.2873386144638062
1761333954463580400,2.730580322265625,9.501898765563965,2.7014968395233154,1.2729816436767578
1761333954482281000,2.749281005859375,9.504291534423828,2.7038896083831787,1.153340458869934
1761333954500981200,2.767981201171875,9.573683738708496,2.6703901290893555,1.1222338676452637
1761333954519681800,2.786681884765625,9.535398483276367,2.641676187515259,0.9978070259094238
1761333954538382000,2.805382080078125,9.422935485839844,2.644068956375122,0.8733802437782288
1761333954557082600,2.82408251953125,9.422935485839844,2.6273193359375,0.7872386574745178
1761333954575783000,2.842782958984375,9.592825889587402,2.589034080505371,0.8303094506263733
1761333954594483500,2.8614833984375,9.521040916442871,2.6153552532196045,0.9284151792526245
1761333954613183700,2.880183837890625,9.370293617248535,2.641676187515259,0.9523434042930603
1761333954631884300,2.89888427734375,9.317651748657227,2.6057839393615723,0.9499505758285522
1761333954650584600,2.91758447265625,9.375079154968262,2.63449764251709,0.9284151792526245
1761333954669285000,2.93628515625,9.497113227844238,2.6488547325134277,0.9427721500396729
1761333954687985400,2.9549853515625,9.501898765563965,2.6057839393615723,0.9403793215751648
1761333954706686000,2.97368603515625,9.499505996704102,2.5746772289276123,0.9427721500396729
1761333954725386200,2.99238623046875,9.518648147583008,2.610569477081299,0.9092726111412048
1761333954744086800,3.011086669921875,9.580862045288086,2.6057839393615723,0.973878800868988
1761333954762787000,3.029787109375,9.521040916442871,2.6297121047973633,0.8709874153137207
1761333954781487600,3.048487548828125,9.497113227844238,2.65842604637146,0.7968099117279053
1761333954800188000,3.06718798828125,9.56650447845459,2.6321048736572266,0.8662018179893494
1761333954818888400,3.085888427734375,9.600004196166992,2.675175666809082,0.9547362327575684
1761333954837588700,3.104588623046875,9.621540069580078,2.6967110633850098,1.1437692642211914
1761333954856289300,3.123289306640625,9.549755096435547,2.715853691101074,1.2418749332427979
1761333954874989600,3.141989501953125,9.475577354431152,2.744567632675171,1.179661512374878
1761333954893690000,3.160690185546875,9.425328254699707,2.7254250049591064,0.9882357716560364
1761333954912390400,3.179390380859375,9.42054271697998,2.68953275680542,0.97148597240448
1761333954931091000,3.198091064453125,9.401400566101074,2.6703901290893555,1.0336993932724
1761333954949791200,3.216791259765625,9.432506561279297,2.6297121047973633,1.0528420209884644
1761333954968491800,3.23549169921875,9.485149383544922,2.651247501373291,1.0600204467773438
1761333954987192000,3.254192138671875,9.358329772949219,2.66560435295105,1.1054840087890625
1761333955005892600,3.272892578125,9.332008361816406,2.699103832244873,1.062413215637207
1761333955024593000,3.291593017578125,9.399007797241211,2.7110681533813477,1.0097711086273193
1761333955043293400,3.31029345703125,9.53779125213623,2.6608188152313232,1.0121639966964722
1761333955061993700,3.32899365234375,9.573683738708496,2.6775684356689453,1.0552347898483276
1761333955080694300,3.3476943359375,9.497113227844238,2.723032236099243,1.1174482107162476
1761333955099394600,3.36639453125,9.42054271697998,2.7014968395233154,1.1629117727279663
1761333955118095000,3.38509521484375,9.42772102355957,2.6967110633850098,1.0887342691421509
1761333955136795400,3.40379541015625,9.430113792419434,2.7038896083831787,1.0217353105545044
1761333955155496000,3.422495849609375,9.446864128112793,2.6799614429473877,1.0193424224853516
1761333955174196200,3.4411962890625,9.437292098999023,2.66560435295105,0.9834501147270203
1761333955192896800,3.459896728515625,9.4660062789917,2.66560435295105,1.1222338676452637
1761333955211597000,3.47859716796875,9.475577354431152,2.6847469806671143,1.1150553226470947
1761333955230297600,3.497297607421875,9.439684867858887,2.691925525665283,1.1270195245742798
1761333955248998000,3.515997802734375,9.42054271697998,2.7086751461029053,1.1198409795761108
1761333955267698400,3.534698486328125,9.41336441040039,2.785245656967163,1.0887342691421509
1761333955286398700,3.553398681640625,9.521040916442871,2.737389087677002,1.1748759746551514
1761333955305099300,3.572099365234375,9.588040351867676,2.7038896083831787,1.2035897970199585
1761333955323799600,3.590799560546875,9.561718940734863,2.7278177738189697,1.1150553226470947
1761333955342500000,3.6095,9.475577354431152,2.7589244842529297,1.0408778190612793
1761333955361200400,3.628200439453125,9.382257461547852,2.7637102603912354,1.031306505203247
1761333955379901000,3.64690087890625,9.315258979797363,2.723032236099243,1.0480563640594482
1761333955398601200,3.665601318359375,9.343972206115723,2.7326035499572754,1.1341979503631592
1761333955417301500,3.684301513671875,9.418149948120117,2.7254250049591064,1.2059825658798218
1761333955436002000,3.703001953125,9.422935485839844,2.7182464599609375,1.1318050622940063
1761333955454702600,3.72170263671875,9.399007797241211,2.754138946533203,0.9475577473640442
1761333955473403000,3.74040283203125,9.470791816711426,2.7517459392547607,0.914058268070221
1761333955492103200,3.759103271484375,9.623932838439941,2.6943182945251465,0.9906286001205444
1761333955510803700,3.7778037109375,9.604789733886719,2.7421748638153076,1.0217353105545044
1761333955529504000,3.79650390625,9.54496955871582,2.770888566970825,0.9762716293334961
1761333955548204500,3.81520458984375,9.485149383544922,2.7637102603912354,0.9332008361816406
1761333955566904800,3.83390478515625,9.523433685302734,2.744567632675171,0.9786644577980042
1761333955585605400,3.85260546875,9.53779125213623,2.778067111968994,0.9667003750801086
1761333955604305700,3.8713056640625,9.521040916442871,2.7326035499572754,1.0767701864242554
1761333955623006200,3.890006103515625,9.473184585571289,2.720639228820801,1.1102696657180786
1761333955641706500,3.90870654296875,9.351150512695312,2.7110681533813477,0.9810572862625122
1761333955660407000,3.927406982421875,9.298508644104004,2.6847469806671143,0.9212366938591003
1761333955679107300,3.946107421875,9.42054271697998,2.6321048736572266,1.1102696657180786
1761333955697808000,3.964807861328125,9.470791816711426,2.667997360229492,1.1365907192230225
1761333955716508200,3.983508056640625,9.379864692687988,2.6297121047973633,0.9978070259094238
1761333955735208700,4.002208740234375,9.272188186645508,2.6297121047973633,0.9260223507881165
1761333955753909000,4.020908935546875,9.257830619812012,2.6297121047973633,0.9499505758285522
1761333955772609500,4.039609619140625,9.396614074707031,2.644068956375122,0.9762716293334961
1761333955791309800,4.058309814453125,9.463613510131836,2.667997360229492,0.97148597240448
1761333955810010400,4.07701025390625,9.418149948120117,2.6727828979492188,0.9834501147270203
1761333955828710700,4.095710693359375,9.415757179260254,2.778067111968994,1.007378339767456
1761333955847411200,4.1144111328125,9.343972206115723,2.847458839416504,1.0719845294952393
1761333955866111500,4.133111572265625,9.470791816711426,2.9168508052825928,1.124626636505127
1761333955884812000,4.15181201171875,9.623932838439941,2.8929226398468018,1.1868400573730469
1761333955903512600,4.1705126953125,9.7005033493042,2.8689942359924316,1.1676974296569824
1761333955922212900,4.189212890625,9.67657470703125,2.8977081775665283,1.1318050622940063
1761333955940913400,4.207913330078125,9.542576789855957,2.9383862018585205,1.0815558433532715
1761333955959613700,4.22661376953125,9.315258979797363,2.9383862018585205,1.1174482107162476
1761333955978314200,4.245314208984375,9.233902931213379,2.9001009464263916,1.2011969089508057
1761333955997014500,4.2640146484375,9.375079154968262,2.8498518466949463,1.2323036193847656
1761333956015715000,4.282715087890625,9.489934921264648,2.7828526496887207,1.2011969089508057
1761333956034415400,4.301415283203125,9.399007797241211,2.706282377243042,1.1365907192230225
1761333956053116000,4.320115966796875,9.291330337524414,2.7278177738189697,0.9882357716560364
1761333956071816200,4.338816162109375,9.391828536987305,2.706282377243042,0.9403793215751648
1761333956090516700,4.357516845703125,9.640682220458984,2.737389087677002,0.8901300430297852
1761333956109217000,4.376217041015625,9.80100154876709,2.6967110633850098,0.8255237936973572
1761333956127917600,4.39491748046875,9.626325607299805,2.761317253112793,0.7776673436164856
1761333956146617900,4.413617919921875,9.54496955871582,2.699103832244873,0.7369893789291382
1761333956165318400,4.432318359375,9.66939640045166,2.644068956375122,0.9834501147270203
1761333956184018700,4.451018798828125,9.611968994140625,2.6225335597991943,1.0600204467773438
1761333956202719200,4.46971923828125,9.274580955505371,2.6703901290893555,0.9403793215751648
1761333956221419500,4.48841943359375,9.391828536987305,2.5746772289276123,0.8805587291717529
1761333956240120000,4.5071201171875,9.619147300720215,2.5292134284973145,0.8590233325958252
1761333956258820400,4.5258203125,9.45164966583252,2.5220351219177246,0.672383189201355
1761333956277521000,4.54452099609375,9.269794464111328,2.5938198566436768,0.5958128571510315
1761333956296221200,4.56322119140625,9.17886734008789,2.555534601211548,0.6005984544754028
1761333956314921700,4.581921630859375,9.32722282409668,2.5842485427856445,0.8973084688186646
1761333956333622000,4.6006220703125,9.53061294555664,2.6560330390930176,1.2011969089508057
1761333956352322600,4.619322509765625,9.580862045288086,2.778067111968994,1.2538390159606934
1761333956371022800,4.63802294921875,9.468399047851562,2.68953275680542,1.3184453248977661
1761333956389723400,4.656723388671875,9.255437850952148,2.854637384414673,1.179661512374878
1761333956408423700,4.675423583984375,9.05444049835205,2.847458839416504,1.1150553226470947
1761333956427124200,4.694124267578125,9.109476089477539,2.878565549850464,0.9762716293334961
1761333956445824500,4.712824462890625,9.45164966583252,2.854637384414673,0.9475577473640442
1761333956464525000,4.731525146484375,9.611968994140625,2.746960401535034,1.1724830865859985
1761333956483225300,4.750225341796875,9.559326171875,2.723032236099243,1.2945170402526855
1761333956501926000,4.76892578125,9.521040916442871,2.6967110633850098,1.2299108505249023
1761333956520626200,4.787626220703125,9.475577354431152,2.715853691101074,1.1868400573730469
1761333956539326700,4.80632666015625,9.485149383544922,2.7637102603912354,1.0001999139785767
1761333956558027300,4.82502734375,9.554540634155273,2.699103832244873,1.1150553226470947
1761333956576727600,4.8437275390625,9.55214786529541,2.6967110633850098,1.196411371231079
1761333956595427800,4.862427734375,9.494720458984375,2.7254250049591064,1.2681959867477417
1761333956614128400,4.88112841796875,9.410971641540527,2.744567632675171,1.1724830865859985
1761333956632829000,4.899828857421875,9.262616157531738,2.761317253112793,0.9595218896865845
1761333956651529200,4.918529296875,9.298508644104004,2.7732813358306885,0.8709874153137207
1761333956670229800,4.937229736328125,9.609575271606445,2.691925525665283,1.0241280794143677
1761333956688930000,4.955929931640625,9.717252731323242,2.612962245941162,1.2729816436767578
1761333956707630600,4.974630615234375,9.643074989318848,2.641676187515259,1.3280165195465088
1761333956726331000,4.993330810546875,9.312865257263184,2.7038896083831787,1.184447169303894
1761333956745031400,5.012031494140625,9.068798065185547,2.723032236099243,0.8327022790908813
1761333956763731700,5.030731689453125,9.248259544372559,2.6847469806671143,0.7800601720809937
1761333956782432300,5.049432373046875,9.513862609863281,2.644068956375122,0.8590233325958252
1761333956801132500,5.068132568359375,9.590433120727539,2.612962245941162,0.9284151792526245
1761333956819833000,5.0868330078125,9.580862045288086,2.6009981632232666,0.9284151792526245
1761333956838533400,5.105533447265625,9.513862609863281,2.6225335597991943,0.9810572862625122
1761333956857234000,5.12423388671875,9.34157943725586,2.620140790939331,0.9355936646461487
1761333956875934200,5.142934326171875,9.389435768127441,2.5842485427856445,0.8901300430297852
1761333956894634800,5.161634765625,9.473184585571289,2.5052852630615234,0.9523434042930603
1761333956913335000,5.1803349609375,9.501898765563965,2.524427890777588,0.973878800868988
1761333956932035600,5.19903564453125,9.446864128112793,2.517249345779419,0.8542376756668091
1761333956950736000,5.21773583984375,9.597611427307129,2.5196423530578613,0.9595218896865845
1761333956969436400,5.2364365234375,9.750752449035645,2.5076780319213867,1.0265209674835205
1761333956988136700,5.25513671875,9.726823806762695,2.495713949203491,0.9978070259094238
1761333957006837200,5.273837158203125,9.499505996704102,2.557927370071411,0.7992027401924133
1761333957025537500,5.29253759765625,9.274580955505371,2.5363919734954834,0.7441678643226624
1761333957044238000,5.311238037109375,9.131011009216309,2.5387847423553467,0.7417750358581543
1761333957062938400,5.3299384765625,9.114261627197266,2.4837498664855957,0.6915257573127747
1761333957081639000,5.348638916015625,9.45164966583252,2.4119651317596436,0.7872386574745178
1761333957100339200,5.367339111328125,9.77707290649414,2.4406790733337402,0.7728816866874695
1761333957119039700,5.386039794921875,9.767501831054688,2.4981069564819336,0.7154539823532104
1761333957137740000,5.404739990234375,9.638289451599121,2.53399920463562,0.6675975322723389
1761333957156440600,5.423440673828125,9.56889820098877,2.56510591506958,0.6269195079803467
1761333957175140900,5.442140869140625,9.580862045288086,2.5938198566436768,0.672383189201355
1761333957193841400,5.46084130859375,9.597611427307129,2.56510591506958,0.7992027401924133
1761333957212541700,5.479541748046875,9.607182502746582,2.579462766647339,0.8805587291717529
1761333957231242200,5.4982421875,9.695717811584473,2.557927370071411,0.9451649188995361
1761333957249942500,5.516942626953125,9.80100154876709,2.524427890777588,0.885344386100769
1761333957268643000,5.53564306640625,9.726823806762695,2.4837498664855957,0.8207381963729858
1761333957287343400,5.55434326171875,9.616754531860352,2.447857618331909,0.8446664214134216
1761333957306044000,5.5730439453125,9.623932838439941,2.4598217010498047,0.8398807644844055
1761333957324744200,5.591744140625,9.528220176696777,2.493321180343628,0.7010970115661621
1761333957343444700,5.61044482421875,9.461220741271973,2.555534601211548,0.698704183101654
1761333957362145000,5.62914501953125,9.260223388671875,2.579462766647339,0.6747759580612183
1761333957380845600,5.647845458984375,9.315258979797363,2.5435705184936523,0.7345965504646301
1761333957399545900,5.6665458984375,9.391828536987305,2.486142635345459,0.8015955686569214
1761333957418246400,5.685246337890625,9.442078590393066,2.4047868251800537,0.8733802437782288
1761333957436946700,5.70394677734375,9.542576789855957,2.3401806354522705,0.9882357716560364
1761333957455647200,5.722647216796875,9.68375301361084,2.3306093215942383,0.9810572862625122
1761333957474347500,5.741347412109375,9.619147300720215,2.3784656524658203,0.8638089895248413
1761333957493048000,5.760048095703125,9.722038269042969,2.3856441974639893,0.8733802437782288
1761333957511748400,5.778748291015625,9.81535816192627,2.3736801147460938,0.8374879360198975
1761333957530449000,5.797448974609375,9.863214492797852,2.3736801147460938,0.8207381963729858
1761333957549149200,5.816149169921875,9.7005033493042,2.414358139038086,0.8638089895248413
1761333957567849700,5.834849609375,9.415757179260254,2.4813570976257324,0.8997012972831726
1761333957586550000,5.853550048828125,9.312865257263184,2.5148565769195557,0.9020941257476807
1761333957605250600,5.87225048828125,9.384650230407715,2.4909284114837646,0.916451096534729
1761333957623950800,5.890950927734375,9.360722541809082,2.5674986839294434,1.0863415002822876
1761333957642651400,5.9096513671875,9.293723106384277,2.589034080505371,1.1078768968582153
1761333957661351700,5.9283515625,9.482755661010742,2.548356056213379,1.0289137363433838
1761333957680052200,5.94705224609375,9.693324089050293,2.5770699977874756,0.9284151792526245
1761333957698752500,5.96575244140625,9.717252731323242,2.6392834186553955,0.8757730722427368
1761333957717453000,5.984453125,9.726823806762695,2.6488547325134277,0.9092726111412048
1761333957736153300,6.0031533203125,9.597611427307129,2.63449764251709,0.8733802437782288
1761333957754854000,6.02185400390625,9.535398483276367,2.6368906497955322,0.9427721500396729
1761333957773554200,6.04055419921875,9.480362892150879,2.6081767082214355,0.9906286001205444
1761333957792254700,6.059254638671875,9.422935485839844,2.6297121047973633,0.9882357716560364
1761333957810955300,6.077955322265625,9.432506561279297,2.5746772289276123,0.8614161610603333
1761333957829655600,6.096655517578125,9.425328254699707,2.5435705184936523,0.8159525394439697
1761333957848356000,6.115356201171875,9.499505996704102,2.5196423530578613,0.914058268070221
1761333957867056400,6.134056396484375,9.55214786529541,2.4646072387695312,0.914058268070221
1761333957885757000,6.1527568359375,9.604789733886719,2.5052852630615234,0.6628118753433228
1761333957904457200,6.171457275390625,9.600004196166992,2.4574289321899414,0.9068797826766968
1761333957923157800,6.19015771484375,9.678967475891113,2.493321180343628,0.7920243144035339
1761333957941858000,6.208858154296875,9.611968994140625,2.5196423530578613,0.851844847202301
1761333957960558600,6.22755859375,9.509077072143555,2.510071039199829,0.849452018737793
1761333957979259000,6.2462587890625,9.549755096435547,2.5603201389312744,0.8925228714942932
1761333957997959400,6.26495947265625,9.667003631591797,2.6297121047973633,0.9571290612220764
1761333958016659700,6.28365966796875,9.695717811584473,2.641676187515259,0.8111668825149536
1761333958035360300,6.3023603515625,9.616754531860352,2.6177480220794678,0.6867401003837585
1761333958054060500,6.321060546875,9.592825889587402,2.63449764251709,0.7441678643226624
1761333958072761000,6.339760986328125,9.686145782470703,2.5914268493652344,0.727418065071106
1761333958091461400,6.35846142578125,9.76989459991455,2.6153552532196045,0.7513462901115417
1761333958110162000,6.377161865234375,9.76989459991455,2.589034080505371,0.6843472719192505
1761333958128862200,6.3958623046875,9.714859962463379,2.620140790939331,0.6532405614852905
1761333958147562800,6.414562744140625,9.930213928222656,2.6536402702331543,0.7082754969596863
1761333958166263000,6.433262939453125,9.968499183654785,2.6273193359375,0.9355936646461487
1761333958184963600,6.451963623046875,9.784252166748047,2.715853691101074,1.1461620330810547
1761333958203664000,6.470663818359375,9.229117393493652,2.792423963546753,1.0241280794143677
1761333958222364400,6.489364501953125,8.9850492477417,2.943171739578247,0.8901300430297852
1761333958241064700,6.508064697265625,9.020941734313965,2.823530673980713,1.0265209674835205
1761333958259765200,6.52676513671875,9.19561767578125,2.888136863708496,1.1629117727279663
1761333958278465500,6.545465576171875,9.604789733886719,2.9958138465881348,1.222732424736023
1761333958297166000,6.564166015625,9.714859962463379,2.9144580364227295,1.3663017749786377
1761333958315866400,6.582866455078125,9.678967475891113,3.0388846397399902,1.2562319040298462
1761333958334567000,6.60156689453125,9.34875774383545,3.129812002182007,1.0815558433532715
1761333958353267200,6.62026708984375,9.336793899536133,3.2446675300598145,1.1389836072921753
1761333958371967700,6.6389677734375,9.580862045288086,3.328416347503662,1.4572290182113647
1761333958390668000,6.65766796875,9.877572059631348,3.4241292476654053,1.6845471858978271
1761333958409368600,6.67636865234375,9.729216575622559,3.3092737197875977,1.459621787071228
1761333958428068900,6.69506884765625,9.494720458984375,3.3379876613616943,0.9044869542121887
1761333958446769400,6.713769287109375,9.154939651489258,3.438486099243164,0.9403793215751648
1761333958465469700,6.7324697265625,8.824729919433594,3.4815568923950195,0.8231309652328491
1761333958484170200,6.751170166015625,8.535198211669922,3.6442689895629883,0.727418065071106
1761333958502870800,6.769870849609375,8.425128936767578,3.421736478805542,0.8877372145652771
1761333958521571000,6.788571044921875,8.60459041595459,3.3164522647857666,1.0001999139785767
1761333958540271600,6.807271728515625,8.657232284545898,3.34995174407959,1.34476637840271
1761333958558972000,6.825971923828125,8.358129501342773,3.1896326541900635,1.6151553392410278
1761333958577672400,6.84467236328125,8.22413158416748,3.452843189239502,1.8065811395645142
1761333958596372700,6.863372802734375,8.35573673248291,3.603590965270996,2.321038007736206
1761333958615073300,6.8820732421875,8.659625053405762,3.7112679481506348,2.1655044555664062
1761333958633773600,6.900773681640625,9.006584167480469,3.596412420272827,1.911865234375
1761333958652474000,6.91947412109375,9.159725189208984,3.6610186100006104,1.887937068939209
1761333958671174400,6.93817431640625,9.152546882629395,3.7423746585845947,1.9094724655151367
1761333958689875000,6.956875,8.925228118896484,3.682554006576538,2.242074728012085
1761333958708575200,6.9755751953125,9.056833267211914,3.6155550479888916,2.4406790733337402
1761333958727275800,6.99427587890625,9.176474571228027,3.625126361846924,2.3330020904541016
1761333958745976000,7.01297607421875,9.415757179260254,3.579662561416626,2.2396819591522217
1761333958764676600,7.031676513671875,9.633503913879395,3.5294134616851807,2.273181438446045
1761333958783377000,7.050376953125,9.564111709594727,3.5126636028289795,2.3473589420318604
1761333958802077400,7.069077392578125,9.226723670959473,3.4743785858154297,2.3258235454559326
1761333958820777700,7.08777783203125,8.94676399230957,3.5270206928253174,2.4119651317596436
1761333958839478300,7.106478271484375,8.884550094604492,3.4002010822296143,2.809173822402954
1761333958858178600,7.125178466796875,9.30329418182373,3.38105845451355,3.0939197540283203
1761333958876879000,7.143879150390625,9.542576789855957,3.469592809677124,2.754138946533203
1761333958895579400,7.162579345703125,9.351150512695312,3.5916268825531006,2.912065267562866
1761333958914280000,7.181280029296875,9.372686386108398,3.6610186100006104,3.541377544403076
1761333958932980200,7.199980224609375,9.19561767578125,3.88594388961792,3.4648072719573975
1761333958951680800,7.2186806640625,8.654839515686035,4.137190341949463,2.3401806354522705
1761333958970381000,7.237381103515625,7.408178806304932,6.008377552032471,-1.373480200767517
1761333958989081600,7.25608154296875,6.613761901855469,3.656233072280884,1.710868239402771
1761333959007782100,7.2747822265625,8.075776100158691,3.8021950721740723,2.6368906497955322
1761333959026482400,7.293482421875,9.013762474060059,3.735196113586426,3.0340991020202637
1761333959045182700,7.3121826171875,8.96829891204834,3.649054527282715,2.469393014907837
1761333959063883300,7.33088330078125,8.760123252868652,3.651447296142578,1.7563318014144897
1761333959082583800,7.349583740234375,8.58784008026123,3.314059257507324,2.1655044555664062
1761333959101284000,7.3682841796875,8.865407943725586,3.5605201721191406,2.715853691101074
1761333959119984600,7.386984619140625,8.908478736877441,3.744767427444458,2.9838497638702393
1761333959138685000,7.405684814453125,8.324629783630371,3.926621913909912,2.6560330390930176
1761333959157385500,7.424385498046875,8.133204460144043,3.845266103744507,2.524427890777588
1761333959176085800,7.443085693359375,7.735995769500732,3.8045880794525146,1.9645073413848877
1761333959194786300,7.461786376953125,8.073383331298828,2.8761727809906006,1.3208380937576294
1761333959213486600,7.480486572265625,8.48016357421875,3.2135608196258545,1.7850457429885864
1761333959232187100,7.499187255859375,8.169096946716309,2.9144580364227295,2.1918256282806396
1761333959250887400,7.517887451171875,9.111868858337402,3.335594654083252,2.620140790939331
1761333959269588000,7.536587890625,10.712666511535645,3.177668571472168,3.2063822746276855
1761333959288288300,7.555288330078125,10.710273742675781,2.6249263286590576,3.1489546298980713
1761333959306988800,7.57398876953125,9.865608215332031,2.7828526496887207,2.792423963546753
1761333959325689000,7.592689208984375,8.817551612854004,2.957528829574585,2.478964328765869
1761333959344389600,7.6113896484375,9.020941734313965,2.998206853866577,2.4335005283355713
1761333959363090000,7.63008984375,9.324830055236816,2.2755744457244873,2.6536402702331543
1761333959381790500,7.64879052734375,9.140582084655762,2.524427890777588,2.2851455211639404
1761333959400490800,7.66749072265625,8.724231719970703,2.9001009464263916,2.7086751461029053
1761333959419191300,7.68619140625,9.401400566101074,2.770888566970825,3.1178479194641113
1761333959437891600,7.7048916015625,9.399007797241211,2.667997360229492,3.060420274734497
1761333959456592100,7.723592041015625,8.997013092041016,2.5770699977874756,2.854637384414673
1761333959475292400,7.74229248046875,8.719446182250977,2.5842485427856445,2.7517459392547607
1761333959493993000,7.760992919921875,9.250652313232422,2.7732813358306885,2.9216363430023193
1761333959512693200,7.779693359375,9.253045082092285,3.0652058124542236,2.7182464599609375
1761333959531393800,7.798393798828125,9.269794464111328,3.060420274734497,2.8594231605529785
1761333959550094300,7.81709423828125,8.733802795410156,2.1894326210021973,1.911865234375
1761333959568794600,7.835794677734375,7.82692289352417,1.8831514120101929,2.6943182945251465
1761333959587495200,7.8544951171875,8.154739379882812,2.1750757694244385,2.6057839393615723
1761333959606195500,7.873195556640625,8.286344528198242,2.423929452896118,2.376072883605957
1761333959624896000,7.89189599609375,9.760323524475098,1.7563318014144897,3.7184464931488037
1761333959643596300,7.91059619140625,10.621739387512207,1.919043779373169,3.4719855785369873
1761333959662296800,7.929296875,10.047462463378906,2.124826431274414,3.2207393646240234
1761333959680997000,7.9479970703125,9.868000984191895,2.4358935356140137,3.0005996227264404
1761333959699697700,7.96669775390625,9.200403213500977,2.7804598808288574,2.7493531703948975
1761333959718398000,7.98539794921875,8.059026718139648,2.9790642261505127,2.4646072387695312
1761333959737098500,8.004098388671874,7.238288402557373,3.208775281906128,2.122433662414551
1761333959755798800,8.022798828125,7.405786037445068,2.4598217010498047,2.713460922241211
1761333959774499300,8.041499267578125,8.322237014770508,1.8711873292922974,2.768495798110962
1761333959793199600,8.06019970703125,9.06401252746582,1.8783657550811768,3.060420274734497
1761333959811900200,8.078900146484376,9.817750930786133,1.6845471858978271,3.510270833969116
1761333959830600400,8.097600341796875,10.449456214904785,1.8065811395645142,3.4121651649475098
1761333959849301000,8.116301025390625,10.066604614257812,1.2969099283218384,3.0963125228881836
1761333959868001300,8.135001220703124,10.023533821105957,1.3543375730514526,2.644068956375122
1761333959886701800,8.153701904296875,10.41356372833252,1.397408366203308,2.5148565769195557
1761333959905402000,8.172402099609375,10.87298583984375,1.3639088869094849,2.7732813358306885
1761333959924102700,8.1911025390625,10.786844253540039,1.215553879737854,2.715853691101074
1761333959942803000,8.209802978515626,10.15035343170166,1.3543375730514526,2.2947168350219727
1761333959961503500,8.22850341796875,9.336793899536133,1.332802176475525,1.8592232465744019
1761333959980203800,8.247203857421875,8.429914474487305,1.3926228284835815,1.5170495510101318
1761333959998904300,8.265904296875,8.786444664001465,1.3830515146255493,1.4452649354934692
1761333960017604900,8.28460498046875,9.284152030944824,1.2323036193847656,1.3304094076156616
1761333960036305200,8.30330517578125,9.619147300720215,1.0767701864242554,1.801795482635498
1761333960055005700,8.322005615234374,9.748359680175781,0.8685946464538574,2.108076810836792
1761333960073706000,8.3407060546875,10.085747718811035,0.8638089895248413,2.2636101245880127
1761333960092406500,8.359406494140625,9.968499183654785,0.8422735929489136,2.4909284114837646
1761333960111106800,8.37810693359375,9.628718376159668,1.0169496536254883,2.256431818008423
1761333960129807400,8.396807373046874,9.32004451751709,1.062413215637207,2.187039852142334
1761333960148507600,8.415507568359375,9.372686386108398,1.100698471069336,2.4526431560516357
1761333960167208200,8.434208251953125,9.734002113342285,1.0767701864242554,2.730210542678833
1761333960185908500,8.452908447265624,10.03549861907959,0.9308080077171326,2.6967110633850098
1761333960204609000,8.471609130859376,10.001998901367188,0.794417142868042,2.5148565769195557
1761333960223309300,8.490309326171875,9.619147300720215,1.0121639966964722,2.117648124694824
1761333960242009900,8.509009765625,9.233902931213379,0.9427721500396729,2.0171494483947754
1761333960260710100,8.527710205078124,9.176474571228027,0.8877372145652771,2.0673987865448
1761333960279410700,8.54641064453125,9.42772102355957,0.8949156403541565,2.2229323387145996
1761333960298111000,8.565111083984375,9.485149383544922,0.8111668825149536,2.2779672145843506
1761333960316811500,8.5838115234375,9.475577354431152,0.6915257573127747,2.194218397140503
1761333960335511800,8.60251171875,9.456435203552246,0.6604190468788147,2.132004976272583
1761333960354212400,8.62121240234375,9.513862609863281,0.5264210104942322,2.225325107574463
1761333960372912600,8.63991259765625,10.04267692565918,0.5024927258491516,2.4837498664855957
1761333960391613200,8.65861328125,10.05703353881836,0.5264210104942322,2.4047868251800537
1761333960410313500,8.6773134765625,9.695717811584473,0.5048855543136597,2.225325107574463
1761333960429014000,8.696013916015625,9.671789169311523,0.6580262184143066,2.1822543144226074
1761333960447714300,8.71471435546875,9.76989459991455,0.7992027401924133,1.9716858863830566
1761333960466414800,8.733414794921876,9.731609344482422,0.4450650215148926,2.0650060176849365
1761333960485115100,8.752115234375,9.755537986755371,0.2153540402650833,2.256431818008423
1761333960503815700,8.770815673828125,10.03310489654541,0.2632105052471161,2.1272194385528564
1761333960522516000,8.789515869140626,10.085747718811035,0.34217363595962524,2.038684844970703
1761333960541216500,8.808216552734375,9.975677490234375,0.38763725757598877,1.978864312171936
1761333960559917000,8.8269169921875,9.681360244750977,0.2967100143432617,2.045863389968872
1761333960578617300,8.845617431640624,9.549755096435547,0.23449662327766418,2.0195422172546387
1761333960597318000,8.86431787109375,9.628718376159668,0.07657032459974289,1.9405791759490967
1761333960616018200,8.88301806640625,9.78664493560791,0.038285162299871445,1.9381862878799438
1761333960634718700,8.90171875,10.145567893981934,0.08853443711996078,1.7802600860595703
1761333960653419000,8.9204189453125,10.219745635986328,0.11246266216039658,1.5649060010910034
1761333960672119600,8.93911962890625,9.882357597351074,-0.031106693670153618,1.5625132322311401
1761333960690819800,8.95781982421875,9.621540069580078,-0.17228323221206665,1.947757601737976
1761333960709520400,8.976520263671874,9.396614074707031,-0.12442677468061447,2.234896421432495
1761333960728220700,8.995220703125,9.647860527038574,0.23688943684101105,2.2325034141540527
1761333960746921200,9.013921142578125,9.913464546203613,0.4307080805301666,2.115255117416382
1761333960765621500,9.03262158203125,9.626325607299805,0.7106683254241943,1.9094724655151367
1761333960784322000,9.051322021484374,9.09272575378418,0.19381862878799438,2.187039852142334
1761333960803022300,9.070022216796875,9.142974853515625,0.5551348328590393,1.9645073413848877
1761333960821723000,9.088722900390625,9.626325607299805,0.5264210104942322,2.242074728012085
1761333960840423200,9.107423095703124,9.93260669708252,0.5383850932121277,2.3234307765960693
1761333960859123700,9.126123779296876,9.913464546203613,0.6699903607368469,1.8759729862213135
1761333960877824000,9.144823974609375,9.750752449035645,0.550349235534668,1.7132610082626343
1761333960896524500,9.163524658203125,9.772287368774414,0.5335994362831116,1.4979069232940674
1761333960915224800,9.182224853515624,9.868000984191895,0.4666004180908203,1.6414763927459717
1761333960933925400,9.20092529296875,9.817750930786133,0.5479564070701599,1.7802600860595703
1761333960952625700,9.219625732421875,9.827322959899902,0.6317051649093628,1.552941918373108
1761333960971326200,9.238326171875,9.726823806762695,0.8805587291717529,1.1078768968582153
1761333960990026500,9.257026611328126,9.336793899536133,0.5958128571510315,1.5960127115249634
1761333961008727000,9.27572705078125,9.269794464111328,0.349352091550827,2.0673987865448
1761333961027427300,9.29442724609375,9.66939640045166,0.38285163044929504,2.3880369663238525
1761333961046127900,9.3131279296875,9.982855796813965,0.7680960893630981,2.115255117416382
1761333961064828200,9.331828125,9.69093132019043,0.6915257573127747,1.9310078620910645
1761333961083528700,9.35052880859375,9.487542152404785,0.7322037220001221,1.8424733877182007
1761333961102229000,9.36922900390625,9.339186668395996,0.5910272002220154,1.8400806188583374
1761333961120929500,9.387929443359376,9.200403213500977,0.6699903607368469,1.947757601737976
1761333961139629800,9.4066298828125,9.336793899536133,0.7178468108177185,2.210968017578125
1761333961158330400,9.425330322265625,9.643074989318848,0.8398807644844055,2.2755744457244873
1761333961177030700,9.44403076171875,9.688538551330566,0.8015955686569214,2.2325034141540527
1761333961195731200,9.462731201171875,9.90149974822998,0.8590233325958252,2.287538528442383
1761333961214431500,9.481431396484375,10.205389022827148,0.6819544434547424,2.3952155113220215
1761333961233132000,9.500132080078124,10.262816429138184,0.7058826684951782,2.478964328765869
1761333961251832300,9.518832275390626,9.992427825927734,0.8087740540504456,2.012363910675049
1761333961270532900,9.537532958984375,9.724431037902832,0.8207381963729858,1.8161523342132568
1761333961289233400,9.5562333984375,9.695717811584473,0.8350951075553894,1.852044701576233
1761333961307933700,9.57493359375,9.590433120727539,0.8039883971214294,1.852044701576233
1761333961326634200,9.59363427734375,9.43489933013916,0.8135597109794617,1.8807586431503296
1761333961345334500,9.61233447265625,9.33440113067627,0.7250252366065979,1.8352949619293213
1761333961364035000,9.63103515625,9.432506561279297,0.7322037220001221,1.6917256116867065
1761333961382735400,9.6497353515625,9.44447135925293,0.6556333899497986,1.7252250909805298
1761333961401436000,9.668435791015625,9.403793334960938,0.7417750358581543,1.7922241687774658
1761333961420136200,9.68713623046875,9.633503913879395,0.7465606927871704,2.0338993072509766
1761333961438836700,9.705836669921876,9.958928108215332,0.7537391185760498,2.122433662414551
1761333961457537000,9.724537109375,9.913464546203613,0.8303094506263733,1.8759729862213135
1761333961476237600,9.743237548828125,9.820143699645996,0.8901300430297852,2.00518536567688
1761333961494937900,9.761937744140624,9.667003631591797,0.8877372145652771,1.8855443000793457
1761333961513638400,9.780638427734376,9.643074989318848,0.9547362327575684,1.7682958841323853
1761333961532338700,9.799338623046875,9.638289451599121,0.916451096534729,1.8975083827972412
1761333961551039200,9.818039306640625,9.698110580444336,0.8973084688186646,1.9932212829589844
1761333961569739500,9.836739501953126,9.68375301361084,0.882951557636261,1.8711873292922974
1761333961588440000,9.855440185546875,9.619147300720215,0.8207381963729858,1.8472590446472168
1761333961607140400,9.874140380859375,9.698110580444336,0.7585247755050659,1.6247265338897705
1761333961625841000,9.8928408203125,9.803394317626953,0.7872386574745178,1.825723648071289
1761333961644541200,9.911541259765626,9.841679573059082,0.9451649188995361,2.091326951980591
1761333961663241700,9.93024169921875,9.609575271606445,1.0145567655563354,2.0243279933929443
1761333961681942000,9.94894189453125,9.597611427307129,1.007378339767456,2.029113531112671
1761333961700642600,9.967642578125,9.695717811584473,1.0049854516983032,1.8975083827972412
1761333961719342800,9.9863427734375,9.410971641540527,1.007378339767456,1.801795482635498
1761333961738043400,10.00504345703125,9.31047248840332,1.0217353105545044,1.8161523342132568
1761333961756743700,10.02374365234375,9.56650447845459,0.9044869542121887,1.8807586431503296
1761333961775444200,10.0424443359375,9.882357597351074,0.8590233325958252,1.8951154947280884
1761333961794144500,10.06114453125,10.01874828338623,0.8542376756668091,1.8807586431503296
1761333961812845000,10.079844970703125,9.875179290771484,0.9020941257476807,1.5696916580200195
1761333961831545300,10.09854541015625,9.81535816192627,0.8566305041313171,1.6007983684539795
1761333961850246000,10.117245849609375,9.68375301361084,0.8733802437782288,1.5840486288070679
1761333961868946200,10.1359462890625,9.44447135925293,0.9427721500396729,1.5122638940811157
1761333961887646700,10.154646728515624,9.41336441040039,0.9427721500396729,1.7730815410614014
1761333961906347300,10.17334716796875,9.66221809387207,0.9571290612220764,1.7419748306274414
1761333961925047600,10.192047607421875,9.750752449035645,0.8997012972831726,1.7204394340515137
1761333961943748000,10.210748046875,9.647860527038574,0.916451096534729,1.7730815410614014
1761333961962448400,10.229448486328126,9.650253295898438,0.9427721500396729,1.9214365482330322
1761333961981149000,10.24814892578125,9.671789169311523,0.9212366938591003,2.069791555404663
1761333961999849200,10.26684912109375,9.66221809387207,1.0480563640594482,1.667797327041626
1761333962018549800,10.2855498046875,9.714859962463379,0.9475577473640442,1.7180466651916504
1761333962037250000,10.30425,9.870393753051758,0.9379864931106567,1.8137595653533936
1761333962055950600,10.32295068359375,9.927821159362793,0.9379864931106567,1.911865234375
1761333962074651000,10.34165087890625,9.638289451599121,1.0241280794143677,1.7826528549194336
1761333962093351400,10.360351318359376,9.365508079528809,1.0360921621322632,1.8305093050003052
1761333962112051700,10.3790517578125,9.372686386108398,1.0217353105545044,1.8113667964935303
1761333962130752300,10.397752197265625,9.511469841003418,1.0097711086273193,1.919043779373169
1761333962149452500,10.41645263671875,9.674181938171387,1.0145567655563354,1.8951154947280884
1761333962168153000,10.435153076171876,9.839286804199219,1.0169496536254883,1.9573289155960083
1761333962186853400,10.453853271484375,9.875179290771484,0.9762716293334961,2.03629207611084
1761333962205554000,10.472553955078125,9.796216011047363,1.0049854516983032,1.8544375896453857
1761333962224254200,10.491254150390626,9.7938232421875,0.9427721500396729,1.9381862878799438
1761333962242954800,10.509954833984375,9.817750930786133,0.885344386100769,1.9357935190200806
1761333962261655000,10.528655029296875,9.760323524475098,0.8685946464538574,1.9405791759490967
1761333962280355600,10.54735546875,9.616754531860352,0.8350951075553894,1.8831514120101929
1761333962299055900,10.566055908203126,9.432506561279297,0.849452018737793,1.801795482635498
1761333962317756400,10.58475634765625,9.741181373596191,0.6915257573127747,1.495514154434204
1761333962336456700,10.603456787109375,9.509077072143555,0.8566305041313171,1.4811571836471558
1761333962355157200,10.6221572265625,9.609575271606445,0.8662018179893494,1.8544375896453857
1761333962373857500,10.640857421875,9.8871431350708,0.8542376756668091,2.084148406982422
1761333962392558000,10.65955810546875,10.272387504577637,0.8949156403541565,1.9142581224441528
