time,seconds_elapsed,z,y,x
1761333951817471000,0.084470947265625,9.145368576049805,2.943171739578247,1.1318050622940063
1761333951836171500,0.103171630859375,9.097511291503906,2.9359934329986572,1.3208380937576294
1761333951854871800,0.121871826171875,9.097511291503906,2.823530673980713,1.4811571836471558
1761333951873572400,0.140572265625,9.267401695251465,2.761317253112793,1.5026925802230835
1761333951892272600,0.159272705078125,9.164510726928711,2.7804598808288574,1.3112667798995972
1761333951910973200,0.17797314453125,9.004191398620605,2.7493531703948975,1.4117653369903564
1761333951929673500,0.196673583984375,9.212367057800293,2.8498518466949463,1.3926228284835815
1761333951948374000,0.2153740234375,9.389435768127441,2.830709218978882,1.3160524368286133
1761333951967074300,0.23407421875,9.43489933013916,2.816352367401123,1.0887342691421509
1761333951985774800,0.25277490234375,9.547362327575684,2.823530673980713,1.1126625537872314
1761333952004475100,0.27147509765625,9.528220176696777,2.912065267562866,1.1389836072921753
1761333952023175700,0.29017578125,9.42772102355957,2.950350284576416,1.2681959867477417
1761333952041876000,0.3088759765625,9.20997428894043,2.8833513259887695,1.100698471069336
1761333952060576500,0.327576416015625,9.305686950683594,2.809173822402954,0.8087740540504456
1761333952079277000,0.346277099609375,9.745966911315918,2.754138946533203,0.9882357716560364
1761333952097977300,0.364977294921875,10.03310489654541,2.6943182945251465,1.2562319040298462
1761333952116678000,0.383677978515625,9.875179290771484,2.6943182945251465,1.1222338676452637
1761333952135378200,0.402378173828125,9.578469276428223,2.6775684356689453,0.885344386100769
1761333952154078700,0.42107861328125,9.343972206115723,2.682354211807251,0.7010970115661621
1761333952172779000,0.439779052734375,9.138189315795898,2.7086751461029053,0.5599204897880554
1761333952191479600,0.4584794921875,9.068798065185547,2.6775684356689453,0.5934200286865234
1761333952210179800,0.477179931640625,9.379864692687988,2.6632115840911865,0.6675975322723389
1761333952228880400,0.49588037109375,9.54496955871582,2.6632115840911865,0.6795616149902344
1761333952247580700,0.51458056640625,9.449256896972656,2.66560435295105,0.6604190468788147
1761333952266281200,0.53328125,9.432506561279297,2.744567632675171,0.6628118753433228
1761333952284981500,0.5519814453125,9.55214786529541,2.720639228820801,0.6364908218383789
1761333952303682000,0.57068212890625,9.588040351867676,2.720639228820801,0.7441678643226624
1761333952322382300,0.58938232421875,9.580862045288086,2.699103832244873,0.8709874153137207
1761333952341083000,0.608082763671875,9.650253295898438,2.7326035499572754,0.8015955686569214
1761333952359783200,0.626783203125,9.76989459991455,2.6153552532196045,0.8997012972831726
1761333952378483700,0.645483642578125,9.7938232421875,2.63449764251709,0.9523434042930603
1761333952397184000,0.66418408203125,9.592825889587402,2.6392834186553955,0.9044869542121887
1761333952415884500,0.682884521484375,9.403793334960938,2.6536402702331543,0.9284151792526245
1761333952434584800,0.701584716796875,9.238688468933105,2.6703901290893555,0.9020941257476807
1761333952453285400,0.720285400390625,9.403793334960938,2.65842604637146,0.9595218896865845
1761333952471985700,0.738985595703125,9.477970123291016,2.644068956375122,1.0145567655563354
1761333952490686200,0.757686279296875,9.494720458984375,2.6464617252349854,1.0145567655563354
1761333952509386500,0.776386474609375,9.353543281555176,2.7038896083831787,1.057627558708191
1761333952528087000,0.795087158203125,9.284152030944824,2.7326035499572754,1.0265209674835205
1761333952546787600,0.81378759765625,9.422935485839844,2.706282377243042,1.0456634759902954
1761333952565487900,0.83248779296875,9.590433120727539,2.6536402702331543,1.1318050622940063
1761333952584188400,0.8511884765625,9.67657470703125,2.7110681533813477,1.275374412536621
1761333952602888700,0.869888671875,9.757930755615234,2.7110681533813477,1.428515076637268
1761333952621589200,0.88858935546875,9.671789169311523,2.713460922241211,1.3902299404144287
1761333952640289500,0.90728955078125,9.559326171875,2.706282377243042,1.2921242713928223
1761333952658990000,0.925989990234375,9.499505996704102,2.6177480220794678,1.2394821643829346
1761333952677690400,0.9446904296875,9.461220741271973,2.6009981632232666,1.2251251935958862
1761333952696391000,0.963390869140625,9.41336441040039,2.6297121047973633,1.2610175609588623
1761333952715091200,0.98209130859375,9.487542152404785,2.5770699977874756,1.2179467678070068
1761333952733791700,1.000791748046875,9.511469841003418,2.5052852630615234,1.2035897970199585
1761333952752492000,1.019491943359375,9.346364974975586,2.562713146209717,1.28255295753479
1761333952771192600,1.038192626953125,9.298508644104004,2.5124638080596924,1.28255295753479
1761333952789892900,1.056892822265625,9.399007797241211,2.5076780319213867,1.0408778190612793
1761333952808593400,1.075593505859375,9.461220741271973,2.4287149906158447,0.9762716293334961
1761333952827293700,1.094293701171875,9.518648147583008,2.4287149906158447,0.9930213689804077
1761333952845994200,1.112994140625,9.540184020996094,2.5363919734954834,1.0600204467773438
1761333952864694500,1.131694580078125,9.473184585571289,2.541177749633789,1.1222338676452637
1761333952883395000,1.15039501953125,9.44447135925293,2.581855535507202,1.1270195245742798
1761333952902095400,1.169095458984375,9.468399047851562,2.610569477081299,1.0671988725662231
1761333952920796000,1.1877958984375,9.449256896972656,2.651247501373291,1.0648061037063599
1761333952939496200,1.20649609375,9.475577354431152,2.6392834186553955,1.057627558708191
1761333952958196700,1.22519677734375,9.487542152404785,2.641676187515259,1.0648061037063599
1761333952976897000,1.24389697265625,9.482755661010742,2.641676187515259,1.0193424224853516
1761333952995597600,1.26259765625,9.497113227844238,2.641676187515259,0.9954141974449158
1761333953014298000,1.281298095703125,9.463613510131836,2.6249263286590576,0.9906286001205444
1761333953032998400,1.299998291015625,9.487542152404785,2.6608188152313232,1.007378339767456
1761333953051699000,1.318698974609375,9.671789169311523,2.620140790939331,1.1054840087890625
1761333953070399200,1.337399169921875,9.657432556152344,2.6057839393615723,1.0432707071304321
1761333953089099800,1.356099853515625,9.415757179260254,2.691925525665283,0.9571290612220764
1761333953107800000,1.374800048828125,9.339186668395996,2.723032236099243,0.9379864931106567
1761333953126500600,1.39350048828125,9.45882797241211,2.7278177738189697,0.9236295223236084
1761333953145201000,1.412200927734375,9.681360244750977,2.7086751461029053,1.038485050201416
1761333953163901200,1.430901123046875,9.626325607299805,2.713460922241211,1.062413215637207
1761333953182601700,1.449601806640625,9.4660062789917,2.7421748638153076,0.9882357716560364
1761333953201302300,1.46830224609375,9.501898765563965,2.754138946533203,0.8901300430297852
1761333953220002600,1.48700244140625,9.513862609863281,2.6967110633850098,0.8590233325958252
1761333953238703000,1.505703125,9.54496955871582,2.6297121047973633,0.9355936646461487
1761333953257403400,1.5244033203125,9.559326171875,2.5914268493652344,1.0839486122131348
1761333953276104000,1.54310400390625,9.43489933013916,2.620140790939331,1.0193424224853516
1761333953294804200,1.56180419921875,9.32722282409668,2.6464617252349854,1.0049854516983032
1761333953313504800,1.5805048828125,9.461220741271973,2.589034080505371,1.098305583000183
1761333953332205000,1.599205078125,9.547362327575684,2.5770699977874756,1.0504491329193115
1761333953350905600,1.617905517578125,9.461220741271973,2.612962245941162,0.9667003750801086
1761333953369606000,1.63660595703125,9.401400566101074,2.5842485427856445,0.9690931439399719
1761333953388306400,1.655306396484375,9.461220741271973,2.562713146209717,1.129412293434143
1761333953407006700,1.6740068359375,9.58325481414795,2.5603201389312744,1.1102696657180786
1761333953425707300,1.692707275390625,9.595218658447266,2.562713146209717,1.0600204467773438
1761333953444407600,1.711407470703125,9.506684303283691,2.581855535507202,0.9667003750801086
1761333953463108000,1.730108154296875,9.44447135925293,2.5698914527893066,0.9523434042930603
1761333953481808400,1.748808349609375,9.44447135925293,2.610569477081299,0.9523434042930603
1761333953500509000,1.767509033203125,9.523433685302734,2.60339093208313,1.0480563640594482
1761333953519209200,1.786209228515625,9.588040351867676,2.5674986839294434,1.1389836072921753
1761333953537909800,1.80490966796875,9.628718376159668,2.572284460067749,1.1700903177261353
1761333953556610000,1.823610107421875,9.65503978729248,2.5531418323516846,1.1940184831619263
1761333953575310600,1.842310546875,9.535398483276367,2.562713146209717,1.1078768968582153
1761333953594011000,1.861010986328125,9.454042434692383,2.6009981632232666,1.1365907192230225
1761333953612711400,1.87971142578125,9.430113792419434,2.555534601211548,1.2203395366668701
1761333953631411700,1.89841162109375,9.422935485839844,2.5076780319213867,1.2083754539489746
1761333953650112300,1.9171123046875,9.418149948120117,2.486142635345459,1.1940184831619263
1761333953668812500,1.9358125,9.34875774383545,2.462214469909668,1.1485549211502075
1761333953687513000,1.95451318359375,9.336793899536133,2.4358935356140137,1.0001999139785767
1761333953706213400,1.97321337890625,9.355937004089355,2.445464849472046,0.9355936646461487
1761333953724914000,1.991913818359375,9.44447135925293,2.4717857837677,1.0049854516983032
1761333953743614200,2.0106142578125,9.535398483276367,2.5076780319213867,1.0360921621322632
1761333953762314800,2.029314697265625,9.521040916442871,2.541177749633789,0.9786644577980042
1761333953781015000,2.04801513671875,9.489934921264648,2.59621262550354,0.9978070259094238
1761333953799715600,2.066715576171875,9.470791816711426,2.6488547325134277,0.9906286001205444
1761333953818415900,2.085415771484375,9.518648147583008,2.6847469806671143,1.0360921621322632
1761333953837116400,2.104116455078125,9.549755096435547,2.6847469806671143,1.0480563640594482
1761333953855816700,2.122816650390625,9.506684303283691,2.713460922241211,1.129412293434143
1761333953874517200,2.141517333984375,9.571290969848633,2.7014968395233154,1.1820544004440308
1761333953893217500,2.160217529296875,9.573683738708496,2.6943182945251465,1.1700903177261353
1761333953911918000,2.17891796875,9.454042434692383,2.6632115840911865,1.1437692642211914
1761333953930618400,2.197618408203125,9.442078590393066,2.68953275680542,1.0504491329193115
1761333953949319000,2.21631884765625,9.504291534423828,2.6392834186553955,1.1126625537872314
1761333953968019500,2.23501953125,9.53061294555664,2.65842604637146,1.1102696657180786
1761333953986719700,2.2537197265625,9.540184020996094,2.63449764251709,1.1222338676452637
1761333954005420300,2.272420166015625,9.580862045288086,2.6536402702331543,1.1485549211502075
1761333954024120600,2.29112060546875,9.580862045288086,2.63449764251709,1.100698471069336
1761333954042821000,2.309821044921875,9.573683738708496,2.581855535507202,1.062413215637207
1761333954061521400,2.328521484375,9.430113792419434,2.620140790939331,0.9882357716560364
1761333954080222000,2.347221923828125,9.298508644104004,2.589034080505371,0.9619147181510925
1761333954098922200,2.365922119140625,9.353543281555176,2.6153552532196045,0.9523434042930603
1761333954117622800,2.384622802734375,9.643074989318848,2.5076780319213867,1.0193424224853516
1761333954136323000,2.403322998046875,9.722038269042969,2.5220351219177246,0.9786644577980042
1761333954155023600,2.422023681640625,9.66939640045166,2.541177749633789,0.8422735929489136
1761333954173724000,2.440723876953125,9.468399047851562,2.5842485427856445,0.7393822073936462
1761333954192424400,2.459424560546875,9.461220741271973,2.6177480220794678,0.8590233325958252
1761333954211124700,2.478124755859375,9.391828536987305,2.5986053943634033,0.97148597240448
1761333954229825300,2.4968251953125,9.34157943725586,2.6536402702331543,1.0767701864242554
1761333954248525600,2.515525634765625,9.351150512695312,2.6488547325134277,1.1150553226470947
1761333954267226000,2.53422607421875,9.439684867858887,2.59621262550354,1.1724830865859985
1761333954285926400,2.552926513671875,9.437292098999023,2.6153552532196045,1.1318050622940063
1761333954304627000,2.571626953125,9.499505996704102,2.63449764251709,1.124626636505127
1761333954323327200,2.5903271484375,9.554540634155273,2.651247501373291,1.0600204467773438
1761333954342027800,2.60902783203125,9.590433120727539,2.6009981632232666,1.1222338676452637
1761333954360728000,2.62772802734375,9.513862609863281,2.667997360229492,1.1629117727279663
1761333954379428600,2.6464287109375,9.422935485839844,2.691925525665283,1.1485549211502075
1761333954398129000,2.66512890625,9.317651748657227,2.723032236099243,1.0336993932724
1761333954416829400,2.683829345703125,9.363115310668945,2.68953275680542,1.0456634759902954
1761333954435529700,2.70252978515625,9.461220741271973,2.6871397495269775,1.1772687435150146
1761333954454230300,2.721230224609375,9.501898765563965,2.6847469806671143,1.301695466041565
1761333954472930600,2.7399306640625,9.477970123291016,2.7326035499572754,1.191625714302063
1761333954491631000,2.758631103515625,9.547362327575684,2.6799614429473877,1.1341979503631592
1761333954510331400,2.777331298828125,9.57607650756836,2.6392834186553955,1.0552347898483276
1761333954529032000,2.796031982421875,9.489934921264648,2.6488547325134277,0.9427721500396729
1761333954547732200,2.814732177734375,9.401400566101074,2.6321048736572266,0.794417142868042
1761333954566432800,2.833432861328125,9.506684303283691,2.5986053943634033,0.7776673436164856
1761333954585133000,2.852133056640625,9.57607650756836,2.5938198566436768,0.8973084688186646
1761333954603833600,2.87083349609375,9.418149948120117,2.6177480220794678,0.973878800868988
1761333954622534000,2.889533935546875,9.308079719543457,2.6153552532196045,0.9667003750801086
1761333954641234400,2.908234375,9.332008361816406,2.6273193359375,0.9451649188995361
1761333954659934700,2.926934814453125,9.422935485839844,2.644068956375122,0.9116654396057129
1761333954678635300,2.94563525390625,9.489934921264648,2.6249263286590576,0.9499505758285522
1761333954697335600,2.96433544921875,9.489934921264648,2.589034080505371,0.9308080077171326
1761333954716036000,2.9830361328125,9.511469841003418,2.5914268493652344,0.9451649188995361
1761333954734736400,3.001736328125,9.571290969848633,2.612962245941162,0.9403793215751648
1761333954753437000,3.02043701171875,9.535398483276367,2.6153552532196045,0.9260223507881165
1761333954772137500,3.039137451171875,9.504291534423828,2.6703901290893555,0.8398807644844055
1761333954790837800,3.057837646484375,9.499505996704102,2.6464617252349854,0.8159525394439697
1761333954809538300,3.076538330078125,9.600004196166992,2.6321048736572266,0.9212366938591003
1761333954828238600,3.095238525390625,9.621540069580078,2.7038896083831787,1.0480563640594482
1761333954846939100,3.113939208984375,9.600004196166992,2.7038896083831787,1.246660590171814
1761333954865639400,3.132639404296875,9.494720458984375,2.7182464599609375,1.2251251935958862
1761333954884340000,3.151340087890625,9.439684867858887,2.7397818565368652,1.057627558708191
1761333954903040300,3.170040283203125,9.42772102355957,2.706282377243042,0.9858429431915283
1761333954921740800,3.18874072265625,9.396614074707031,2.6608188152313232,0.9834501147270203
1761333954940441000,3.207441162109375,9.4061861038208,2.65842604637146,1.031306505203247
1761333954959141600,3.2261416015625,9.461220741271973,2.63449764251709,1.062413215637207
1761333954977842000,3.244842041015625,9.415757179260254,2.6632115840911865,1.069591760635376
1761333954996542500,3.26354248046875,9.324830055236816,2.706282377243042,1.0791629552841187
1761333955015242800,3.28224267578125,9.355937004089355,2.715853691101074,1.069591760635376
1761333955033943300,3.300943359375,9.454042434692383,2.6775684356689453,1.00259268283844
1761333955052643600,3.3196435546875,9.56650447845459,2.6703901290893555,1.0528420209884644
1761333955071344000,3.33834423828125,9.542576789855957,2.7326035499572754,1.0791629552841187
1761333955090044400,3.35704443359375,9.43489933013916,2.6967110633850098,1.155733346939087
1761333955108745000,3.375744873046875,9.42772102355957,2.682354211807251,1.1365907192230225
1761333955127445200,3.3944453125,9.408578872680664,2.6775684356689453,1.031306505203247
1761333955146145800,3.413145751953125,9.446864128112793,2.6632115840911865,1.0097711086273193
1761333955164846000,3.43184619140625,9.432506561279297,2.65842604637146,1.0049854516983032
1761333955183546600,3.450546630859375,9.446864128112793,2.6392834186553955,1.0217353105545044
1761333955202247000,3.469246826171875,9.454042434692383,2.66560435295105,1.093519926071167
1761333955220947500,3.487947509765625,9.468399047851562,2.6799614429473877,1.1102696657180786
1761333955239647700,3.506647705078125,9.485149383544922,2.7110681533813477,1.0480563640594482
1761333955258348300,3.525348388671875,9.391828536987305,2.723032236099243,1.1126625537872314
1761333955277048600,3.544048583984375,9.45164966583252,2.7637102603912354,1.093519926071167
1761333955295749000,3.5627490234375,9.564111709594727,2.7421748638153076,1.2059825658798218
1761333955314449400,3.581449462890625,9.595218658447266,2.6847469806671143,1.1772687435150146
1761333955333150000,3.60014990234375,9.528220176696777,2.730210542678833,1.0552347898483276
1761333955351850200,3.618850341796875,9.43489933013916,2.7326035499572754,1.0408778190612793
1761333955370550800,3.63755078125,9.343972206115723,2.761317253112793,1.031306505203247
1761333955389251000,3.6562509765625,9.33440113067627,2.715853691101074,1.0863415002822876
1761333955407951600,3.67495166015625,9.391828536987305,2.7182464599609375,1.196411371231079
1761333955426652000,3.69365185546875,9.449256896972656,2.730210542678833,1.184447169303894
1761333955445352200,3.712352294921875,9.4061861038208,2.7182464599609375,1.0480563640594482
1761333955464052700,3.731052734375,9.401400566101074,2.7326035499572754,0.8997012972831726
1761333955482753000,3.7497529296875,9.561718940734863,2.7254250049591064,0.9619147181510925
1761333955501453600,3.76845361328125,9.631111145019531,2.691925525665283,1.0241280794143677
1761333955520153900,3.78715380859375,9.585647583007812,2.7589244842529297,0.9762716293334961
1761333955538854400,3.8058544921875,9.482755661010742,2.7637102603912354,0.9308080077171326
1761333955557554700,3.8245546875,9.499505996704102,2.770888566970825,0.9667003750801086
1761333955576255200,3.843255126953125,9.525827407836914,2.7565317153930664,0.9762716293334961
1761333955594955500,3.86195556640625,9.55214786529541,2.744567632675171,1.0193424224853516
1761333955613656000,3.880656005859375,9.506684303283691,2.723032236099243,1.0911271572113037
1761333955632356400,3.8993564453125,9.42054271697998,2.7110681533813477,1.0265209674835205
1761333955651057000,3.918056884765625,9.281759262084961,2.6967110633850098,0.9260223507881165
1761333955669757200,3.936757080078125,9.375079154968262,2.6464617252349854,0.9930213689804077
1761333955688457700,3.955457763671875,9.454042434692383,2.6536402702331543,1.155733346939087
1761333955707158000,3.974157958984375,9.422935485839844,2.6392834186553955,1.069591760635376
1761333955725858600,3.992858642578125,9.34875774383545,2.6177480220794678,0.9499505758285522
1761333955744558800,4.011558837890625,9.243474006652832,2.6321048736572266,0.9284151792526245
1761333955763259400,4.03025927734375,9.305686950683594,2.6488547325134277,0.9499505758285522
1761333955781959700,4.048959716796875,9.45164966583252,2.6488547325134277,0.9762716293334961
1761333955800660200,4.06766015625,9.463613510131836,2.6967110633850098,0.9475577473640442
1761333955819360500,4.086360595703125,9.42772102355957,2.7421748638153076,1.0360921621322632
1761333955838061000,4.10506103515625,9.379864692687988,2.8139593601226807,1.038485050201416
1761333955856761300,4.12376123046875,9.396614074707031,2.871387243270874,1.0791629552841187
1761333955875462000,4.1424619140625,9.540184020996094,2.9001009464263916,1.1700903177261353
1761333955894162200,4.161162109375,9.66221809387207,2.8905298709869385,1.191625714302063
1761333955912862700,4.17986279296875,9.693324089050293,2.8977081775665283,1.1365907192230225
1761333955931563000,4.19856298828125,9.619147300720215,2.940778970718384,1.1054840087890625
1761333955950263600,4.217263671875,9.42772102355957,2.950350284576416,1.0767701864242554
1761333955968963800,4.2359638671875,9.243474006652832,2.919243574142456,1.1676974296569824
1761333955987664400,4.254664306640625,9.28893756866455,2.8809585571289062,1.215553879737854
1761333956006364700,4.27336474609375,9.449256896972656,2.8187451362609863,1.2299108505249023
1761333956025065200,4.292065185546875,9.463613510131836,2.7397818565368652,1.1700903177261353
1761333956043765500,4.310765625,9.32004451751709,2.7182464599609375,1.0815558433532715
1761333956062466000,4.329466064453125,9.29611587524414,2.7182464599609375,0.9475577473640442
1761333956081166300,4.348166259765625,9.506684303283691,2.720639228820801,0.9092726111412048
1761333956099867000,4.366866943359375,9.760323524475098,2.691925525665283,0.8638089895248413
1761333956118567200,4.385567138671875,9.731609344482422,2.744567632675171,0.7728816866874695
1761333956137267700,4.404267822265625,9.54496955871582,2.7038896083831787,0.7585247755050659
1761333956155968000,4.422968017578125,9.578469276428223,2.66560435295105,0.8350951075553894
1761333956174668500,4.44166845703125,9.722038269042969,2.589034080505371,1.0432707071304321
1761333956193368800,4.460368896484375,9.41336441040039,2.60339093208313,1.0217353105545044
1761333956212069400,4.4790693359375,9.274580955505371,2.6368906497955322,0.9020941257476807
1761333956230770000,4.49777001953125,9.533005714416504,2.5363919734954834,0.9020941257476807
1761333956249470200,4.51647021484375,9.547362327575684,2.5148565769195557,0.7824530005455017
1761333956268170500,4.53517041015625,9.372686386108398,2.5698914527893066,0.641276478767395
1761333956286871000,4.55387109375,9.219545364379883,2.581855535507202,0.5359922647476196
1761333956305571300,4.5725712890625,9.212367057800293,2.557927370071411,0.7250252366065979
1761333956324271900,4.59127197265625,9.463613510131836,2.6153552532196045,1.0671988725662231
1761333956342972400,4.609972412109375,9.55214786529541,2.6967110633850098,1.2705888748168945
1761333956361672700,4.628672607421875,9.542576789855957,2.7589244842529297,1.277767300605774
1761333956380373200,4.647373291015625,9.34875774383545,2.754138946533203,1.2658032178878784
1761333956399073500,4.666073486328125,9.157332420349121,2.8737800121307373,1.1389836072921753
1761333956417773800,4.68477392578125,9.042476654052734,2.8809585571289062,1.0552347898483276
1761333956436474400,4.703474365234375,9.272188186645508,2.8666014671325684,0.9427721500396729
1761333956455175000,4.7221748046875,9.54496955871582,2.8139593601226807,1.0528420209884644
1761333956473875200,4.740875244140625,9.600004196166992,2.7278177738189697,1.28255295753479
1761333956492575700,4.75957568359375,9.528220176696777,2.706282377243042,1.2586246728897095
1761333956511276000,4.778276123046875,9.492327690124512,2.68953275680542,1.2251251935958862
1761333956529976600,4.7969765625,9.432506561279297,2.730210542678833,1.0456634759902954
1761333956548676900,4.8156767578125,9.55214786529541,2.7278177738189697,1.0217353105545044
1761333956567377400,4.83437744140625,9.54496955871582,2.682354211807251,1.184447169303894
1761333956586077700,4.85307763671875,9.511469841003418,2.7110681533813477,1.2275179624557495
1761333956604778200,4.8717783203125,9.442078590393066,2.7254250049591064,1.2658032178878784
1761333956623478500,4.890478515625,9.339186668395996,2.7397818565368652,1.0648061037063599
1761333956642179000,4.909178955078125,9.221938133239746,2.7565317153930664,0.914058268070221
1761333956660879400,4.92787939453125,9.449256896972656,2.7493531703948975,0.9044869542121887
1761333956679580000,4.946579833984375,9.686145782470703,2.641676187515259,1.1868400573730469
1761333956698280200,4.9652802734375,9.714859962463379,2.60339093208313,1.3256237506866455
1761333956716980700,4.983980712890625,9.516255378723145,2.6871397495269775,1.277767300605774
1761333956735681000,5.002680908203125,9.164510726928711,2.715853691101074,0.9786644577980042
1761333956754381600,5.021381591796875,9.138189315795898,2.68953275680542,0.7345965504646301
1761333956773081900,5.040081787109375,9.408578872680664,2.6632115840911865,0.8303094506263733
1761333956791782400,5.058782470703125,9.554540634155273,2.63449764251709,0.8805587291717529
1761333956810482700,5.077482666015625,9.588040351867676,2.6153552532196045,0.9284151792526245
1761333956829183200,5.096183349609375,9.549755096435547,2.5986053943634033,0.9930213689804077
1761333956847883500,5.114883544921875,9.422935485839844,2.610569477081299,0.9954141974449158
1761333956866584000,5.133583984375,9.351150512695312,2.5986053943634033,0.8949156403541565
1761333956885284400,5.152284423828125,9.432506561279297,2.555534601211548,0.916451096534729
1761333956903985000,5.17098486328125,9.487542152404785,2.5220351219177246,0.9499505758285522
1761333956922685200,5.189685302734375,9.504291534423828,2.5292134284973145,0.9332008361816406
1761333956941385700,5.2083857421875,9.528220176696777,2.493321180343628,0.9379864931106567
1761333956960086000,5.2270859375,9.671789169311523,2.541177749633789,0.973878800868988
1761333956978786600,5.24578662109375,9.762716293334961,2.478964328765869,1.0432707071304321
1761333956997486800,5.26448681640625,9.631111145019531,2.5435705184936523,0.8997012972831726
1761333957016187400,5.2831875,9.346364974975586,2.541177749633789,0.7537391185760498
1761333957034887700,5.3018876953125,9.20279598236084,2.541177749633789,0.7513462901115417
1761333957053588200,5.320588134765625,9.083154678344727,2.524427890777588,0.6867401003837585
1761333957072288500,5.33928857421875,9.262616157531738,2.447857618331909,0.7561319470405579
1761333957090989000,5.357989013671875,9.638289451599121,2.414358139038086,0.7728816866874695
1761333957109689300,5.376689453125,9.829715728759766,2.4598217010498047,0.7657032608985901
1761333957128390000,5.395389892578125,9.719645500183105,2.510071039199829,0.6867401003837585
1761333957147090200,5.414090087890625,9.607182502746582,2.5292134284973145,0.6532405614852905
1761333957165790700,5.432790771484375,9.53779125213623,2.5938198566436768,0.6436693072319031
1761333957184491000,5.451490966796875,9.611968994140625,2.572284460067749,0.7417750358581543
1761333957203191600,5.470191650390625,9.588040351867676,2.548356056213379,0.851844847202301
1761333957221891800,5.488891845703125,9.667003631591797,2.586641311645508,0.9308080077171326
1761333957240592400,5.50759228515625,9.77707290649414,2.5292134284973145,0.9284151792526245
1761333957259292700,5.526292724609375,9.772287368774414,2.500499725341797,0.8183453679084778
1761333957277993200,5.5449931640625,9.647860527038574,2.4741785526275635,0.8207381963729858
1761333957296693500,5.563693603515625,9.640682220458984,2.4670002460479736,0.8327022790908813
1761333957315394000,5.58239404296875,9.611968994140625,2.462214469909668,0.7920243144035339
1761333957334094300,5.60109423828125,9.513862609863281,2.517249345779419,0.6771687865257263
1761333957352795000,5.619794921875,9.353543281555176,2.5698914527893066,0.6580262184143066
1761333957371495200,5.6384951171875,9.255437850952148,2.5698914527893066,0.6939185857772827
1761333957390195700,5.65719580078125,9.358329772949219,2.495713949203491,0.7489534616470337
1761333957408896000,5.67589599609375,9.403793334960938,2.4406790733337402,0.849452018737793
1761333957427596500,5.694596435546875,9.480362892150879,2.3497519493103027,0.9403793215751648
1761333957446296800,5.713296875,9.643074989318848,2.3234307765960693,0.9643075466156006
1761333957464997400,5.731997314453125,9.65503978729248,2.344966173171997,0.9212366938591003
1761333957483697700,5.75069775390625,9.65503978729248,2.414358139038086,0.8255237936973572
1761333957502398200,5.769398193359375,9.762716293334961,2.3736801147460938,0.849452018737793
1761333957521098500,5.788098388671875,9.856036186218262,2.3712873458862305,0.8183453679084778
1761333957539799000,5.806799072265625,9.81535816192627,2.376072883605957,0.8159525394439697
1761333957558499300,5.825499267578125,9.525827407836914,2.4335005283355713,0.9068797826766968
1761333957577199900,5.844199951171875,9.32004451751709,2.4837498664855957,0.9236295223236084
1761333957595900200,5.862900146484375,9.315258979797363,2.5196423530578613,0.8685946464538574
1761333957614600700,5.8816005859375,9.4061861038208,2.517249345779419,1.0049854516983032
1761333957633301000,5.900301025390625,9.308079719543457,2.6081767082214355,1.129412293434143
1761333957652001500,5.91900146484375,9.384650230407715,2.5842485427856445,1.0815558433532715
1761333957670701800,5.937701904296875,9.604789733886719,2.5387847423553467,0.9858429431915283
1761333957689402400,5.95640234375,9.734002113342285,2.620140790939331,0.9068797826766968
1761333957708102700,5.9751025390625,9.762716293334961,2.641676187515259,0.885344386100769
1761333957726803200,5.99380322265625,9.659825325012207,2.6225335597991943,0.914058268070221
1761333957745503500,6.01250341796875,9.55214786529541,2.6488547325134277,0.8709874153137207
1761333957764204000,6.0312041015625,9.482755661010742,2.610569477081299,0.9475577473640442
1761333957782904600,6.049904541015625,9.456435203552246,2.59621262550354,0.9762716293334961
1761333957801604900,6.06860498046875,9.456435203552246,2.6057839393615723,0.9260223507881165
1761333957820305400,6.087305419921875,9.408578872680664,2.586641311645508,0.8374879360198975
1761333957839005700,6.106005615234375,9.45164966583252,2.5076780319213867,0.8973084688186646
1761333957857706200,6.124706298828125,9.533005714416504,2.510071039199829,0.8997012972831726
1761333957876406500,6.143406494140625,9.186046600341797,2.421536445617676,1.1318050622940063
1761333957895107000,6.162107177734375,9.585647583007812,2.3952155113220215,0.7872386574745178
1761333957913807400,6.180807373046875,9.667003631591797,2.526820659637451,0.7800601720809937
1761333957932508000,6.1995078125,9.623932838439941,2.5220351219177246,0.8566305041313171
1761333957951208200,6.218208251953125,9.56650447845459,2.517249345779419,0.851844847202301
1761333957969908700,6.23690869140625,9.501898765563965,2.526820659637451,0.8566305041313171
1761333957988609000,6.255609130859375,9.604789733886719,2.6225335597991943,0.9403793215751648
1761333958007309300,6.274309326171875,9.707681655883789,2.6536402702331543,0.9020941257476807
1761333958026009900,6.293009765625,9.659825325012207,2.620140790939331,0.7250252366065979
1761333958044710400,6.31171044921875,9.578469276428223,2.6368906497955322,0.6939185857772827
1761333958063410700,6.33041064453125,9.638289451599121,2.6057839393615723,0.7680960893630981
1761333958082111200,6.349111328125,9.714859962463379,2.6225335597991943,0.6963114142417908
1761333958100811500,6.3678115234375,9.791430473327637,2.581855535507202,0.760917603969574
1761333958119512000,6.386511962890625,9.714859962463379,2.6081767082214355,0.638883650302887
1761333958138212400,6.40521240234375,9.80817985534668,2.6297121047973633,0.6628118753433228
1761333958156913000,6.423912841796875,9.942177772521973,2.6536402702331543,0.8422735929489136
1761333958175613200,6.44261328125,9.942177772521973,2.7014968395233154,1.0169496536254883
1761333958194313700,6.461313720703125,9.523433685302734,2.7182464599609375,1.1389836072921753
1761333958213014000,6.480013916015625,9.05444049835205,2.8689942359924316,0.8901300430297852
1761333958231714600,6.498714599609375,8.973084449768066,2.9694929122924805,0.8973084688186646
1761333958250414800,6.517414794921875,9.09272575378418,2.785245656967163,1.1820544004440308
1761333958269115400,6.536115478515625,9.351150512695312,2.9383862018585205,1.1485549211502075
1761333958287815700,6.554815673828125,9.647860527038574,2.919243574142456,1.3280165195465088
1761333958306516200,6.57351611328125,9.765109062194824,3.019742250442505,1.3423734903335571
1761333958325216500,6.592216552734375,9.521040916442871,3.0340991020202637,1.2059825658798218
1761333958343917000,6.6109169921875,9.32004451751709,3.1968109607696533,1.007378339767456
1761333958362617300,6.629617431640625,9.45882797241211,3.239881753921509,1.2945170402526855
1761333958381318000,6.64831787109375,9.848857879638672,3.4887354373931885,1.6534404754638672
1761333958400018200,6.66701806640625,9.841679573059082,3.3332018852233887,1.6534404754638672
1761333958418718700,6.68571875,9.602396965026855,3.2925238609313965,1.1389836072921753
1761333958437419000,6.7044189453125,9.346364974975586,3.431307554244995,0.8159525394439697
1761333958456119600,6.72311962890625,9.011369705200195,3.4169507026672363,0.9595218896865845
1761333958474820000,6.741820068359375,8.673981666564941,3.541377544403076,0.7106683254241943
1761333958493520400,6.760520263671875,8.413164138793945,3.548556089401245,0.8183453679084778
1761333958512221000,6.779220947265625,8.422736167907715,3.3379876613616943,0.9667003750801086
1761333958530921200,6.797921142578125,8.714659690856934,3.397808074951172,1.153340458869934
1761333958549621800,6.816621826171875,8.499305725097656,3.218346357345581,1.4787644147872925
1761333958568322000,6.835322021484375,8.283951759338379,3.321237802505493,1.7012969255447388
1761333958587022600,6.854022705078125,8.24566650390625,3.5605201721191406,2.0171494483947754
1761333958605723000,6.872722900390625,8.630910873413086,3.665804386138916,2.227717876434326
1761333958624423400,6.89142333984375,8.796015739440918,3.6394832134246826,2.0315065383911133
1761333958643123700,6.910123779296875,9.097511291503906,3.610769271850586,1.8400806188583374
1761333958661824300,6.92882421875,9.1716890335083,3.6921253204345703,1.8831514120101929
1761333958680524500,6.947524658203125,8.999405860900879,3.7782669067382812,2.091326951980591
1761333958699225000,6.96622509765625,8.994620323181152,3.6131622791290283,2.3234307765960693
1761333958717925400,6.98492529296875,9.140582084655762,3.6370904445648193,2.438286304473877
1761333958736626000,7.0036259765625,9.21715259552002,3.6059837341308594,2.256431818008423
1761333958755326200,7.022326171875,9.590433120727539,3.565305709838867,2.2636101245880127
1761333958774026800,7.04102685546875,9.66939640045166,3.483949661254883,2.289931297302246
1761333958792727000,7.05972705078125,9.403793334960938,3.4743785858154297,2.321038007736206
1761333958811427600,7.078427490234375,9.049654960632324,3.5533416271209717,2.328216314315796
1761333958830127900,7.0971279296875,8.85344409942627,3.4552359580993652,2.5698914527893066
1761333958848828400,7.115828369140625,9.087940216064453,3.376272678375244,3.043670415878296
1761333958867528700,7.13452880859375,9.499505996704102,3.414557933807373,2.8761727809906006
1761333958886229200,7.153229248046875,9.446864128112793,3.4959139823913574,2.770888566970825
1761333958904929500,7.171929443359375,9.358329772949219,3.6131622791290283,3.2350962162017822
1761333958923630000,7.190630126953125,9.32004451751709,3.814159393310547,3.625126361846924
1761333958942330400,7.209330322265625,9.068798065185547,3.88594388961792,3.2207393646240234
1761333958961031000,7.228031005859375,7.992027759552002,5.051248550415039,0.46899324655532837
1761333958979731200,7.246731201171875,6.874579429626465,5.096712112426758,-0.20099709928035736
1761333958998431700,7.265431640625,7.17368221282959,3.431307554244995,2.3952155113220215
1761333959017132300,7.28413232421875,8.731410026550293,3.9218363761901855,2.940778970718384
1761333959035832600,7.30283251953125,9.052047729492188,3.6059837341308594,2.8689942359924316
1761333959054533000,7.321533203125,8.894122123718262,3.7399818897247314,2.029113531112671
1761333959073233400,7.3402333984375,8.58784008026123,3.483949661254883,1.7994025945663452
1761333959091934000,7.358933837890625,8.733802795410156,3.321237802505493,2.562713146209717
1761333959110634200,7.37763427734375,9.013762474060059,3.728017568588257,2.8043880462646484
1761333959129334800,7.396334716796875,8.109275817871094,3.34995174407959,3.7399818897247314
1761333959148035000,7.41503515625,7.977670669555664,4.108476638793945,2.500499725341797
1761333959166735600,7.433735595703125,7.872386455535889,3.5916268825531006,2.4646072387695312
1761333959185436000,7.452435791015625,7.779066562652588,3.8261234760284424,1.9716858863830566
1761333959204136400,7.471136474609375,8.252845764160156,2.9551360607147217,1.4093725681304932
1761333959222836700,7.489836669921875,8.470592498779297,3.0867412090301514,1.9692929983139038
1761333959241537300,7.508537353515625,8.336593627929688,3.019742250442505,2.4526431560516357
1761333959260237600,7.527237548828125,9.949356079101562,3.359523057937622,2.9312076568603516
1761333959278938000,7.545938232421875,10.846665382385254,2.8522446155548096,3.297309637069702
1761333959297638400,7.564638427734375,10.459028244018555,2.6297121047973633,2.9383862018585205
1761333959316339000,7.5833388671875,9.253045082092285,2.8498518466949463,2.60339093208313
1761333959335039200,7.602039306640625,8.73619556427002,3.043670415878296,2.3856441974639893
1761333959353739800,7.62073974609375,9.21715259552002,2.610569477081299,2.7278177738189697
1761333959372440000,7.639440185546875,9.34875774383545,2.3976082801818848,2.2683959007263184
1761333959391140600,7.658140625,8.841479301452637,2.7110681533813477,2.5770699977874756
1761333959409841000,7.6768408203125,9.040083885192871,2.912065267562866,2.902493953704834
1761333959428541400,7.69554150390625,9.463613510131836,2.6464617252349854,3.1585259437561035
1761333959447241700,7.71424169921875,9.221938133239746,2.620140790939331,2.9072794914245605
1761333959465942300,7.7329423828125,8.791230201721191,2.6177480220794678,2.806781053543091
1761333959484642600,7.751642578125,9.004191398620605,2.6847469806671143,2.847458839416504
1761333959503343000,7.770343017578125,9.257830619812012,2.8905298709869385,2.825923442840576
1761333959522043400,7.78904345703125,9.274580955505371,3.129812002182007,2.7397818565368652
1761333959540744000,7.807743896484375,9.183652877807617,2.9862427711486816,2.871387243270874
1761333959559444500,7.826444580078125,8.135597229003906,2.256431818008423,2.383251428604126
1761333959578144800,7.845144775390625,7.88913631439209,1.9357935190200806,2.63449764251709
1761333959596845300,7.86384521484375,8.310273170471191,2.478964328765869,2.3090739250183105
1761333959615545600,7.882545654296875,8.85344409942627,1.8496519327163696,3.376272678375244
1761333959634246100,7.90124609375,10.38485050201416,1.8113667964935303,3.6873397827148438
1761333959652946400,7.919946533203125,10.29153060913086,1.9812572002410889,3.3379876613616943
1761333959671647000,7.93864697265625,9.990034103393555,2.2947168350219727,3.136990547180176
1761333959690347300,7.95734716796875,9.607182502746582,2.586641311645508,2.825923442840576
1761333959709047800,7.9760478515625,8.662017822265625,2.909672260284424,2.63449764251709
1761333959727748000,7.994748046875,7.585247993469238,3.0580272674560547,2.210968017578125
1761333959746448600,8.01344873046875,7.130611419677734,2.991028308868408,2.3641088008880615
1761333959765149000,8.03214892578125,7.752745151519775,1.8975083827972412,2.7637102603912354
1761333959783849500,8.050849365234376,8.786444664001465,1.9046868085861206,2.871387243270874
1761333959802549800,8.0695498046875,9.415757179260254,1.7180466651916504,3.2446675300598145
1761333959821250300,8.088250244140625,10.152746200561523,1.7730815410614014,3.579662561416626
1761333959839950600,8.10695068359375,10.234102249145508,1.4931213855743408,3.201596736907959
1761333959858651100,8.125651123046875,9.961320877075195,1.2562319040298462,2.933600664138794
1761333959877351400,8.144351318359375,10.210174560546875,1.4141582250595093,2.478964328765869
1761333959896052000,8.163052001953124,10.619346618652344,1.3567304611206055,2.6225335597991943
1761333959914752300,8.181752197265626,10.908878326416016,1.2586246728897095,2.837887763977051
1761333959933452800,8.200452880859375,10.497312545776367,1.2610175609588623,2.531606435775757
1761333959952153000,8.219153076171875,9.738788604736328,1.3782658576965332,2.0267207622528076
1761333959970853600,8.237853515625,9.078369140625,1.3471591472625732,1.797009825706482
1761333959989554200,8.25655419921875,8.561519622802734,1.423729419708252,1.4883357286453247
1761333960008254500,8.27525439453125,9.040083885192871,1.3256237506866455,1.3399807214736938
1761333960026955000,8.293955078125,9.497113227844238,1.1700903177261353,1.5194423198699951
1761333960045655300,8.3126552734375,9.614361763000488,0.9379864931106567,1.9956140518188477
1761333960064355800,8.33135595703125,9.923035621643066,0.8709874153137207,2.163111686706543
1761333960083056000,8.35005615234375,10.183853149414062,0.8207381963729858,2.3784656524658203
1761333960101756700,8.368756591796876,9.80817985534668,0.9188438653945923,2.4430718421936035
1761333960120457000,8.38745703125,9.430113792419434,1.0552347898483276,2.163111686706543
1761333960139157500,8.406157470703125,9.286544799804688,1.0648061037063599,2.282752752304077
1761333960157857800,8.42485791015625,9.556933403015137,1.1126625537872314,2.6009981632232666
1761333960176558300,8.443558349609376,9.91825008392334,1.00259268283844,2.775674343109131
1761333960195258600,8.462258544921875,10.068997383117676,0.7680960893630981,2.7086751461029053
1761333960213959200,8.480959228515625,9.848857879638672,0.9212366938591003,2.3330020904541016
1761333960232659500,8.499659423828126,9.485149383544922,0.9786644577980042,2.1200408935546875
1761333960251360000,8.518360107421875,9.157332420349121,0.8757730722427368,2.0673987865448
1761333960270060300,8.537060302734375,9.29611587524414,0.8733802437782288,2.148754835128784
1761333960288760800,8.5557607421875,9.492327690124512,0.885344386100769,2.2325034141540527
1761333960307461000,8.574461181640626,9.513862609863281,0.7680960893630981,2.2301106452941895
1761333960326161700,8.59316162109375,9.487542152404785,0.7178468108177185,2.0985054969787598
1761333960344862000,8.611862060546875,9.449256896972656,0.5599204897880554,2.124826431274414
1761333960363562500,8.6305625,9.750752449035645,0.4977070987224579,2.392822742462158
1761333960382262800,8.6492626953125,10.16710376739502,0.5144568681716919,2.4574289321899414
1761333960400963300,8.66796337890625,9.870393753051758,0.4833501875400543,2.297109842300415
1761333960419663600,8.68666357421875,9.671789169311523,0.5455635786056519,2.1990039348602295
1761333960438364200,8.7053642578125,9.717252731323242,0.7537391185760498,2.1128623485565186
1761333960457064400,8.724064453125,9.743574142456055,0.6508477330207825,1.9405791759490967
1761333960475765000,8.742764892578125,9.729216575622559,0.2799602448940277,2.1846470832824707
1761333960494465500,8.761465576171876,9.891928672790527,0.24167509377002716,2.187039852142334
1761333960513165800,8.780165771484375,10.037891387939453,0.30149564146995544,2.0554347038269043
1761333960531866400,8.798866455078125,10.076175689697266,0.3852444589138031,1.9932212829589844
1761333960550566700,8.817566650390624,9.817750930786133,0.33738797903060913,2.021935224533081
1761333960569267200,8.83626708984375,9.58325481414795,0.2727817893028259,2.0506489276885986
1761333960587967500,8.854967529296875,9.573683738708496,0.15314064919948578,1.923829436302185
1761333960606668000,8.87366796875,9.688538551330566,0.0526420995593071,1.9573289155960083
1761333960625368300,8.892368408203126,10.00439167022705,0.035892341285943985,1.8592232465744019
1761333960644068900,8.91106884765625,10.250852584838867,0.13160525262355804,1.672582983970642
1761333960662769200,8.92976904296875,10.071390151977539,0.07896314561367035,1.4644074440002441
1761333960681469700,8.9484697265625,9.760323524475098,-0.11485548317432404,1.7874385118484497
1761333960700170000,8.967169921875,9.461220741271973,-0.16271193325519562,2.0793628692626953
1761333960718870500,8.98587060546875,9.4061861038208,-0.07178468257188797,2.3856441974639893
1761333960737570800,9.00457080078125,9.879964828491211,0.43549370765686035,2.132004976272583
1761333960756271400,9.023271240234376,9.796216011047363,0.4259224236011505,2.148754835128784
1761333960774971600,9.0419716796875,9.29611587524414,0.30628129839897156,2.2133610248565674
1761333960793672200,9.060672119140625,9.061619758605957,0.4498506486415863,1.9764715433120728
1761333960812372500,9.07937255859375,9.360722541809082,0.5551348328590393,2.115255117416382
1761333960831073000,9.098072998046876,9.798608779907227,0.5264210104942322,2.3880369663238525
1761333960849773300,9.116773193359375,9.9469633102417,0.5910272002220154,2.0721843242645264
1761333960868473900,9.135473876953125,9.841679573059082,0.607776939868927,1.8664016723632812
1761333960887174400,9.15417431640625,9.717252731323242,0.5264210104942322,1.5696916580200195
1761333960905874700,9.172874755859375,9.889535903930664,0.4977070987224579,1.5864413976669312
1761333960924575200,9.1915751953125,9.834501266479492,0.4737788736820221,1.7204394340515137
1761333960943275500,9.210275634765624,9.836894035339355,0.5694918036460876,1.730010747909546
1761333960961976000,9.22897607421875,9.827322959899902,0.9475577473640442,1.0791629552841187
1761333960980676400,9.24767626953125,9.542576789855957,0.7417750358581543,1.3495519161224365
1761333960999377000,9.266376953125,9.248259544372559,0.45224347710609436,1.8544375896453857
1761333961018077200,9.2850771484375,9.482755661010742,0.33738797903060913,2.2636101245880127
1761333961036777700,9.30377783203125,9.930213928222656,0.6508477330207825,2.2301106452941895
1761333961055478000,9.32247802734375,9.839286804199219,0.7034898400306702,2.093719720840454
1761333961074178600,9.341178466796874,9.556933403015137,0.7345965504646301,1.7994025945663452
1761333961092878800,9.35987890625,9.401400566101074,0.6125625967979431,1.8951154947280884
1761333961111579400,9.378579345703125,9.257830619812012,0.6604190468788147,1.7874385118484497
1761333961130279700,9.39727978515625,9.241081237792969,0.6747759580612183,2.115255117416382
1761333961148980200,9.415980224609376,9.504291534423828,0.8159525394439697,2.2372891902923584
1761333961167680500,9.434680419921875,9.705288887023926,0.8111668825149536,2.273181438446045
1761333961186381000,9.453381103515625,9.674181938171387,0.8470591902732849,2.2851455211639404
1761333961205081300,9.472081298828124,10.088140487670898,0.7585247755050659,2.311466693878174
1761333961223782000,9.490781982421876,10.269994735717773,0.7034898400306702,2.4335005283355713
1761333961242482200,9.509482177734375,10.179067611694336,0.7369893789291382,2.2851455211639404
1761333961261182700,9.5281826171875,9.824930191040039,0.8470591902732849,1.825723648071289
1761333961279883000,9.546883056640626,9.688538551330566,0.8135597109794617,1.852044701576233
1761333961298583600,9.56558349609375,9.65503978729248,0.7896314859390259,1.8305093050003052
1761333961317283800,9.584283935546875,9.513862609863281,0.7896314859390259,1.8616160154342651
1761333961335984400,9.602984375,9.351150512695312,0.7824530005455017,1.8831514120101929
1761333961354684700,9.6216845703125,9.391828536987305,0.7561319470405579,1.7371892929077148
1761333961373385200,9.64038525390625,9.45164966583252,0.6771687865257263,1.7156537771224976
1761333961392085800,9.659085693359375,9.4061861038208,0.6556333899497986,1.7419748306274414
1761333961410786000,9.6777861328125,9.497113227844238,0.7561319470405579,1.919043779373169
1761333961429486600,9.696486572265625,9.865608215332031,0.7752745151519775,2.062613010406494
1761333961448187000,9.715186767578125,9.994820594787598,0.7680960893630981,2.03629207611084
1761333961466887400,9.733887451171874,9.78664493560791,0.8997012972831726,1.8975083827972412
1761333961485587700,9.752587646484375,9.734002113342285,0.885344386100769,1.9884356260299683
1761333961504288300,9.771288330078125,9.686145782470703,0.9284151792526245,1.8376877307891846
1761333961522988500,9.789988525390624,9.590433120727539,0.9308080077171326,1.7730815410614014
1761333961541689000,9.808689208984376,9.645467758178711,0.9092726111412048,2.0003998279571533
1761333961560389400,9.827389404296875,9.731609344482422,0.9020941257476807,1.911865234375
1761333961579089700,9.846089599609375,9.635896682739258,0.8183453679084778,1.9812572002410889
1761333961597790200,9.864790283203124,9.609575271606445,0.7848458290100098,1.672582983970642
1761333961616490800,9.88349072265625,9.757930755615234,0.7393822073936462,1.7395820617675781
1761333961635191000,9.90219091796875,9.856036186218262,0.8638089895248413,1.950150489807129
1761333961653891600,9.9208916015625,9.710074424743652,0.9834501147270203,2.091326951980591
1761333961672592000,9.939591796875,9.54496955871582,1.0408778190612793,2.029113531112671
1761333961691292400,9.95829248046875,9.736394882202148,0.9978070259094238,2.0817556381225586
1761333961709992700,9.97699267578125,9.580862045288086,1.0600204467773438,1.797009825706482
1761333961728693200,9.995693359375,9.300901412963867,1.007378339767456,1.8352949619293213
1761333961747393500,10.0143935546875,9.403793334960938,1.0217353105545044,1.8664016723632812
1761333961766094000,10.033093994140625,9.67657470703125,0.8542376756668091,1.9142581224441528
1761333961784794400,10.05179443359375,9.975677490234375,0.8542376756668091,1.9597218036651611
1761333961803495000,10.070494873046876,9.994820594787598,0.9068797826766968,1.643869161605835
1761333961822195200,10.0891953125,9.791430473327637,0.8805587291717529,1.552941918373108
1761333961840895700,10.107895751953125,9.738788604736328,0.8542376756668091,1.545763373374939
1761333961859596000,10.126595947265624,9.518648147583008,0.8901300430297852,1.490728497505188
1761333961878296600,10.145296630859375,9.389435768127441,0.9403793215751648,1.7060825824737549
1761333961896997000,10.1639970703125,9.540184020996094,0.9571290612220764,1.7635103464126587
1761333961915697400,10.182697509765624,9.743574142456055,0.9236295223236084,1.7443677186965942
1761333961934398000,10.20139794921875,9.712467193603516,0.8877372145652771,1.672582983970642
1761333961953098200,10.22009814453125,9.619147300720215,0.9355936646461487,1.852044701576233
1761333961971798800,10.238798828125,9.688538551330566,0.9523434042930603,1.9310078620910645
1761333961990499000,10.2574990234375,9.695717811584473,0.9978070259094238,1.8855443000793457
1761333962009199600,10.27619970703125,9.66221809387207,0.9978070259094238,1.6701902151107788
1761333962027900000,10.29489990234375,9.772287368774414,0.9475577473640442,1.7180466651916504
1761333962046600400,10.313600341796874,9.956535339355469,0.9355936646461487,1.8352949619293213
1761333962065300700,10.33230078125,9.827322959899902,0.9619147181510925,1.9405791759490967
1761333962084001300,10.351001220703125,9.485149383544922,1.031306505203247,1.7515461444854736
1761333962102701600,10.36970166015625,9.360722541809082,1.0480563640594482,1.7802600860595703
1761333962121402000,10.388402099609374,9.418149948120117,0.9906286001205444,1.8687944412231445
1761333962140102400,10.407102294921875,9.602396965026855,1.0432707071304321,1.8472590446472168
1761333962158803000,10.425802978515625,9.745966911315918,0.9954141974449158,1.9310078620910645
1761333962177503200,10.444503173828124,9.889535903930664,1.057627558708191,2.014756679534912
1761333962196203800,10.463203857421876,9.848857879638672,1.0169496536254883,1.8951154947280884
1761333962214904000,10.481904052734375,9.791430473327637,0.97148597240448,1.9214365482330322
1761333962233604600,10.5006044921875,9.817750930786133,0.9044869542121887,1.9405791759490967
1761333962252305000,10.519304931640624,9.798608779907227,0.8709874153137207,1.9166508913040161
1761333962271005400,10.53800537109375,9.695717811584473,0.8638089895248413,1.9286150932312012
1761333962289705700,10.556705810546875,9.561718940734863,0.8638089895248413,1.7730815410614014
1761333962308406300,10.57540625,9.439684867858887,0.7776673436164856,1.6534404754638672
1761333962327106600,10.5941064453125,9.734002113342285,0.8566305041313171,1.3567304611206055
1761333962345807000,10.61280712890625,9.485149383544922,0.7513462901115417,1.730010747909546
1761333962364507400,10.63150732421875,9.738788604736328,0.8662018179893494,1.9884356260299683
1761333962383208000,10.6502080078125,10.054640769958496,0.9068797826766968,2.0315065383911133
