time,seconds_elapsed,z,y,x
1761315258023020000,0.06402001953125,-0.89080810546875,-0.3663330078125,-0.0060272216796875
1761315258033068000,0.074068115234375,-0.883697509765625,-0.3562774658203125,-0.006256103515625
1761315258043115300,0.084115234375,-0.88336181640625,-0.345306396484375,0.005615234375
1761315258053162000,0.094161865234375,-0.895721435546875,-0.3470306396484375,0.0190582275390625
1761315258063210000,0.1042099609375,-0.9054718017578125,-0.339508056640625,0.0290679931640625
1761315258073257000,0.114257080078125,-0.89141845703125,-0.3321075439453125,0.0309600830078125
1761315258083304000,0.124303955078125,-0.88897705078125,-0.3403778076171875,0.020843505859375
1761315258093352200,0.134352294921875,-0.8908538818359375,-0.3457794189453125,0.0146942138671875
1761315258103399000,0.14439892578125,-0.8890838623046875,-0.34161376953125,0.0102081298828125
1761315258113446000,0.15444580078125,-0.890472412109375,-0.33380126953125,0.001190185546875
1761315258123492900,0.164492919921875,-0.9004669189453125,-0.329833984375,-0.0096282958984375
1761315258133541000,0.174541015625,-0.9098052978515625,-0.32794189453125,-0.02093505859375
1761315258143588000,0.184588134765625,-0.916412353515625,-0.3214263916015625,-0.0258331298828125
1761315258153635000,0.194635009765625,-0.92547607421875,-0.308685302734375,-0.0254364013671875
1761315258163682800,0.204682861328125,-0.9181976318359375,-0.30218505859375,-0.02032470703125
1761315258173730000,0.21472998046875,-0.908233642578125,-0.3074493408203125,-0.0111541748046875
1761315258183777000,0.224777099609375,-0.9030914306640625,-0.316375732421875,0.0054779052734375
1761315258193825000,0.234824951171875,-0.901641845703125,-0.32330322265625,0.021820068359375
1761315258203872000,0.2448720703125,-0.9053192138671875,-0.3251953125,0.03289794921875
1761315258213919000,0.2549189453125,-0.910797119140625,-0.3323822021484375,0.044769287109375
1761315258223966200,0.26496630859375,-0.912200927734375,-0.3447418212890625,0.0523681640625
1761315258234014000,0.275013916015625,-0.9069061279296875,-0.34912109375,0.0497589111328125
1761315258244061000,0.28506103515625,-0.8946533203125,-0.3497467041015625,0.04388427734375
1761315258254108000,0.29510791015625,-0.88629150390625,-0.3554229736328125,0.035919189453125
1761315258264156200,0.30515625,-0.885955810546875,-0.367218017578125,0.0294647216796875
1761315258274203100,0.315203125,-0.88592529296875,-0.3817901611328125,0.0247955322265625
1761315258284250000,0.32525,-0.8830108642578125,-0.3920440673828125,0.015045166015625
1761315258294297900,0.3352978515625,-0.8758697509765625,-0.397705078125,0.0048828125
1761315258304345000,0.345344970703125,-0.869415283203125,-0.4058837890625,0.0014801025390625
1761315258314392000,0.35539208984375,-0.876007080078125,-0.4191436767578125,-0.00103759765625
1761315258324440000,0.365440185546875,-0.8771209716796875,-0.42303466796875,-0.0049591064453125
1761315258334487000,0.375487060546875,-0.870330810546875,-0.423797607421875,-0.005126953125
1761315258344533800,0.38553369140625,-0.8730621337890625,-0.4310150146484375,-0.0077056884765625
1761315258354581000,0.3955810546875,-0.8686981201171875,-0.4374237060546875,-0.009307861328125
1761315258364628700,0.405628662109375,-0.867218017578125,-0.4396514892578125,-0.0099334716796875
1761315258374675700,0.41567578125,-0.8719940185546875,-0.4370269775390625,-0.0086517333984375
1761315258384722700,0.42572265625,-0.8765869140625,-0.4348602294921875,-0.0032806396484375
1761315258394771000,0.43577099609375,-0.891876220703125,-0.4345703125,-0.00018310546875
1761315258404818000,0.44581787109375,-0.909820556640625,-0.430023193359375,0.0000762939453125
1761315258414865000,0.455864990234375,-0.916046142578125,-0.41912841796875,0.0014495849609375
1761315258424912600,0.46591259765625,-0.9229583740234375,-0.4085693359375,0.00140380859375
1761315258434960000,0.4759599609375,-0.9296417236328125,-0.4022064208984375,0.00079345703125
1761315258445006800,0.4860068359375,-0.9260101318359375,-0.400634765625,0.0000457763671875
1761315258455054800,0.496054931640625,-0.92584228515625,-0.3960113525390625,-0.0030670166015625
1761315258465101800,0.506101806640625,-0.941650390625,-0.396026611328125,-0.0085906982421875
1761315258475148800,0.516148681640625,-0.95623779296875,-0.3989715576171875,-0.00836181640625
1761315258485195800,0.52619580078125,-0.95672607421875,-0.403594970703125,-0.011138916015625
1761315258495243800,0.536243896484375,-0.9519500732421875,-0.407501220703125,-0.0182342529296875
1761315258505290800,0.546290771484375,-0.9391021728515625,-0.4107818603515625,-0.0238189697265625
1761315258515337700,0.556337646484375,-0.922698974609375,-0.4192962646484375,-0.0259552001953125
1761315258525386000,0.566385986328125,-0.90826416015625,-0.431640625,-0.0288238525390625
1761315258535432700,0.5764326171875,-0.874664306640625,-0.451507568359375,-0.023162841796875
1761315258545479700,0.586479736328125,-0.8430023193359375,-0.4735870361328125,-0.01483154296875
1761315258555527700,0.596527587890625,-0.846954345703125,-0.483489990234375,-0.0186614990234375
1761315258565575000,0.606574951171875,-0.8481292724609375,-0.48260498046875,-0.0071258544921875
1761315258575622000,0.616621826171875,-0.816864013671875,-0.48150634765625,-0.001739501953125
1761315258585668900,0.6266689453125,-0.7914276123046875,-0.44842529296875,-0.0121307373046875
1761315258595716600,0.636716552734375,-0.79571533203125,-0.4010009765625,-0.0207061767578125
1761315258605763600,0.646763671875,-0.837921142578125,-0.4700927734375,0.0111083984375
1761315258615810800,0.656810791015625,-0.854217529296875,-0.4920806884765625,0.0511474609375
1761315258625858800,0.66685888671875,-0.95428466796875,-0.5657958984375,0.0898590087890625
1761315258635905800,0.67690576171875,-1.0624237060546875,-0.6371612548828125,0.1512298583984375
1761315258645952800,0.686952880859375,-1.0440521240234375,-0.566497802734375,0.159820556640625
1761315258656000800,0.697000732421875,-1.00048828125,-0.4392547607421875,0.132720947265625
1761315258666047700,0.7070478515625,-0.966400146484375,-0.3636627197265625,0.1030731201171875
1761315258676094700,0.7170947265625,-0.9300689697265625,-0.345123291015625,0.0885009765625
1761315258686142700,0.727142822265625,-0.8921661376953125,-0.3625640869140625,0.075286865234375
1761315258696190000,0.73718994140625,-0.8539581298828125,-0.3840484619140625,0.0654296875
1761315258706237000,0.74723681640625,-0.83099365234375,-0.3963623046875,0.05328369140625
1761315258716284700,0.75728466796875,-0.8082275390625,-0.403717041015625,0.0417633056640625
1761315258726331600,0.76733154296875,-0.803192138671875,-0.4178619384765625,0.0440673828125
1761315258736378600,0.777378662109375,-0.809906005859375,-0.4276123046875,0.0426483154296875
1761315258746425900,0.78742578125,-0.741546630859375,-0.4091644287109375,0.054962158203125
1761315258756473900,0.797473876953125,-0.754608154296875,-0.434478759765625,0.118560791015625
1761315258766520800,0.807520751953125,-0.8625030517578125,-0.46929931640625,0.1336212158203125
1761315258776567800,0.81756787109375,-0.84100341796875,-0.4736785888671875,0.107391357421875
1761315258786615800,0.82761572265625,-0.819427490234375,-0.452362060546875,0.065673828125
1761315258796662800,0.837662841796875,-0.8134307861328125,-0.42352294921875,0.0245208740234375
1761315258806709800,0.847709716796875,-0.8247833251953125,-0.4247894287109375,0.0096893310546875
1761315258816757800,0.8577578125,-0.8401641845703125,-0.4538421630859375,0.02130126953125
1761315258826805000,0.867804931640625,-0.839874267578125,-0.45703125,0.0533294677734375
1761315258836851700,0.877851806640625,-0.8544158935546875,-0.4598388671875,0.075897216796875
1761315258846898700,0.887898681640625,-0.877716064453125,-0.46966552734375,0.088134765625
1761315258856946700,0.89794677734375,-0.9015655517578125,-0.4836883544921875,0.0948333740234375
1761315258866993700,0.90799365234375,-0.9241485595703125,-0.4898681640625,0.0785675048828125
1761315258877041000,0.918041015625,-0.9483795166015625,-0.4695281982421875,0.042877197265625
1761315258887089000,0.9280888671875,-0.963287353515625,-0.43426513671875,-0.0015716552734375
1761315258897135600,0.938135498046875,-0.9651641845703125,-0.4043121337890625,-0.0330810546875
1761315258907182600,0.9481826171875,-0.9623870849609375,-0.380035400390625,-0.0540618896484375
1761315258917230800,0.95823095703125,-0.9584197998046875,-0.3663177490234375,-0.070281982421875
1761315258927277800,0.96827783203125,-0.9550933837890625,-0.36273193359375,-0.0745697021484375
1761315258937324800,0.97832470703125,-0.9468994140625,-0.3682861328125,-0.072540283203125
1761315258947372800,0.988372802734375,-0.926971435546875,-0.37005615234375,-0.063201904296875
1761315258957419800,0.998419677734375,-0.9044036865234375,-0.3707275390625,-0.05023193359375
1761315258967466800,1.008466796875,-0.8833770751953125,-0.3817596435546875,-0.0407257080078125
1761315258977514800,1.0185146484375,-0.87994384765625,-0.397369384765625,-0.0301971435546875
1761315258987561700,1.028561767578125,-0.87811279296875,-0.4138336181640625,-0.024444580078125
1761315258997608700,1.038608642578125,-0.8652191162109375,-0.422119140625,-0.02154541015625
1761315259007656000,1.048656005859375,-0.860076904296875,-0.4226226806640625,-0.0201568603515625
1761315259017703700,1.05870361328125,-0.861175537109375,-0.4244384765625,-0.018798828125
1761315259027750700,1.068750732421875,-0.8662109375,-0.42840576171875,-0.0127410888671875
1761315259037797600,1.078797607421875,-0.8712615966796875,-0.430755615234375,-0.00701904296875
1761315259047846000,1.088845947265625,-0.875579833984375,-0.430938720703125,-0.0075836181640625
1761315259057892900,1.098892822265625,-0.88385009765625,-0.42852783203125,-0.0149993896484375
1761315259067939800,1.10893994140625,-0.862335205078125,-0.4237518310546875,-0.0239715576171875
1761315259077987600,1.118987548828125,-0.8455657958984375,-0.4247589111328125,-0.02459716796875
1761315259088034800,1.129034912109375,-0.842498779296875,-0.4345550537109375,-0.02520751953125
1761315259098081800,1.139081787109375,-0.8377685546875,-0.4472198486328125,-0.024688720703125
1761315259108129800,1.1491298828125,-0.8417816162109375,-0.4627838134765625,-0.025146484375
1761315259118176800,1.1591767578125,-0.85321044921875,-0.4755706787109375,-0.02764892578125
1761315259128224000,1.16922412109375,-0.8807830810546875,-0.482147216796875,-0.0279541015625
1761315259138271000,1.17927099609375,-0.9195404052734375,-0.4829559326171875,-0.039154052734375
1761315259148318700,1.189318603515625,-0.9268035888671875,-0.474029541015625,-0.048614501953125
1761315259158365700,1.19936572265625,-0.9219512939453125,-0.4560089111328125,-0.061492919921875
1761315259168412700,1.20941259765625,-0.920166015625,-0.4430389404296875,-0.0727996826171875
1761315259178461000,1.2194609375,-0.91412353515625,-0.4456024169921875,-0.07208251953125
1761315259188508000,1.2295078125,-0.9145355224609375,-0.4568939208984375,-0.0673828125
1761315259198555000,1.239554931640625,-0.9276885986328125,-0.4643707275390625,-0.0610198974609375
1761315259208602600,1.2496025390625,-0.9452056884765625,-0.4637908935546875,-0.062255859375
1761315259218649900,1.25964990234375,-0.9396209716796875,-0.4500732421875,-0.0691375732421875
1761315259228696800,1.26969677734375,-0.941436767578125,-0.43408203125,-0.0693206787109375
1761315259238744800,1.279744873046875,-0.97161865234375,-0.42901611328125,-0.0640869140625
1761315259248791800,1.289791748046875,-0.977386474609375,-0.4368133544921875,-0.0565643310546875
1761315259258838800,1.2998388671875,-0.9531097412109375,-0.454193115234375,-0.04205322265625
1761315259268886800,1.30988671875,-0.956329345703125,-0.4605560302734375,-0.0311431884765625
1761315259278933800,1.319933837890625,-0.9770050048828125,-0.459869384765625,-0.0272216796875
1761315259288980700,1.329980712890625,-0.96417236328125,-0.4691009521484375,-0.021575927734375
1761315259299027700,1.34002783203125,-0.9565277099609375,-0.480987548828125,-0.01507568359375
1761315259309075700,1.35007568359375,-0.972442626953125,-0.4801177978515625,-0.009002685546875
1761315259319122700,1.360122802734375,-0.9798583984375,-0.4708404541015625,-0.0069427490234375
1761315259329169700,1.370169677734375,-0.9698944091796875,-0.45953369140625,-0.0106964111328125
1761315259339217700,1.3802177734375,-0.956298828125,-0.448150634765625,-0.0196990966796875
1761315259349265200,1.39026513671875,-0.944732666015625,-0.439300537109375,-0.028411865234375
1761315259359312100,1.40031201171875,-0.9356231689453125,-0.4305877685546875,-0.0293121337890625
1761315259369360000,1.41035986328125,-0.933349609375,-0.4232025146484375,-0.0314178466796875
1761315259379406800,1.42040673828125,-0.9293975830078125,-0.410919189453125,-0.0375213623046875
1761315259389454000,1.4304541015625,-0.9264678955078125,-0.395904541015625,-0.0435791015625
1761315259399501000,1.4405009765625,-0.9246978759765625,-0.3806610107421875,-0.052093505859375
1761315259409549000,1.450549072265625,-0.9255828857421875,-0.363494873046875,-0.0589447021484375
1761315259419596000,1.460595947265625,-0.923004150390625,-0.3451995849609375,-0.067962646484375
1761315259429643000,1.47064306640625,-0.8925628662109375,-0.325469970703125,-0.072967529296875
1761315259439691000,1.48069091796875,-0.8641510009765625,-0.3080596923828125,-0.0722808837890625
1761315259449738000,1.490738037109375,-0.845550537109375,-0.3052978515625,-0.063720703125
1761315259459785000,1.500784912109375,-0.83978271484375,-0.3144378662109375,-0.053680419921875
1761315259469833200,1.510833251953125,-0.830841064453125,-0.3297271728515625,-0.0298614501953125
1761315259479880200,1.520880126953125,-0.829071044921875,-0.3498077392578125,0.0029144287109375
1761315259489927200,1.53092724609375,-0.84149169921875,-0.3696746826171875,0.0272674560546875
1761315259499975000,1.540974853515625,-0.84466552734375,-0.3850555419921875,0.0479888916015625
1761315259510022000,1.55102197265625,-0.832000732421875,-0.399322509765625,0.0558624267578125
1761315259520069000,1.561069091796875,-0.8086090087890625,-0.4213409423828125,0.062957763671875
1761315259530117000,1.5711171875,-0.79339599609375,-0.4449462890625,0.065887451171875
1761315259540164000,1.5811640625,-0.782379150390625,-0.459716796875,0.06396484375
1761315259550211000,1.591211181640625,-0.777099609375,-0.4642333984375,0.05474853515625
1761315259560259000,1.601259033203125,-0.777313232421875,-0.457061767578125,0.03875732421875
1761315259570306000,1.61130615234375,-0.7796630859375,-0.444854736328125,0.0207061767578125
1761315259580353000,1.62135302734375,-0.7874908447265625,-0.427947998046875,0.0084991455078125
1761315259590400000,1.63139990234375,-0.810211181640625,-0.4124298095703125,0.00714111328125
1761315259600448300,1.6414482421875,-0.84661865234375,-0.398162841796875,0.004730224609375
1761315259610495000,1.651494873046875,-0.8562164306640625,-0.3811492919921875,0.0036163330078125
1761315259620542000,1.6615419921875,-0.8365020751953125,-0.3649749755859375,0.007843017578125
1761315259630590000,1.67158984375,-0.8258514404296875,-0.3580780029296875,0.0154571533203125
1761315259640637000,1.681636962890625,-0.8271636962890625,-0.362518310546875,0.0310516357421875
1761315259650684200,1.69168408203125,-0.830596923828125,-0.377410888671875,0.053985595703125
1761315259660732000,1.70173193359375,-0.8358612060546875,-0.395721435546875,0.0759429931640625
1761315259670779000,1.71177880859375,-0.846649169921875,-0.4148101806640625,0.098724365234375
1761315259680825900,1.721825927734375,-0.848846435546875,-0.433929443359375,0.111419677734375
1761315259690874000,1.7318740234375,-0.8475494384765625,-0.4569549560546875,0.1157073974609375
1761315259700921000,1.741921142578125,-0.8510284423828125,-0.483062744140625,0.1172332763671875
1761315259710968000,1.751968017578125,-0.8522491455078125,-0.4966278076171875,0.10626220703125
1761315259721015800,1.762015869140625,-0.8455047607421875,-0.4970855712890625,0.0896453857421875
1761315259731063000,1.77206298828125,-0.847991943359375,-0.49713134765625,0.070770263671875
1761315259741110000,1.782110107421875,-0.850433349609375,-0.491851806640625,0.0467681884765625
1761315259751157000,1.792156982421875,-0.840667724609375,-0.4747467041015625,0.02490234375
1761315259761205000,1.802205078125,-0.83880615234375,-0.4599609375,0.0175323486328125
1761315259771252000,1.812251953125,-0.841339111328125,-0.4569091796875,0.0240631103515625
1761315259781299200,1.82229931640625,-0.839752197265625,-0.4608612060546875,0.0357818603515625
1761315259791347000,1.832346923828125,-0.8408355712890625,-0.464599609375,0.0451812744140625
1761315259801394000,1.842393798828125,-0.83935546875,-0.4594879150390625,0.0482025146484375
1761315259811441000,1.85244091796875,-0.83587646484375,-0.4552001953125,0.0506439208984375
1761315259821489200,1.8624892578125,-0.852081298828125,-0.4610595703125,0.06048583984375
1761315259831536000,1.8725361328125,-0.869842529296875,-0.465423583984375,0.073028564453125
1761315259841583000,1.8825830078125,-0.8804473876953125,-0.461029052734375,0.08197021484375
1761315259851630800,1.892630859375,-0.8932647705078125,-0.4467926025390625,0.081573486328125
1761315259861678000,1.902677978515625,-0.9084014892578125,-0.430145263671875,0.0742034912109375
1761315259871725000,1.91272509765625,-0.9205322265625,-0.425750732421875,0.0633087158203125
1761315259881773000,1.92277294921875,-0.9234161376953125,-0.42742919921875,0.0546875
1761315259891820000,1.932820068359375,-0.9401092529296875,-0.4239501953125,0.0570068359375
1761315259901867000,1.942866943359375,-0.956634521484375,-0.411956787109375,0.059173583984375
1761315259911914000,1.9529140625,-0.953826904296875,-0.399078369140625,0.0568389892578125
1761315259921962000,1.9629619140625,-0.9537353515625,-0.3984375,0.0545196533203125
1761315259932009000,1.973009033203125,-0.9589080810546875,-0.4071502685546875,0.0599212646484375
1761315259942056000,1.983055908203125,-0.9634246826171875,-0.4179534912109375,0.0674591064453125
1761315259952104200,1.993104248046875,-0.9712066650390625,-0.423248291015625,0.0675201416015625
1761315259962151200,2.003151123046875,-0.9927215576171875,-0.4158477783203125,0.055694580078125
1761315259972198000,2.013197998046875,-1.0063018798828125,-0.4069061279296875,0.033935546875
1761315259982246000,2.023245849609375,-1.009368896484375,-0.4007568359375,0.013458251953125
1761315259992293000,2.033293212890625,-1.0314483642578125,-0.3972625732421875,0.002044677734375
1761315260002340000,2.043340087890625,-1.05926513671875,-0.398284912109375,-0.0048065185546875
1761315260012388000,2.05338818359375,-1.0663299560546875,-0.3909912109375,-0.0169830322265625
1761315260022435000,2.06343505859375,-1.0518951416015625,-0.3664398193359375,-0.02862548828125
1761315260032481800,2.073481689453125,-1.0307464599609375,-0.3429718017578125,-0.033782958984375
1761315260042530000,2.083530029296875,-1.0064239501953125,-0.332244873046875,-0.0298309326171875
1761315260052577000,2.093576904296875,-0.987030029296875,-0.3313446044921875,-0.0138702392578125
1761315260062624000,2.1036240234375,-0.975799560546875,-0.3350677490234375,0.010162353515625
1761315260072672300,2.11367236328125,-0.9729766845703125,-0.346710205078125,0.0332183837890625
1761315260082719000,2.123718994140625,-0.970123291015625,-0.3654022216796875,0.044647216796875
1761315260092766000,2.133765869140625,-0.965911865234375,-0.3809814453125,0.04364013671875
1761315260102813000,2.14381298828125,-0.9647674560546875,-0.38330078125,0.0354156494140625
1761315260112861000,2.15386083984375,-0.9671630859375,-0.371612548828125,0.0225830078125
1761315260122908200,2.163908203125,-0.9667816162109375,-0.3556365966796875,0.0071258544921875
1761315260132955100,2.173955078125,-0.9639892578125,-0.342193603515625,-0.007293701171875
1761315260143003000,2.1840029296875,-0.9527587890625,-0.3293609619140625,-0.021759033203125
1761315260153049900,2.1940498046875,-0.9354248046875,-0.3105621337890625,-0.0282745361328125
1761315260163097000,2.20409716796875,-0.9159088134765625,-0.2928466796875,-0.025848388671875
1761315260173145000,2.21414501953125,-0.894866943359375,-0.27899169921875,-0.012115478515625
1761315260183192000,2.224192138671875,-0.8740386962890625,-0.2747955322265625,0.003631591796875
1761315260193239000,2.234239013671875,-0.8487396240234375,-0.277130126953125,0.017791748046875
1761315260203287000,2.244287109375,-0.8190765380859375,-0.28338623046875,0.03155517578125
1761315260213334000,2.254333984375,-0.7964019775390625,-0.2959136962890625,0.04620361328125
1761315260223381000,2.264381103515625,-0.789794921875,-0.3108367919921875,0.0645294189453125
1761315260233429000,2.274428955078125,-0.8052215576171875,-0.3302001953125,0.089996337890625
1761315260243476000,2.28447607421875,-0.823272705078125,-0.350128173828125,0.1116943359375
1761315260253523200,2.294523193359375,-0.8306427001953125,-0.3635406494140625,0.1221160888671875
1761315260263571000,2.304571044921875,-0.83819580078125,-0.36785888671875,0.123260498046875
1761315260273618000,2.314617919921875,-0.8445281982421875,-0.3753662109375,0.1183319091796875
1761315260283665000,2.324664794921875,-0.847625732421875,-0.385467529296875,0.10748291015625
1761315260293712100,2.334712158203125,-0.856231689453125,-0.391632080078125,0.0942840576171875
1761315260303760100,2.344760009765625,-0.8756256103515625,-0.3931121826171875,0.0805206298828125
1761315260313807000,2.35480712890625,-0.8990631103515625,-0.391326904296875,0.0662078857421875
1761315260323854000,2.36485400390625,-0.9287872314453125,-0.381591796875,0.04681396484375
1761315260333902000,2.374902099609375,-0.9588775634765625,-0.3667144775390625,0.0238800048828125
1761315260343948800,2.38494873046875,-0.961639404296875,-0.35955810546875,0.0057830810546875
1761315260353995800,2.394995849609375,-0.95751953125,-0.359527587890625,-0.0087432861328125
1761315260364044000,2.4050439453125,-0.9541778564453125,-0.3588104248046875,-0.01922607421875
1761315260374091000,2.415091064453125,-0.947052001953125,-0.3599395751953125,-0.0212554931640625
1761315260384138000,2.425137939453125,-0.936065673828125,-0.3625640869140625,-0.0187835693359375
1761315260394186000,2.43518603515625,-0.9144287109375,-0.3610992431640625,-0.0093536376953125
1761315260404233000,2.44523291015625,-0.89752197265625,-0.36151123046875,0.001983642578125
1761315260414280000,2.455280029296875,-0.8905487060546875,-0.3703460693359375,0.0135955810546875
1761315260424328000,2.465327880859375,-0.8897552490234375,-0.3872833251953125,0.022674560546875
1761315260434375000,2.475375,-0.882171630859375,-0.40155029296875,0.0277099609375
1761315260444422000,2.485421875,-0.8724822998046875,-0.4081878662109375,0.031890869140625
1761315260454468900,2.49546875,-0.8714447021484375,-0.4134521484375,0.04107666015625
1761315260464516900,2.505516845703125,-0.8757171630859375,-0.4207305908203125,0.04803466796875
1761315260474563800,2.515563720703125,-0.8672637939453125,-0.429351806640625,0.0466766357421875
1761315260484610800,2.52561083984375,-0.856719970703125,-0.4311370849609375,0.047271728515625
1761315260494659000,2.5356591796875,-0.8511199951171875,-0.4327239990234375,0.0425872802734375
1761315260504705800,2.545705810546875,-0.8397064208984375,-0.4355926513671875,0.0331268310546875
1761315260514752800,2.555752685546875,-0.8242340087890625,-0.437408447265625,0.027252197265625
1761315260524801000,2.565801025390625,-0.821868896484375,-0.4442138671875,0.02423095703125
1761315260534848000,2.575847900390625,-0.8139495849609375,-0.45745849609375,0.027191162109375
1761315260544895000,2.58589501953125,-0.8160552978515625,-0.4701690673828125,0.0341644287109375
1761315260554942700,2.595942626953125,-0.8301239013671875,-0.4820556640625,0.03955078125
1761315260564989700,2.60598974609375,-0.844635009765625,-0.4930267333984375,0.041229248046875
1761315260575037000,2.616036865234375,-0.860443115234375,-0.4943695068359375,0.0334930419921875
1761315260585085000,2.6260849609375,-0.86895751953125,-0.4847564697265625,0.0205078125
1761315260595132000,2.6361318359375,-0.87933349609375,-0.475494384765625,0.009918212890625
1761315260605179000,2.646178955078125,-0.89599609375,-0.4766082763671875,0.002227783203125
1761315260615227000,2.656226806640625,-0.9097747802734375,-0.4807891845703125,-0.005950927734375
1761315260625273900,2.66627392578125,-0.908966064453125,-0.478851318359375,-0.014862060546875
1761315260635320800,2.67632080078125,-0.909942626953125,-0.4719696044921875,-0.02105712890625
1761315260645368800,2.686368896484375,-0.9207000732421875,-0.4677581787109375,-0.021575927734375
1761315260655416000,2.696416015625,-0.924285888671875,-0.4693450927734375,-0.01458740234375
1761315260665463000,2.706463134765625,-0.921966552734375,-0.47113037109375,-0.0056915283203125
1761315260675510000,2.716510009765625,-0.9242706298828125,-0.4718780517578125,0.002471923828125
1761315260685557800,2.726557861328125,-0.9218292236328125,-0.475250244140625,0.008880615234375
1761315260695604700,2.736604736328125,-0.92364501953125,-0.4759368896484375,0.01068115234375
1761315260705652000,2.74665185546875,-0.927764892578125,-0.472503662109375,0.00811767578125
1761315260715700000,2.756699951171875,-0.9347381591796875,-0.4693450927734375,0.0030059814453125
1761315260725747000,2.766746826171875,-0.929901123046875,-0.4750823974609375,0.0048675537109375
1761315260735794000,2.7767939453125,-0.929840087890625,-0.4874267578125,0.0101318359375
1761315260745842000,2.786842041015625,-0.9565582275390625,-0.481903076171875,0.0093841552734375
1761315260755889000,2.796888916015625,-0.970367431640625,-0.474212646484375,0.00750732421875
1761315260765935900,2.806935791015625,-0.9661102294921875,-0.476654052734375,0.00555419921875
1761315260775983900,2.81698388671875,-0.9769134521484375,-0.4729766845703125,-0.0055389404296875
1761315260786031000,2.827031005859375,-0.9823760986328125,-0.456085205078125,-0.021026611328125
1761315260796078000,2.837078125,-0.9846954345703125,-0.4443511962890625,-0.0341033935546875
1761315260806125800,2.847125732421875,-0.9872589111328125,-0.4379730224609375,-0.04205322265625
1761315260816172800,2.8571728515625,-0.9846649169921875,-0.43157958984375,-0.0475921630859375
1761315260826219800,2.8672197265625,-0.9823455810546875,-0.4201812744140625,-0.053314208984375
1761315260836267000,2.87726708984375,-0.985260009765625,-0.4018707275390625,-0.0630035400390625
1761315260846315000,2.88731494140625,-0.985321044921875,-0.3804779052734375,-0.076751708984375
1761315260856362000,2.897362060546875,-0.97003173828125,-0.3608551025390625,-0.089935302734375
1761315260866408700,2.90740869140625,-0.94219970703125,-0.34075927734375,-0.0982513427734375
1761315260876457000,2.91745703125,-0.9125518798828125,-0.322479248046875,-0.09979248046875
1761315260886504000,2.92750390625,-0.8783416748046875,-0.3062286376953125,-0.0924224853515625
1761315260896551000,2.937551025390625,-0.845794677734375,-0.295623779296875,-0.0799713134765625
1761315260906599000,2.947598876953125,-0.820709228515625,-0.2897796630859375,-0.0638580322265625
1761315260916646000,2.95764599609375,-0.8086090087890625,-0.28533935546875,-0.0433197021484375
1761315260926692900,2.96769287109375,-0.8321990966796875,-0.2917022705078125,-0.0120391845703125
1761315260936740900,2.977740966796875,-0.8573760986328125,-0.3000946044921875,0.0048675537109375
1761315260946787800,2.987787841796875,-0.851531982421875,-0.283721923828125,0.00469970703125
1761315260956834800,2.997834716796875,-0.8376312255859375,-0.2538299560546875,-0.0022735595703125
1761315260966883000,3.007883056640625,-0.8302459716796875,-0.2370452880859375,-0.00689697265625
1761315260976929800,3.0179296875,-0.8225555419921875,-0.2422637939453125,-0.001220703125
1761315260986976800,3.027976806640625,-0.8233795166015625,-0.25909423828125,0.0120697021484375
1761315260997025000,3.03802490234375,-0.8388824462890625,-0.2819061279296875,0.0250244140625
1761315261007072000,3.048072021484375,-0.853057861328125,-0.3031005859375,0.030609130859375
1761315261017119000,3.058118896484375,-0.8624267578125,-0.31378173828125,0.0255584716796875
1761315261027166000,3.068166015625,-0.8712158203125,-0.3148040771484375,0.009765625
1761315261037213700,3.078213623046875,-0.8871002197265625,-0.305999755859375,-0.0108184814453125
1761315261047261000,3.088260986328125,-0.909454345703125,-0.2981414794921875,-0.0327911376953125
1761315261057308000,3.098307861328125,-0.937255859375,-0.2904205322265625,-0.05523681640625
1761315261067356000,3.10835595703125,-0.9499969482421875,-0.2782440185546875,-0.0712890625
1761315261077403000,3.11840283203125,-0.9577484130859375,-0.27020263671875,-0.07525634765625
1761315261087449900,3.128449951171875,-0.9634552001953125,-0.2662200927734375,-0.0770263671875
1761315261097497900,3.138497802734375,-0.9552459716796875,-0.2621917724609375,-0.0732574462890625
1761315261107544800,3.148544921875,-0.923614501953125,-0.2547454833984375,-0.05963134765625
1761315261117591800,3.158591796875,-0.899200439453125,-0.250457763671875,-0.0313873291015625
1761315261127640000,3.16864013671875,-0.881622314453125,-0.257568359375,0.0029449462890625
1761315261137687000,3.17868701171875,-0.8590240478515625,-0.2772369384765625,0.0363616943359375
1761315261147734000,3.188734130859375,-0.84442138671875,-0.3027191162109375,0.06640625
1761315261157781800,3.19878173828125,-0.8360748291015625,-0.3280029296875,0.08837890625
1761315261167828700,3.208828857421875,-0.8272247314453125,-0.3503875732421875,0.102081298828125
1761315261177876000,3.2188759765625,-0.828857421875,-0.3814544677734375,0.1192169189453125
1761315261187924000,3.228924072265625,-0.843597412109375,-0.412139892578125,0.1225128173828125
1761315261197971000,3.238970947265625,-0.8462982177734375,-0.42889404296875,0.116790771484375
1761315261208018000,3.249017822265625,-0.851104736328125,-0.4387359619140625,0.1044769287109375
1761315261218065000,3.25906494140625,-0.8604888916015625,-0.442535400390625,0.0819549560546875
1761315261228113000,3.26911279296875,-0.8698272705078125,-0.43939208984375,0.0601806640625
1761315261238160000,3.279159912109375,-0.8830108642578125,-0.435699462890625,0.0423431396484375
1761315261248206800,3.289206787109375,-0.9053955078125,-0.43212890625,0.029205322265625
1761315261258255000,3.299255126953125,-0.92828369140625,-0.4278411865234375,0.025360107421875
1761315261268302000,3.309302001953125,-0.948638916015625,-0.419036865234375,0.0242156982421875
1761315261278348800,3.319348876953125,-0.974761962890625,-0.4047088623046875,0.0249786376953125
1761315261288396800,3.329396728515625,-1.0031890869140625,-0.3955535888671875,0.026885986328125
1761315261298443800,3.33944384765625,-1.027435302734375,-0.3895263671875,0.0227203369140625
1761315261308491000,3.349490966796875,-1.049285888671875,-0.3729095458984375,0.01171875
1761315261318539000,3.3595390625,-1.071258544921875,-0.353729248046875,-0.0027618408203125
1761315261328586000,3.3695859375,-1.0738983154296875,-0.34039306640625,-0.017578125
1761315261338632700,3.3796328125,-1.072235107421875,-0.3300018310546875,-0.0281524658203125
1761315261348684800,3.389684814453125,-1.0697174072265625,-0.3254852294921875,-0.034759521484375
1761315261358731800,3.399731689453125,-1.0587158203125,-0.32843017578125,-0.038787841796875
1761315261368778800,3.40977880859375,-1.0419921875,-0.3347015380859375,-0.040252685546875
1761315261378826800,3.41982666015625,-1.0234222412109375,-0.3430633544921875,-0.040374755859375
1761315261388873700,3.429873779296875,-1.00634765625,-0.3500518798828125,-0.0423736572265625
1761315261398920700,3.439920654296875,-0.9875946044921875,-0.3538055419921875,-0.047454833984375
1761315261408967700,3.4499677734375,-0.97247314453125,-0.3579254150390625,-0.05169677734375
1761315261419016000,3.460015869140625,-0.961883544921875,-0.36175537109375,-0.0534515380859375
1761315261429063000,3.47006298828125,-0.950347900390625,-0.3637542724609375,-0.05694580078125
1761315261439110000,3.48010986328125,-0.9407501220703125,-0.3647613525390625,-0.0632781982421875
1761315261449157600,3.49015771484375,-0.925537109375,-0.3684539794921875,-0.06695556640625
1761315261459204600,3.50020458984375,-0.9096527099609375,-0.3720245361328125,-0.0679168701171875
1761315261469251800,3.510251953125,-0.9009246826171875,-0.370147705078125,-0.0690155029296875
1761315261479299800,3.5202998046875,-0.8948211669921875,-0.36883544921875,-0.0709991455078125
1761315261489346800,3.530346923828125,-0.8792572021484375,-0.377685546875,-0.064849853515625
1761315261499393800,3.540393798828125,-0.8749847412109375,-0.3930511474609375,-0.050201416015625
1761315261509441800,3.55044189453125,-0.8881072998046875,-0.4015655517578125,-0.0343780517578125
1761315261519488800,3.56048876953125,-0.9044952392578125,-0.405242919921875,-0.0218505859375
1761315261529535700,3.57053564453125,-0.916046142578125,-0.4051666259765625,-0.0103302001953125
1761315261539583700,3.580583740234375,-0.9430999755859375,-0.3976287841796875,-0.0093994140625
1761315261549631000,3.590630859375,-0.984130859375,-0.37548828125,-0.030670166015625
1761315261559678000,3.600677978515625,-1.019561767578125,-0.3389892578125,-0.062103271484375
1761315261569725700,3.6107255859375,-1.0564422607421875,-0.3078155517578125,-0.0869903564453125
1761315261579772700,3.620772705078125,-1.088287353515625,-0.2948760986328125,-0.108123779296875
1761315261589819600,3.630819580078125,-1.0955657958984375,-0.2767181396484375,-0.1300201416015625
1761315261599867000,3.640866943359375,-1.0973968505859375,-0.2455902099609375,-0.144317626953125
1761315261609915000,3.650914794921875,-1.0865936279296875,-0.218597412109375,-0.1514739990234375
1761315261619961900,3.6609619140625,-1.061187744140625,-0.20281982421875,-0.149871826171875
1761315261630008600,3.671008544921875,-1.02374267578125,-0.19110107421875,-0.13916015625
1761315261640056800,3.681056884765625,-0.9870758056640625,-0.1865081787109375,-0.12042236328125
1761315261650103800,3.691103759765625,-0.9520416259765625,-0.190216064453125,-0.0980072021484375
1761315261660150800,3.70115087890625,-0.9138641357421875,-0.196929931640625,-0.0765533447265625
1761315261670198800,3.71119873046875,-0.8809051513671875,-0.21136474609375,-0.056671142578125
1761315261680245800,3.721245849609375,-0.85528564453125,-0.22698974609375,-0.0419769287109375
1761315261690292700,3.731292724609375,-0.8312530517578125,-0.23260498046875,-0.0325469970703125
1761315261700340700,3.7413408203125,-0.805023193359375,-0.2310333251953125,-0.03363037109375
1761315261710387700,3.7513876953125,-0.773406982421875,-0.2302093505859375,-0.03277587890625
1761315261720434700,3.7614345703125,-0.7513580322265625,-0.235107421875,-0.0276336669921875
1761315261730483000,3.77148291015625,-0.7464599609375,-0.2406463623046875,-0.0213623046875
1761315261740529700,3.78152978515625,-0.7507476806640625,-0.2562255859375,-0.0047149658203125
1761315261750576600,3.79157666015625,-0.766937255859375,-0.281219482421875,0.0140838623046875
1761315261760623600,3.80162353515625,-0.7949676513671875,-0.3032379150390625,0.031890869140625
1761315261770671900,3.811671875,-0.83123779296875,-0.316436767578125,0.039031982421875
1761315261780718800,3.82171875,-0.8672332763671875,-0.3222503662109375,0.0313720703125
1761315261790765800,3.831765869140625,-0.9055633544921875,-0.3217926025390625,0.006378173828125
1761315261800813600,3.8418134765625,-0.951751708984375,-0.3104705810546875,-0.03228759765625
1761315261810860800,3.85186083984375,-1.01416015625,-0.28912353515625,-0.0770416259765625
1761315261820907800,3.86190771484375,-1.0818328857421875,-0.262176513671875,-0.123046875
1761315261830955800,3.871955810546875,-1.1334381103515625,-0.237548828125,-0.166839599609375
1761315261841002800,3.882002685546875,-1.173370361328125,-0.219818115234375,-0.20660400390625
1761315261851049700,3.8920498046875,-1.1847991943359375,-0.206085205078125,-0.24591064453125
1761315261861097700,3.90209765625,-1.1864471435546875,-0.1909942626953125,-0.280181884765625
1761315261871144700,3.912144775390625,-1.197021484375,-0.181304931640625,-0.30572509765625
1761315261881191700,3.922191650390625,-1.182769775390625,-0.1702117919921875,-0.3189849853515625
1761315261891240000,3.932239990234375,-1.147247314453125,-0.150115966796875,-0.3246002197265625
1761315261901287000,3.942286865234375,-1.08837890625,-0.134857177734375,-0.3143310546875
1761315261911334000,3.952333984375,-1.034698486328125,-0.1443023681640625,-0.2984466552734375
1761315261921380900,3.962380859375,-1.0050048828125,-0.1604156494140625,-0.2735443115234375
1761315261931428600,3.9724287109375,-0.9725799560546875,-0.1784820556640625,-0.2476654052734375
1761315261941475800,3.982475830078125,-0.93133544921875,-0.2008819580078125,-0.222686767578125
1761315261951522800,3.992522705078125,-0.895477294921875,-0.2224273681640625,-0.2068939208984375
1761315261961570800,4.00257080078125,-0.8680572509765625,-0.23614501953125,-0.19586181640625
1761315261971617800,4.01261767578125,-0.8454437255859375,-0.2450408935546875,-0.186614990234375
1761315261981665000,4.0226650390625,-0.83935546875,-0.2469940185546875,-0.1827850341796875
1761315261991712800,4.032712646484375,-0.8395233154296875,-0.24456787109375,-0.18023681640625
1761315262001759700,4.042759765625,-0.8304595947265625,-0.2433319091796875,-0.1739654541015625
1761315262011806700,4.052806640625,-0.82623291015625,-0.2452239990234375,-0.166900634765625
1761315262021855000,4.06285498046875,-0.826385498046875,-0.245269775390625,-0.1658935546875
1761315262031902000,4.07290185546875,-0.8228607177734375,-0.2392578125,-0.16485595703125
1761315262041948700,4.08294873046875,-0.8260040283203125,-0.238525390625,-0.15716552734375
1761315262051996700,4.09299658203125,-0.8394622802734375,-0.24481201171875,-0.1521453857421875
1761315262062043600,4.103043701171875,-0.845733642578125,-0.24554443359375,-0.1527252197265625
1761315262072091000,4.1130908203125,-0.8447265625,-0.2401275634765625,-0.1527252197265625
1761315262082137900,4.123137939453125,-0.855560302734375,-0.2397918701171875,-0.1510772705078125
1761315262092185900,4.133185791015625,-0.8617401123046875,-0.2415313720703125,-0.152069091796875
1761315262102232600,4.143232666015625,-0.864654541015625,-0.2389984130859375,-0.151458740234375
1761315262112279800,4.15327978515625,-0.8739776611328125,-0.232391357421875,-0.14971923828125
1761315262122327800,4.163327880859375,-0.894561767578125,-0.2339630126953125,-0.148651123046875
1761315262132374800,4.173374755859375,-0.9202880859375,-0.2376708984375,-0.1529693603515625
1761315262142421800,4.183421875,-0.9433746337890625,-0.233184814453125,-0.156005859375
1761315262152469800,4.1934697265625,-0.9728851318359375,-0.216583251953125,-0.1665496826171875
1761315262162516700,4.203516845703125,-1.003204345703125,-0.188629150390625,-0.1843109130859375
1761315262172563700,4.213563720703125,-1.02960205078125,-0.157989501953125,-0.192596435546875
1761315262182611700,4.22361181640625,-1.0579833984375,-0.1287841796875,-0.202850341796875
1761315262192658700,4.23365869140625,-1.092620849609375,-0.10247802734375,-0.2072296142578125
1761315262202706000,4.243705810546875,-1.1207275390625,-0.0944366455078125,-0.2038726806640625
1761315262212753700,4.253753662109375,-1.104949951171875,-0.0896148681640625,-0.19677734375
1761315262222800600,4.263800537109375,-1.109130859375,-0.0738677978515625,-0.1824493408203125
1761315262232847600,4.27384765625,-1.1558685302734375,-0.0628204345703125,-0.166290283203125
1761315262242894800,4.283894775390625,-1.2105255126953125,-0.070526123046875,-0.142181396484375
1761315262252942800,4.29394287109375,-1.2470855712890625,-0.089080810546875,-0.128753662109375
1761315262262989800,4.30398974609375,-1.2515716552734375,-0.0964813232421875,-0.1311492919921875
1761315262273036800,4.314036865234375,-1.25384521484375,-0.080902099609375,-0.1448822021484375
1761315262283084800,4.324084716796875,-1.2480621337890625,-0.054962158203125,-0.1589508056640625
1761315262293131800,4.3341318359375,-1.227325439453125,-0.030364990234375,-0.167816162109375
1761315262303178800,4.3441787109375,-1.2060394287109375,-0.007965087890625,-0.1775054931640625
1761315262313226800,4.354226806640625,-1.1975860595703125,0.013885498046875,-0.18603515625
1761315262323273700,4.364273681640625,-1.1802520751953125,0.026947021484375,-0.186981201171875
1761315262333321000,4.374321044921875,-1.15374755859375,0.0318145751953125,-0.182647705078125
1761315262343365000,4.384365234375,-1.1317596435546875,0.03570556640625,-0.176361083984375
1761315262353412400,4.394412353515625,-1.1133270263671875,0.0425872802734375,-0.1672821044921875
1761315262363459300,4.404459228515625,-1.0885467529296875,0.050048828125,-0.15911865234375
1761315262373507300,4.41450732421875,-1.052001953125,0.055511474609375,-0.152069091796875
1761315262383554300,4.42455419921875,-1.02008056640625,0.056365966796875,-0.14190673828125
1761315262393601300,4.434601318359375,-0.99517822265625,0.049407958984375,-0.1271514892578125
1761315262403648300,4.444648193359375,-0.9741668701171875,0.039306640625,-0.1134033203125
1761315262413696300,4.4546962890625,-0.963531494140625,0.0291595458984375,-0.0977630615234375
1761315262423743200,4.4647431640625,-0.9600830078125,0.017578125,-0.0820465087890625
1761315262433790200,4.474790283203125,-0.96075439453125,0.0094451904296875,-0.072418212890625
1761315262443838500,4.48483837890625,-0.965545654296875,0.0056915283203125,-0.068878173828125
1761315262453885400,4.494885498046875,-0.97650146484375,0.0021820068359375,-0.0669097900390625
1761315262463932200,4.50493212890625,-0.9956817626953125,-0.003082275390625,-0.0604705810546875
1761315262473980200,4.514980224609375,-1.019866943359375,-0.009735107421875,-0.056121826171875
1761315262484027400,4.52502734375,-1.0276031494140625,-0.01513671875,-0.056427001953125
1761315262494074400,4.535074462890625,-1.026702880859375,-0.0158538818359375,-0.0591583251953125
1761315262504122400,4.545122314453125,-1.02764892578125,-0.012664794921875,-0.060699462890625
1761315262514169300,4.55516943359375,-1.0412139892578125,-0.019378662109375,-0.0585784912109375
1761315262524216000,4.565216064453125,-1.044921875,-0.0322723388671875,-0.056549072265625
1761315262534264300,4.575264404296875,-1.044097900390625,-0.04107666015625,-0.050262451171875
1761315262544311300,4.585311279296875,-1.0408935546875,-0.0425872802734375,-0.0392608642578125
1761315262554358300,4.595358154296875,-1.028289794921875,-0.0445709228515625,-0.0244140625
1761315262564405200,4.6054052734375,-1.0097808837890625,-0.0561981201171875,-0.0083465576171875
1761315262574453200,4.615453369140625,-0.996856689453125,-0.0689239501953125,0.0113983154296875
1761315262584500200,4.625500244140625,-0.9820404052734375,-0.0886383056640625,0.038848876953125
1761315262594547200,4.635547119140625,-0.9761810302734375,-0.11566162109375,0.066497802734375
1761315262604595200,4.64559521484375,-0.9820404052734375,-0.1479034423828125,0.0982818603515625
1761315262614642400,4.655642333984375,-0.997772216796875,-0.1762847900390625,0.1318511962890625
1761315262624689400,4.665689453125,-1.003265380859375,-0.1997222900390625,0.1609344482421875
1761315262634737200,4.675737060546875,-1.000396728515625,-0.2132110595703125,0.1767120361328125
1761315262644784000,4.6857841796875,-0.9924163818359375,-0.2170257568359375,0.176116943359375
1761315262654831000,4.6958310546875,-0.9782257080078125,-0.2210235595703125,0.1738433837890625
1761315262664879400,4.70587939453125,-0.9630584716796875,-0.2335205078125,0.1671905517578125
1761315262674926300,4.71592626953125,-0.9495391845703125,-0.252716064453125,0.1613922119140625
1761315262684973300,4.725973388671875,-0.9351654052734375,-0.277862548828125,0.1602325439453125
1761315262695021300,4.736021240234375,-0.924835205078125,-0.305694580078125,0.155426025390625
1761315262705068300,4.746068359375,-0.910247802734375,-0.3314361572265625,0.146087646484375
1761315262715115300,4.756115234375,-0.8928680419921875,-0.356048583984375,0.1373138427734375
1761315262725162200,4.766162353515625,-0.889617919921875,-0.381103515625,0.138580322265625
1761315262735210200,4.776210205078125,-0.90521240234375,-0.403289794921875,0.1415557861328125
1761315262745257500,4.786257568359375,-0.9176025390625,-0.4131927490234375,0.1363983154296875
1761315262755304400,4.796304443359375,-0.91632080078125,-0.411590576171875,0.132476806640625
1761315262765352200,4.806352294921875,-0.92071533203125,-0.412322998046875,0.1293182373046875
1761315262775399200,4.816399169921875,-0.9290771484375,-0.4137725830078125,0.12640380859375
1761315262785446100,4.826446044921875,-0.936920166015625,-0.4160919189453125,0.124786376953125
1761315262795494400,4.836494384765625,-0.962249755859375,-0.421173095703125,0.1298065185546875
1761315262805541400,4.846541259765625,-0.9857940673828125,-0.42401123046875,0.132080078125
1761315262815588400,4.85658837890625,-0.9942169189453125,-0.4237823486328125,0.1373138427734375
1761315262825636400,4.86663623046875,-1.002685546875,-0.4242401123046875,0.137237548828125
1761315262835683300,4.876683349609375,-0.9948577880859375,-0.4269256591796875,0.1317138671875
1761315262845730300,4.886730224609375,-0.9842529296875,-0.43585205078125,0.1274261474609375
1761315262855775200,4.896775146484375,-0.9766693115234375,-0.4541473388671875,0.1304473876953125
1761315262865822200,4.906822265625,-0.970611572265625,-0.473541259765625,0.1303558349609375
1761315262875869200,4.916869140625,-0.9705657958984375,-0.487274169921875,0.120452880859375
1761315262885917200,4.926917236328125,-0.974395751953125,-0.50042724609375,0.107330322265625
1761315262895964400,4.93696435546875,-0.988983154296875,-0.5116119384765625,0.0998992919921875
1761315262906011400,4.947011474609375,-1.000885009765625,-0.5081329345703125,0.08831787109375
1761315262916059100,4.95705908203125,-1.009613037109375,-0.4935150146484375,0.07427978515625
1761315262926106000,4.967106201171875,-1.012054443359375,-0.48809814453125,0.0607147216796875
1761315262936153000,4.977153076171875,-1.00555419921875,-0.477142333984375,0.0419158935546875
1761315262946201300,4.987201416015625,-1.00299072265625,-0.4553985595703125,0.020355224609375
1761315262956248300,4.997248291015625,-0.98333740234375,-0.43505859375,0.0031585693359375
1761315262966295300,5.00729541015625,-0.9508056640625,-0.4180755615234375,-0.0085296630859375
1761315262976343300,5.01734326171875,-0.916168212890625,-0.4030914306640625,-0.0164031982421875
1761315262986390300,5.027390380859375,-0.8805389404296875,-0.3962249755859375,-0.0228118896484375
1761315262996437200,5.037437255859375,-0.8355255126953125,-0.39495849609375,-0.026336669921875
1761315263006484200,5.047484130859375,-0.799407958984375,-0.3972320556640625,-0.02081298828125
1761315263016532200,5.0575322265625,-0.8185272216796875,-0.4151763916015625,0.0147552490234375
1761315263026579500,5.067579345703125,-0.86859130859375,-0.438812255859375,0.0540924072265625
1761315263036626400,5.07762646484375,-0.886474609375,-0.4234161376953125,0.0578765869140625
1761315263046674200,5.087674072265625,-0.881072998046875,-0.37310791015625,0.0484161376953125
1761315263056721200,5.09772119140625,-0.8747406005859375,-0.330169677734375,0.035797119140625
1761315263066768100,5.10776806640625,-0.8563232421875,-0.31402587890625,0.02960205078125
1761315263076816400,5.11781640625,-0.8386077880859375,-0.314239501953125,0.0326690673828125
1761315263086863400,5.12786328125,-0.84698486328125,-0.316070556640625,0.04620361328125
1761315263096910300,5.137910400390625,-0.8744049072265625,-0.3236846923828125,0.0690765380859375
1761315263106958300,5.147958251953125,-0.8956451416015625,-0.341522216796875,0.083709716796875
1761315263117005300,5.15800537109375,-0.910430908203125,-0.3492889404296875,0.0844268798828125
1761315263127052300,5.16805224609375,-0.917877197265625,-0.3358612060546875,0.08087158203125
1761315263137099300,5.178099365234375,-0.916351318359375,-0.327301025390625,0.0706787109375
1761315263147147300,5.188147216796875,-0.9120330810546875,-0.3385467529296875,0.0638275146484375
1761315263157194500,5.198194580078125,-0.9192962646484375,-0.3610992431640625,0.066741943359375
1761315263167241200,5.2082412109375,-0.9392547607421875,-0.3783416748046875,0.0708160400390625
1761315263177289200,5.218289306640625,-0.94952392578125,-0.3838653564453125,0.068939208984375
1761315263187336200,5.228336181640625,-0.9583740234375,-0.3824310302734375,0.0597076416015625
1761315263197383200,5.238383056640625,-0.972198486328125,-0.3802337646484375,0.0476226806640625
1761315263207431400,5.248431396484375,-0.983123779296875,-0.379730224609375,0.0355072021484375
1761315263217478400,5.258478515625,-0.9830474853515625,-0.382476806640625,0.0273895263671875
1761315263227525000,5.268525146484375,-0.96044921875,-0.378082275390625,0.0146331787109375
1761315263237573400,5.278573486328125,-0.932037353515625,-0.3713226318359375,0.0028228759765625
1761315263247620400,5.288620361328125,-0.9184112548828125,-0.3681488037109375,-0.0059356689453125
1761315263257667300,5.298667236328125,-0.906982421875,-0.367340087890625,-0.01422119140625
1761315263267714300,5.30871435546875,-0.888458251953125,-0.3665618896484375,-0.017852783203125
1761315263277762000,5.318761962890625,-0.8641510009765625,-0.362091064453125,-0.0174713134765625
1761315263287809300,5.328809326171875,-0.8460540771484375,-0.3611907958984375,-0.005523681640625
1761315263297856300,5.338856201171875,-0.8385009765625,-0.3694000244140625,0.0114898681640625
1761315263307904300,5.348904296875,-0.8358917236328125,-0.384429931640625,0.0358734130859375
1761315263317951200,5.358951171875,-0.836700439453125,-0.40155029296875,0.062652587890625
1761315263327998200,5.368998291015625,-0.833282470703125,-0.41180419921875,0.0797271728515625
1761315263338046200,5.379046142578125,-0.8215179443359375,-0.4174652099609375,0.0883941650390625
1761315263348092200,5.389092041015625,-0.8264007568359375,-0.4173431396484375,0.0921478271484375
1761315263358139400,5.399139404296875,-0.8350677490234375,-0.414642333984375,0.085662841796875
1761315263368187100,5.409187255859375,-0.822998046875,-0.409881591796875,0.081573486328125
1761315263378234000,5.419234130859375,-0.81011962890625,-0.404693603515625,0.0768890380859375
1761315263388281000,5.429281005859375,-0.8020172119140625,-0.4037322998046875,0.0715179443359375
1761315263398329300,5.439329345703125,-0.795501708984375,-0.40191650390625,0.0720062255859375
1761315263408376300,5.449376220703125,-0.7947540283203125,-0.4000701904296875,0.0753936767578125
1761315263418423300,5.45942333984375,-0.8031005859375,-0.4061431884765625,0.0827789306640625
1761315263428470000,5.469469970703125,-0.8137664794921875,-0.41326904296875,0.0936737060546875
1761315263438518300,5.479518310546875,-0.8320159912109375,-0.4139556884765625,0.1050262451171875
1761315263448565200,5.489565185546875,-0.8520050048828125,-0.4129791259765625,0.108184814453125
1761315263458612200,5.4996123046875,-0.85491943359375,-0.411651611328125,0.103851318359375
1761315263468660200,5.50966015625,-0.8556976318359375,-0.4130401611328125,0.1054840087890625
1761315263478707200,5.519707275390625,-0.864776611328125,-0.417083740234375,0.106231689453125
1761315263488754200,5.529754150390625,-0.873931884765625,-0.417633056640625,0.1029205322265625
1761315263498802200,5.53980224609375,-0.8836212158203125,-0.4216461181640625,0.098480224609375
1761315263508849200,5.54984912109375,-0.8905487060546875,-0.42584228515625,0.089447021484375
1761315263518896000,5.559896240234375,-0.899810791015625,-0.4229888916015625,0.082183837890625
1761315263528944000,5.569944091796875,-0.913116455078125,-0.4203948974609375,0.0771942138671875
1761315263538991000,5.5799912109375,-0.9353790283203125,-0.4245452880859375,0.0693359375
1761315263549038000,5.5900380859375,-0.948699951171875,-0.4253997802734375,0.0589599609375
1761315263559085000,5.6000849609375,-0.9553070068359375,-0.41741943359375,0.0474395751953125
1761315263569133300,5.61013330078125,-0.9641265869140625,-0.4166412353515625,0.0411376953125
1761315263579180300,5.62018017578125,-0.9694976806640625,-0.4221343994140625,0.03570556640625
1761315263589227300,5.630227294921875,-0.97296142578125,-0.42547607421875,0.030487060546875
1761315263599275000,5.64027490234375,-0.977081298828125,-0.4239501953125,0.02740478515625
1761315263609322200,5.650322265625,-0.990814208984375,-0.4195709228515625,0.0254058837890625
1761315263619369200,5.660369140625,-1.007598876953125,-0.4170379638671875,0.0244293212890625
1761315263629417200,5.670417236328125,-1.002410888671875,-0.4198455810546875,0.025970458984375
1761315263639464200,5.680464111328125,-0.9955291748046875,-0.43536376953125,0.034576416015625
1761315263649511200,5.69051123046875,-1.025634765625,-0.446319580078125,0.034912109375
1761315263659559200,5.70055908203125,-1.0407257080078125,-0.4471893310546875,0.025238037109375
1761315263669606100,5.710606201171875,-1.026824951171875,-0.4473876953125,0.018035888671875
1761315263679653000,5.720653076171875,-1.025146484375,-0.4420166015625,0.009979248046875
1761315263689700000,5.7307001953125,-1.0388336181640625,-0.430694580078125,0.0001068115234375
1761315263699748400,5.740748291015625,-1.04559326171875,-0.4063568115234375,-0.010711669921875
1761315263709795300,5.75079541015625,-1.044281005859375,-0.37506103515625,-0.0231475830078125
1761315263719842300,5.76084228515625,-1.0328521728515625,-0.3519439697265625,-0.0288848876953125
1761315263729890000,5.77089013671875,-1.0266876220703125,-0.3365325927734375,-0.029693603515625
1761315263739937300,5.780937255859375,-1.0264434814453125,-0.321868896484375,-0.0298614501953125
1761315263749984300,5.790984375,-1.0193328857421875,-0.3039703369140625,-0.031280517578125
1761315263760032300,5.8010322265625,-1.0117950439453125,-0.28240966796875,-0.0401611328125
1761315263770079200,5.811079345703125,-0.9988250732421875,-0.26593017578125,-0.0528106689453125
1761315263780126200,5.821126220703125,-0.96868896484375,-0.2586669921875,-0.0629119873046875
1761315263790174200,5.83117431640625,-0.929107666015625,-0.247314453125,-0.072540283203125
1761315263800221200,5.84122119140625,-0.898345947265625,-0.23492431640625,-0.0848388671875
1761315263810268200,5.85126806640625,-0.8717803955078125,-0.2289886474609375,-0.0840606689453125
1761315263820316200,5.861316162109375,-0.8449249267578125,-0.224578857421875,-0.0724945068359375
1761315263830363400,5.87136328125,-0.826080322265625,-0.2337188720703125,-0.0621337890625
1761315263840410000,5.88141015625,-0.81475830078125,-0.2410125732421875,-0.0443115234375
1761315263850457000,5.89145703125,-0.812957763671875,-0.2466583251953125,-0.026214599609375
1761315263860505000,5.901505126953125,-0.812408447265625,-0.25927734375,-0.0152130126953125
1761315263870552300,5.91155224609375,-0.807403564453125,-0.28387451171875,-0.0030517578125
1761315263880599300,5.921599365234375,-0.803436279296875,-0.3081817626953125,0.014892578125
1761315263890647300,5.931647216796875,-0.8299102783203125,-0.3325958251953125,0.0267791748046875
1761315263900694000,5.941694091796875,-0.860198974609375,-0.3557891845703125,0.0306854248046875
1761315263910741000,5.951740966796875,-0.8662872314453125,-0.36663818359375,0.0225982666015625
1761315263920789200,5.961789306640625,-0.8682403564453125,-0.364959716796875,0.006256103515625
1761315263930836200,5.971836181640625,-0.8759307861328125,-0.3530120849609375,-0.01593017578125
1761315263940883200,5.98188330078125,-0.87939453125,-0.338531494140625,-0.0316619873046875
1761315263950931200,5.99193115234375,-0.892547607421875,-0.3232421875,-0.0450439453125
1761315263960978200,6.001978271484375,-0.91094970703125,-0.3053131103515625,-0.05242919921875
1761315263971025200,6.012025146484375,-0.922210693359375,-0.295745849609375,-0.05029296875
1761315263981072100,6.022072021484375,-0.93267822265625,-0.29443359375,-0.041168212890625
1761315263991120100,6.0321201171875,-0.9358367919921875,-0.2975006103515625,-0.027862548828125
1761315264001167400,6.04216748046875,-0.9246826171875,-0.3003692626953125,-0.015045166015625
1761315264011214300,6.05221435546875,-0.9131622314453125,-0.3029327392578125,-0.0044708251953125
1761315264021262000,6.062261962890625,-0.905975341796875,-0.30169677734375,0.006256103515625
1761315264031309000,6.07230908203125,-0.8919219970703125,-0.307281494140625,0.0201416015625
1761315264041356000,6.08235595703125,-0.8779144287109375,-0.3235015869140625,0.033416748046875
1761315264051404300,6.092404296875,-0.8730316162109375,-0.3416748046875,0.0472564697265625
1761315264061451300,6.102451171875,-0.87310791015625,-0.3642425537109375,0.0621795654296875
1761315264071498200,6.112498291015625,-0.8738555908203125,-0.387969970703125,0.070648193359375
1761315264081546200,6.122546142578125,-0.8724822998046875,-0.4035491943359375,0.0730438232421875
1761315264091593200,6.13259326171875,-0.8724212646484375,-0.4113311767578125,0.071807861328125
1761315264101640200,6.14264013671875,-0.8744659423828125,-0.415069580078125,0.0666046142578125
1761315264111687200,6.152687255859375,-0.872802734375,-0.41522216796875,0.058197021484375
1761315264121735200,6.162735107421875,-0.8764190673828125,-0.41986083984375,0.04559326171875
1761315264131782400,6.172782470703125,-0.8756866455078125,-0.426177978515625,0.0344696044921875
1761315264141829400,6.182829345703125,-0.882843017578125,-0.4253082275390625,0.0242156982421875
1761315264151877000,6.192877197265625,-0.8949432373046875,-0.4173583984375,0.01898193359375
1761315264161924000,6.202924072265625,-0.8993377685546875,-0.41064453125,0.017578125
1761315264171971000,6.21297119140625,-0.9036865234375,-0.404022216796875,0.0186767578125
1761315264182019300,6.223019287109375,-0.9114532470703125,-0.397613525390625,0.0205078125
1761315264192066300,6.23306640625,-0.9220733642578125,-0.3914337158203125,0.0234222412109375
1761315264202113000,6.243113037109375,-0.9334564208984375,-0.387359619140625,0.0233154296875
1761315264212161300,6.253161376953125,-0.937255859375,-0.3817291259765625,0.01885986328125
1761315264222208300,6.263208251953125,-0.9420013427734375,-0.3743133544921875,0.015655517578125
1761315264232255200,6.273255126953125,-0.9561920166015625,-0.3773956298828125,0.0217742919921875
1761315264242302200,6.28330224609375,-0.9794158935546875,-0.3833770751953125,0.0245819091796875
1761315264252350200,6.29335009765625,-0.98199462890625,-0.3842010498046875,0.0288543701171875
1761315264262397200,6.303397216796875,-0.992401123046875,-0.3823699951171875,0.0401458740234375
1761315264272444200,6.313444091796875,-1.01416015625,-0.386962890625,0.048828125
1761315264282492200,6.3234921875,-1.0136260986328125,-0.395782470703125,0.0521087646484375
1761315264292539100,6.3335390625,-1.00469970703125,-0.4019775390625,0.0528717041015625
1761315264302586000,6.343586181640625,-1.003021240234375,-0.4135589599609375,0.0561065673828125
1761315264312634000,6.353634033203125,-1.0174407958984375,-0.4290771484375,0.0546722412109375
1761315264322681000,6.36368115234375,-1.0351409912109375,-0.4299774169921875,0.0405731201171875
1761315264332728000,6.37372802734375,-1.05810546875,-0.418365478515625,0.0132904052734375
1761315264342776300,6.3837763671875,-1.072723388671875,-0.4066162109375,-0.0088653564453125
1761315264352824000,6.393823974609375,-1.0839996337890625,-0.3943939208984375,-0.0255584716796875
1761315264362871300,6.403871337890625,-1.085723876953125,-0.3749237060546875,-0.0363616943359375
1761315264372918000,6.41391796875,-1.0740509033203125,-0.3500823974609375,-0.0393829345703125
1761315264382966000,6.423966064453125,-1.0574798583984375,-0.3339385986328125,-0.0341644287109375
1761315264393013000,6.434012939453125,-1.033538818359375,-0.3307952880859375,-0.0209503173828125
1761315264403060000,6.44406005859375,-0.99530029296875,-0.3318328857421875,-0.0019989013671875
1761315264413108200,6.454108154296875,-0.9637908935546875,-0.333587646484375,0.0104522705078125
1761315264423155000,6.464155029296875,-0.9400787353515625,-0.3421478271484375,0.0131683349609375
1761315264433202000,6.474201904296875,-0.9212188720703125,-0.3664093017578125,0.020294189453125
1761315264443250200,6.484250244140625,-0.9106597900390625,-0.3996124267578125,0.02801513671875
1761315264453297200,6.494297119140625,-0.9198455810546875,-0.42254638671875,0.0287322998046875
1761315264463344000,6.50434423828125,-0.925750732421875,-0.42242431640625,0.01611328125
1761315264473392000,6.51439208984375,-0.91180419921875,-0.396514892578125,-0.0048828125
1761315264483438800,6.52443896484375,-0.8858642578125,-0.3565216064453125,-0.0177764892578125
1761315264493486000,6.534486083984375,-0.8711090087890625,-0.325592041015625,-0.025909423828125
1761315264503533000,6.544532958984375,-0.85699462890625,-0.31097412109375,-0.0229034423828125
1761315264513581000,6.5545810546875,-0.8386993408203125,-0.30487060546875,-0.0065460205078125
1761315264523628000,6.5646279296875,-0.8228607177734375,-0.307891845703125,0.014007568359375
1761315264533675000,6.574675048828125,-0.81182861328125,-0.3166351318359375,0.0369873046875
1761315264543723000,6.584722900390625,-0.8019256591796875,-0.3246917724609375,0.054290771484375
1761315264553770000,6.59477001953125,-0.7823333740234375,-0.3289794921875,0.06341552734375
1761315264563817000,6.60481689453125,-0.7639923095703125,-0.33642578125,0.068756103515625
1761315264573865200,6.614865234375,-0.771209716796875,-0.3540496826171875,0.0703582763671875
1761315264583912200,6.624912109375,-0.781494140625,-0.37469482421875,0.0652313232421875
1761315264593959200,6.634959228515625,-0.790374755859375,-0.3859405517578125,0.05780029296875
1761315264604007000,6.6450068359375,-0.8054962158203125,-0.387664794921875,0.0443878173828125
1761315264614054000,6.655053955078125,-0.811065673828125,-0.3881683349609375,0.0335693359375
1761315264624101000,6.66510107421875,-0.8283233642578125,-0.3882293701171875,0.035858154296875
1761315264634148000,6.675148193359375,-0.86956787109375,-0.3807373046875,0.038970947265625
1761315264644196000,6.685196044921875,-0.905181884765625,-0.364990234375,0.0384063720703125
1761315264654243000,6.6952431640625,-0.936614990234375,-0.347381591796875,0.030303955078125
1761315264664290000,6.7052900390625,-0.97064208984375,-0.3360443115234375,0.0231475830078125
1761315264674338000,6.715338134765625,-0.998260498046875,-0.3426971435546875,0.0181427001953125
1761315264684385000,6.725385009765625,-1.034637451171875,-0.35443115234375,0.0221710205078125
1761315264694432000,6.735431884765625,-1.0626678466796875,-0.34857177734375,0.0131378173828125
1761315264704480300,6.745480224609375,-1.0241241455078125,-0.3280792236328125,-0.0057373046875
1761315264714527200,6.75552734375,-0.9913177490234375,-0.3084716796875,-0.026885986328125
1761315264724574200,6.76557421875,-0.95526123046875,-0.296173095703125,-0.0419769287109375
1761315264734622000,6.7756220703125,-0.91326904296875,-0.2931365966796875,-0.0449371337890625
1761315264744669000,6.7856689453125,-0.8816375732421875,-0.299957275390625,-0.0376129150390625
1761315264754716200,6.795716064453125,-0.8546142578125,-0.3083953857421875,-0.018096923828125
1761315264764763100,6.80576318359375,-0.833404541015625,-0.32440185546875,0.00738525390625
1761315264774811100,6.81581103515625,-0.8136749267578125,-0.34442138671875,0.0298309326171875
1761315264784858000,6.825858154296875,-0.82513427734375,-0.3668060302734375,0.05804443359375
1761315264794905000,6.835905029296875,-0.85174560546875,-0.389495849609375,0.075775146484375
1761315264804953000,6.845953125,-0.8544921875,-0.4055633544921875,0.082794189453125
1761315264815000000,6.856,-0.841766357421875,-0.4086761474609375,0.087249755859375
1761315264825047000,6.866047119140625,-0.8493194580078125,-0.40045166015625,0.0870208740234375
1761315264835095000,6.876094970703125,-0.8565521240234375,-0.3928070068359375,0.07421875
1761315264845142000,6.88614208984375,-0.8372802734375,-0.396514892578125,0.0639801025390625
1761315264855189000,6.89618896484375,-0.8187408447265625,-0.4055328369140625,0.065399169921875
1761315264865237000,6.906237060546875,-0.81414794921875,-0.41815185546875,0.0704193115234375
1761315264875284000,6.916283935546875,-0.8236846923828125,-0.4331207275390625,0.0819244384765625
1761315264885331200,6.926331298828125,-0.84161376953125,-0.4457550048828125,0.0917205810546875
1761315264895378200,6.936378173828125,-0.8649749755859375,-0.4507598876953125,0.0922088623046875
1761315264905426000,6.946426025390625,-0.87518310546875,-0.4493560791015625,0.086395263671875
1761315264915473000,6.956472900390625,-0.886383056640625,-0.4401397705078125,0.069793701171875
1761315264925520100,6.96652001953125,-0.89862060546875,-0.4288482666015625,0.040435791015625
1761315264935568100,6.976568115234375,-0.8630523681640625,-0.413726806640625,0.01104736328125
1761315264945615000,6.986614990234375,-0.839141845703125,-0.4061737060546875,-0.0113983154296875
1761315264955662000,6.996662109375,-0.8414764404296875,-0.40838623046875,-0.0257568359375
1761315264965710000,7.0067099609375,-0.8643646240234375,-0.4092559814453125,-0.01580810546875
1761315264975757000,7.016757080078125,-0.8916778564453125,-0.407318115234375,0.014556884765625
1761315264985804000,7.026803955078125,-0.916351318359375,-0.4248504638671875,0.0440826416015625
1761315264995851000,7.03685107421875,-0.925750732421875,-0.4517822265625,0.0651702880859375
1761315265005899000,7.04689892578125,-0.925201416015625,-0.4584808349609375,0.0753173828125
1761315265015946200,7.0569462890625,-0.91790771484375,-0.4553985595703125,0.073577880859375
1761315265025993200,7.0669931640625,-0.9039764404296875,-0.450164794921875,0.0595703125
1761315265036041000,7.077041015625,-0.8980865478515625,-0.4454193115234375,0.0391998291015625
1761315265046088000,7.087087890625,-0.902099609375,-0.43865966796875,0.02099609375
1761315265056135200,7.09713525390625,-0.913177490234375,-0.4240875244140625,0.00830078125
1761315265066183200,7.10718310546875,-0.9304962158203125,-0.4134979248046875,0.015869140625
1761315265076230100,7.117230224609375,-0.953826904296875,-0.4072418212890625,0.022979736328125
1761315265086277000,7.127277099609375,-0.9688720703125,-0.4098968505859375,0.0238800048828125
1761315265096325000,7.1373251953125,-0.96697998046875,-0.42205810546875,0.0225982666015625
1761315265106372000,7.1473720703125,-0.95892333984375,-0.44598388671875,0.0242919921875
1761315265116419000,7.157419189453125,-0.959259033203125,-0.471405029296875,0.0298919677734375
1761315265126466000,7.167466064453125,-0.9639434814453125,-0.4770355224609375,0.0330657958984375
1761315265136514300,7.177514404296875,-0.975738525390625,-0.4676361083984375,0.0268707275390625
1761315265146561000,7.18756103515625,-0.9816741943359375,-0.4567718505859375,0.0138092041015625
1761315265156608000,7.19760791015625,-0.9764556884765625,-0.442718505859375,-0.0080718994140625
1761315265166656000,7.207656005859375,-0.962890625,-0.4258575439453125,-0.03179931640625
1761315265176703000,7.217702880859375,-0.9460601806640625,-0.4146881103515625,-0.0491180419921875
1761315265186750200,7.227750244140625,-0.93585205078125,-0.40850830078125,-0.0571441650390625
1761315265196798200,7.237798095703125,-0.9380340576171875,-0.3970489501953125,-0.053741455078125
1761315265206845000,7.247844970703125,-0.9513092041015625,-0.3835906982421875,-0.048919677734375
1761315265216892000,7.257891845703125,-0.966644287109375,-0.3630828857421875,-0.0504302978515625
1761315265226940200,7.267940185546875,-0.9801177978515625,-0.3323974609375,-0.059234619140625
1761315265236987100,7.277987060546875,-0.9784088134765625,-0.298919677734375,-0.0695953369140625
1761315265247034000,7.2880341796875,-0.9669952392578125,-0.274078369140625,-0.0762939453125
1761315265257081000,7.2980810546875,-0.959686279296875,-0.257415771484375,-0.08074951171875
1761315265267129000,7.308129150390625,-0.9471588134765625,-0.2420501708984375,-0.08203125
1761315265277176000,7.318176025390625,-0.9337158203125,-0.234619140625,-0.08502197265625
1761315265287223000,7.32822314453125,-0.9117584228515625,-0.2464141845703125,-0.088531494140625
1761315265297271000,7.33827099609375,-0.8761749267578125,-0.2572784423828125,-0.0810699462890625
1761315265307318000,7.348318115234375,-0.867340087890625,-0.264251708984375,-0.061309814453125
1761315265317365200,7.358365234375,-0.89056396484375,-0.2828826904296875,-0.02996826171875
1761315265327413000,7.3684130859375,-0.90679931640625,-0.31201171875,0.0062103271484375
1761315265337460000,7.3784599609375,-0.9006805419921875,-0.336669921875,0.02545166015625
1761315265347507000,7.3885068359375,-0.8851776123046875,-0.3516845703125,0.0271759033203125
1761315265357555000,7.398554931640625,-0.8708343505859375,-0.35284423828125,0.024169921875
1761315265367602000,7.408601806640625,-0.8777923583984375,-0.3531341552734375,0.023895263671875
1761315265377649000,7.41864892578125,-0.887054443359375,-0.3619232177734375,0.0147705078125
1761315265387695900,7.42869580078125,-0.8792877197265625,-0.3614654541015625,-0.0048370361328125
1761315265397743900,7.438743896484375,-0.879180908203125,-0.349090576171875,-0.023406982421875
1761315265407790800,7.448790771484375,-0.892303466796875,-0.3344573974609375,-0.03070068359375
1761315265417837800,7.458837890625,-0.906524658203125,-0.32269287109375,-0.0260467529296875
1761315265427886000,7.468885986328125,-0.9164886474609375,-0.3162841796875,-0.0167388916015625
1761315265437933000,7.47893310546875,-0.910552978515625,-0.3165283203125,-0.0062713623046875
1761315265447980000,7.48897998046875,-0.9041748046875,-0.3176116943359375,0.000244140625
1761315265458027800,7.49902783203125,-0.8911590576171875,-0.3184356689453125,0.00433349609375
1761315265468074800,7.50907470703125,-0.8867645263671875,-0.3197174072265625,0.012054443359375
1761315265478122000,7.5191220703125,-0.9005279541015625,-0.326263427734375,0.0256805419921875
1761315265488169000,7.5291689453125,-0.923309326171875,-0.3402557373046875,0.03961181640625
1761315265498217000,7.539217041015625,-0.9374237060546875,-0.354248046875,0.048095703125
1761315265508264000,7.549263916015625,-0.9397735595703125,-0.3600616455078125,0.0477142333984375
1761315265518311000,7.559310791015625,-0.929840087890625,-0.36737060546875,0.038299560546875
1761315265528359000,7.56935888671875,-0.9056396484375,-0.3730621337890625,0.0236663818359375
1761315265538406000,7.579406005859375,-0.886444091796875,-0.3775787353515625,0.0159149169921875
1761315265548452900,7.589452880859375,-0.8729248046875,-0.3864898681640625,0.0173797607421875
1761315265558501000,7.599501220703125,-0.8671417236328125,-0.3898468017578125,0.0206451416015625
1761315265568547800,7.6095478515625,-0.876373291015625,-0.387939453125,0.0247650146484375
1761315265578594800,7.6195947265625,-0.8983154296875,-0.3856201171875,0.0285491943359375
1761315265588642800,7.629642822265625,-0.9185028076171875,-0.3833465576171875,0.0251007080078125
1761315265598689800,7.639689697265625,-0.9266510009765625,-0.3785400390625,0.0211334228515625
1761315265608737000,7.649737060546875,-0.9297332763671875,-0.3698272705078125,0.02545166015625
1761315265618784000,7.659783935546875,-0.9338226318359375,-0.357757568359375,0.02923583984375
1761315265628831700,7.669831787109375,-0.9383392333984375,-0.3459930419921875,0.03338623046875
1761315265638878700,7.679878662109375,-0.944366455078125,-0.344696044921875,0.035369873046875
1761315265648926000,7.689926025390625,-0.9411163330078125,-0.3472747802734375,0.0356292724609375
1761315265658974000,7.699973876953125,-0.9251861572265625,-0.3403167724609375,0.0267486572265625
1761315265669021000,7.71002099609375,-0.917327880859375,-0.322601318359375,0.013702392578125
1761315265679068000,7.72006787109375,-0.9243621826171875,-0.305511474609375,0.00848388671875
1761315265689116000,7.730115966796875,-0.8961639404296875,-0.3009185791015625,0.002777099609375
1761315265699163000,7.740162841796875,-0.86260986328125,-0.2914276123046875,0.036865234375
1761315265709209900,7.7502099609375,-1.0176849365234375,-0.3483734130859375,0.0776519775390625
1761315265719256800,7.7602568359375,-1.0532989501953125,-0.408599853515625,0.07672119140625
1761315265729304800,7.770304931640625,-1.0426483154296875,-0.4282989501953125,0.0540313720703125
1761315265739352000,7.78035205078125,-1.0485382080078125,-0.3773651123046875,0.002899169921875
1761315265749399000,7.79039892578125,-1.0456085205078125,-0.32659912109375,-0.0354156494140625
1761315265759446800,7.80044677734375,-1.0553131103515625,-0.320037841796875,-0.05267333984375
1761315265769493800,7.81049365234375,-1.0664825439453125,-0.33056640625,-0.055450439453125
1761315265779541000,7.820541015625,-1.04547119140625,-0.327606201171875,-0.0497894287109375
1761315265789589000,7.830589111328125,-1.0010833740234375,-0.307342529296875,-0.044586181640625
