time,seconds_elapsed,z,y,x
1761315258023020000,0.06402001953125,0.1627766638994217,0.5765189528465271,0.07018335163593292
1761315258033068000,0.074068115234375,0.15367478132247925,0.5368155241012573,0.09659844636917114
1761315258043115300,0.084115234375,0.1262383610010147,0.4464781582355499,0.13717329502105713
1761315258053162000,0.094161865234375,0.07704285532236099,0.2944345474243164,0.18568438291549683
1761315258063210000,0.1042099609375,0.003846403444185853,0.16853441298007965,0.24222515523433685
1761315258073257000,0.114257080078125,-0.04424628987908363,0.07754592597484589,0.2719622850418091
1761315258083304000,0.124303955078125,-0.050879690796136856,0.0062485747039318085,0.2567841112613678
1761315258093352200,0.134352294921875,-0.04398583248257637,-0.03569807484745979,0.21068213880062103
1761315258103399000,0.14439892578125,-0.03422375023365021,-0.049431465566158295,0.1267094761133194
1761315258113446000,0.15444580078125,-0.024531975388526917,-0.04249712824821472,0.02809501811861992
1761315258123492900,0.164492919921875,-0.0005691175465472043,-0.008730906993150711,-0.05842788890004158
1761315258133541000,0.174541015625,0.020433370023965836,0.05251167714595795,-0.11310525238513947
1761315258143588000,0.184588134765625,0.033006686717271805,0.11693061143159866,-0.14631539583206177
1761315258153635000,0.194635009765625,0.03500831872224808,0.17797905206680298,-0.16760684549808502
1761315258163682800,0.204682861328125,0.04875608906149864,0.2466723620891571,-0.18337808549404144
1761315258173730000,0.21472998046875,0.07346649467945099,0.2868565320968628,-0.1984206736087799
1761315258183777000,0.224777099609375,0.10865617543458939,0.28312358260154724,-0.21011808514595032
1761315258193825000,0.234824951171875,0.13820447027683258,0.22402137517929077,-0.22277022898197174
1761315258203872000,0.2448720703125,0.16343526542186737,0.1278245449066162,-0.22498145699501038
1761315258213919000,0.2549189453125,0.1993493288755417,0.01600533165037632,-0.21111489832401276
1761315258223966200,0.26496630859375,0.24547234177589417,-0.08579293638467789,-0.16643798351287842
1761315258234014000,0.275013916015625,0.2895231544971466,-0.16514767706394196,-0.11133264750242233
1761315258244061000,0.28506103515625,0.32901516556739807,-0.21404917538166046,-0.0490969717502594
1761315258254108000,0.29510791015625,0.3663199245929718,-0.24928678572177887,0.005536179058253765
1761315258264156200,0.30515625,0.39031368494033813,-0.2675286531448364,0.051954276859760284
1761315258274203100,0.315203125,0.40083423256874084,-0.2719250023365021,0.07983171194791794
1761315258284250000,0.32525,0.39421626925468445,-0.2644665539264679,0.09024600684642792
1761315258294297900,0.3352978515625,0.36723631620407104,-0.22833196818828583,0.08404909819364548
1761315258304345000,0.345344970703125,0.3364643156528473,-0.19085144996643066,0.07408487796783447
1761315258314392000,0.35539208984375,0.3097299039363861,-0.170841246843338,0.07159562408924103
1761315258324440000,0.365440185546875,0.27534210681915283,-0.14702114462852478,0.05626779794692993
1761315258334487000,0.375487060546875,0.23794864118099213,-0.11691570281982422,0.04259193316102028
1761315258344533800,0.38553369140625,0.20240263640880585,-0.08075396716594696,0.013229252770543098
1761315258354581000,0.3955810546875,0.17317017912864685,-0.026274479925632477,-0.02118544653058052
1761315258364628700,0.405628662109375,0.14603044092655182,0.016708139330148697,-0.05547311156988144
1761315258374675700,0.41567578125,0.12158102542161942,0.04627322405576706,-0.09695477783679962
1761315258384722700,0.42572265625,0.1064705178141594,0.062364041805267334,-0.12801122665405273
1761315258394771000,0.43577099609375,0.10861489176750183,0.05101737752556801,-0.13675998151302338
1761315258404818000,0.44581787109375,0.11850081384181976,0.025544773787260056,-0.11284878849983215
1761315258414865000,0.455864990234375,0.1302802413702011,0.007435545790940523,-0.06902274489402771
1761315258424912600,0.46591259765625,0.1501580774784088,-0.021022727712988853,0.005940180737525225
1761315258434960000,0.4759599609375,0.18083369731903076,-0.029817815870046616,0.10011141747236252
1761315258445006800,0.4860068359375,0.21578209102153778,-0.000054328484111465514,0.216496080160141
1761315258455054800,0.496054931640625,0.24859410524368286,0.043651606887578964,0.33792611956596375
1761315258465101800,0.506101806640625,0.27937012910842896,0.05988996475934982,0.46186563372612
1761315258475148800,0.516148681640625,0.3018797039985657,0.0601767860352993,0.5923386812210083
1761315258485195800,0.52619580078125,0.3120098114013672,0.05107756331562996,0.711833119392395
1761315258495243800,0.536243896484375,0.311127245426178,0.04115382954478264,0.8002610206604004
1761315258505290800,0.546290771484375,0.30390608310699463,0.04005181044340134,0.8624508380889893
1761315258515337700,0.556337646484375,0.3151792585849762,0.06593693792819977,0.9038829803466797
1761315258525386000,0.566385986328125,0.3473545014858246,0.16323180496692657,0.9373573064804077
1761315258535432700,0.5764326171875,0.3865642249584198,0.36643099784851074,0.9682425260543823
1761315258545479700,0.586479736328125,0.4470272958278656,0.5703710913658142,0.9703381657600403
1761315258555527700,0.596527587890625,0.5518711805343628,0.7187110185623169,0.90296870470047
1761315258565575000,0.606574951171875,0.6303049921989441,0.8855212926864624,0.7802457213401794
1761315258575622000,0.616621826171875,0.6689658164978027,1.0693129301071167,0.6248582601547241
1761315258585668900,0.6266689453125,0.5461874604225159,1.2912014722824097,0.4214330017566681
1761315258595716600,0.636716552734375,0.390807181596756,1.4203556776046753,0.19773651659488678
1761315258605763600,0.646763671875,0.28733882308006287,1.463871955871582,-0.029821012169122696
1761315258615810800,0.656810791015625,0.26240232586860657,1.3323196172714233,-0.24333275854587555
1761315258625858800,0.66685888671875,0.3146418333053589,0.9238266348838806,-0.3873160183429718
1761315258635905800,0.67690576171875,0.393612802028656,0.4657980501651764,-0.3658432364463806
1761315258645952800,0.686952880859375,0.40996435284614563,0.13688860833644867,-0.19588348269462585
1761315258656000800,0.697000732421875,0.36443254351615906,-0.0925869271159172,0.05030125379562378
1761315258666047700,0.7070478515625,0.32106244564056396,-0.2162255048751831,0.31370386481285095
1761315258676094700,0.7170947265625,0.3283989131450653,-0.2614619731903076,0.5192950963973999
1761315258686142700,0.727142822265625,0.38099050521850586,-0.23291181027889252,0.6207205057144165
1761315258696190000,0.73718994140625,0.45211392641067505,-0.18643991649150848,0.6057708859443665
1761315258706237000,0.74723681640625,0.5266624689102173,-0.1386963576078415,0.5228490829467773
1761315258716284700,0.75728466796875,0.5904510617256165,-0.08674900978803635,0.41265761852264404
1761315258726331600,0.76733154296875,0.648767352104187,-0.02901327610015869,0.31113871932029724
1761315258736378600,0.777378662109375,0.6841764450073242,0.06801073998212814,0.26399117708206177
1761315258746425900,0.78742578125,0.6891483068466187,0.1806267648935318,0.231550931930542
1761315258756473900,0.797473876953125,0.7139367461204529,-0.07330191135406494,0.13986548781394958
1761315258766520800,0.807520751953125,0.7455940246582031,-0.36577796936035156,0.05981353297829628
1761315258776567800,0.81756787109375,0.727892279624939,-0.4298938512802124,0.04413097724318504
1761315258786615800,0.82761572265625,0.6344302296638489,-0.3212589919567108,0.04721784591674805
1761315258796662800,0.837662841796875,0.47655802965164185,-0.14683738350868225,0.040642235428094864
1761315258806709800,0.847709716796875,0.3090582489967346,-0.008930910378694534,-0.007720503956079483
1761315258816757800,0.8577578125,0.15915529429912567,0.061886269599199295,-0.08744516223669052
1761315258826805000,0.867804931640625,0.0592164508998394,0.020262660458683968,-0.2062482386827469
1761315258836851700,0.877851806640625,0.037931669503450394,-0.1604868769645691,-0.3668941259384155
1761315258846898700,0.887898681640625,0.0658666342496872,-0.4206654727458954,-0.5457187294960022
1761315258856946700,0.89794677734375,0.12017460912466049,-0.685164749622345,-0.6886753439903259
1761315258866993700,0.90799365234375,0.16548269987106323,-0.9172863960266113,-0.7744776010513306
1761315258877041000,0.918041015625,0.18783648312091827,-1.0674705505371094,-0.7934308052062988
1761315258887089000,0.9280888671875,0.182536780834198,-1.1020957231521606,-0.7553867101669312
1761315258897135600,0.938135498046875,0.13929930329322815,-1.0258187055587769,-0.6726199388504028
1761315258907182600,0.9481826171875,0.07419220358133316,-0.8649675250053406,-0.5800774693489075
1761315258917230800,0.95823095703125,0.01623915694653988,-0.6430152058601379,-0.5169549584388733
1761315258927277800,0.96827783203125,-0.02081420086324215,-0.43359431624412537,-0.43270614743232727
1761315258937324800,0.97832470703125,-0.021979600191116333,-0.22339633107185364,-0.3431216776371002
1761315258947372800,0.988372802734375,-0.017049556598067284,-0.030253509059548378,-0.27062883973121643
1761315258957419800,0.998419677734375,-0.007464840542525053,0.15565350651741028,-0.22332070767879486
1761315258967466800,1.008466796875,0.007409979589283466,0.28494545817375183,-0.21016016602516174
1761315258977514800,1.0185146484375,0.041132789105176926,0.33289140462875366,-0.22524642944335938
1761315258987561700,1.028561767578125,0.07898642867803574,0.3539005517959595,-0.24444836378097534
1761315258997608700,1.038608642578125,0.1069493517279625,0.36582884192466736,-0.2540469169616699
1761315259007656000,1.048656005859375,0.12037594616413116,0.3510834574699402,-0.2461828738451004
1761315259017703700,1.05870361328125,0.12694889307022095,0.30418306589126587,-0.21892090141773224
1761315259027750700,1.068750732421875,0.1219530701637268,0.22327889502048492,-0.16966547071933746
1761315259037797600,1.078797607421875,0.11858310550451279,0.12459199875593185,-0.10975951701402664
1761315259047846000,1.088845947265625,0.13192793726921082,0.01654568687081337,-0.0586225651204586
1761315259057892900,1.098892822265625,0.1371474713087082,-0.038547925651073456,-0.004786765668541193
1761315259067939800,1.10893994140625,0.13611096143722534,-0.015839949250221252,0.0531281977891922
1761315259077987600,1.118987548828125,0.1322440505027771,0.023968715220689774,0.08113879710435867
1761315259088034800,1.129034912109375,0.12514540553092957,0.0634242445230484,0.07764765620231628
1761315259098081800,1.139081787109375,0.11449968069791794,0.09537951648235321,0.03418939560651779
1761315259108129800,1.1491298828125,0.10128694027662277,0.0997079536318779,-0.03321707621216774
1761315259118176800,1.1591767578125,0.09043056517839432,0.053819820284843445,-0.10052527487277985
1761315259128224000,1.16922412109375,0.06591376662254333,-0.0620332770049572,-0.14349165558815002
1761315259138271000,1.17927099609375,0.027710456401109695,-0.18877257406711578,-0.12976917624473572
1761315259148318700,1.189318603515625,-0.040348753333091736,-0.24684466421604156,-0.06679900735616684
1761315259158365700,1.19936572265625,-0.12345296144485474,-0.2586171627044678,0.0042131207883358
1761315259168412700,1.20941259765625,-0.20015838742256165,-0.23236480355262756,0.06181702762842178
1761315259178461000,1.2194609375,-0.24501241743564606,-0.19499026238918304,0.08318303525447845
1761315259188508000,1.2295078125,-0.2675323784351349,-0.18041744828224182,0.06986589729785919
1761315259198555000,1.239554931640625,-0.2815462052822113,-0.19360116124153137,0.028808211907744408
1761315259208602600,1.2496025390625,-0.30985134840011597,-0.17253528535366058,0.006749249063432217
1761315259218649900,1.25964990234375,-0.36593350768089294,-0.10460177809000015,0.004293548408895731
1761315259228696800,1.26969677734375,-0.4249393045902252,-0.06391613185405731,0.004157194402068853
1761315259238744800,1.279744873046875,-0.4543491303920746,-0.062307581305503845,0.03129134327173233
1761315259248791800,1.289791748046875,-0.4680763781070709,0.020505808293819427,0.09722615033388138
1761315259258838800,1.2998388671875,-0.4543832242488861,0.13923458755016327,0.1662805825471878
1761315259268886800,1.30988671875,-0.43720635771751404,0.1815974861383438,0.1961684376001358
1761315259278933800,1.319933837890625,-0.42198559641838074,0.19084212183952332,0.195871502161026
1761315259288980700,1.329980712890625,-0.42000821232795715,0.21067121624946594,0.17829570174217224
1761315259299027700,1.34002783203125,-0.41996824741363525,0.1838502585887909,0.15083159506320953
1761315259309075700,1.35007568359375,-0.4301077127456665,0.08363177627325058,0.11245756596326828
1761315259319122700,1.360122802734375,-0.4636763036251068,-0.029286783188581467,0.08473486453294754
1761315259329169700,1.370169677734375,-0.49880102276802063,-0.11344213783740997,0.07307953387498856
1761315259339217700,1.3802177734375,-0.539007842540741,-0.15270645916461945,0.06752338260412216
1761315259349265200,1.39026513671875,-0.5745993852615356,-0.16581426560878754,0.0595133937895298
1761315259359312100,1.40031201171875,-0.6095882654190063,-0.16946172714233398,0.04701384902000427
1761315259369360000,1.41035986328125,-0.6349934935569763,-0.17303650081157684,0.015260179527103901
1761315259379406800,1.42040673828125,-0.6557629108428955,-0.1644640415906906,-0.030552849173545837
1761315259389454000,1.4304541015625,-0.6701580882072449,-0.14684270322322845,-0.07034793496131897
1761315259399501000,1.4405009765625,-0.666253924369812,-0.12110858410596848,-0.09325111657381058
1761315259409549000,1.450549072265625,-0.6654637455940247,-0.09106545895338058,-0.08174093812704086
1761315259419596000,1.460595947265625,-0.6690962910652161,-0.00917166005820036,-0.01823173463344574
1761315259429643000,1.47064306640625,-0.6720635890960693,0.11494549363851547,0.09108969569206238
1761315259439691000,1.48069091796875,-0.6739184856414795,0.24874217808246613,0.21116283535957336
1761315259449738000,1.490738037109375,-0.6646674871444702,0.35322409868240356,0.3367484509944916
1761315259459785000,1.500784912109375,-0.6483372449874878,0.42276909947395325,0.461419016122818
1761315259469833200,1.510833251953125,-0.6233698129653931,0.44699373841285706,0.5807387828826904
1761315259479880200,1.520880126953125,-0.5875921249389648,0.3907102346420288,0.6838768720626831
1761315259489927200,1.53092724609375,-0.5468548536300659,0.2523480951786041,0.7630763649940491
1761315259499975000,1.540974853515625,-0.5083630681037903,0.10378845036029816,0.803583025932312
1761315259510022000,1.55102197265625,-0.4769558906555176,-0.007783354725688696,0.7979198098182678
1761315259520069000,1.561069091796875,-0.46038252115249634,-0.07992812246084213,0.7363216876983643
1761315259530117000,1.5711171875,-0.4461878836154938,-0.13107731938362122,0.6041474342346191
1761315259540164000,1.5811640625,-0.44622594118118286,-0.18330617249011993,0.3976384401321411
1761315259550211000,1.591211181640625,-0.46362999081611633,-0.23952870070934296,0.12840457260608673
1761315259560259000,1.601259033203125,-0.4903702437877655,-0.2811025083065033,-0.16329704225063324
1761315259570306000,1.61130615234375,-0.533477783203125,-0.2887907922267914,-0.45555979013442993
1761315259580353000,1.62135302734375,-0.5767788887023926,-0.2722059488296509,-0.7095665335655212
1761315259590400000,1.63139990234375,-0.6007654666900635,-0.27767422795295715,-0.8989260792732239
1761315259600448300,1.6414482421875,-0.6064987182617188,-0.27285364270210266,-0.9916656017303467
1761315259610495000,1.651494873046875,-0.6027266383171082,-0.17971090972423553,-0.9762426614761353
1761315259620542000,1.6615419921875,-0.5711183547973633,-0.016387762501835823,-0.8835987448692322
1761315259630590000,1.67158984375,-0.5108499526977539,0.1373850256204605,-0.7408629059791565
1761315259640637000,1.681636962890625,-0.4178329408168793,0.2405470907688141,-0.5806905627250671
1761315259650684200,1.69168408203125,-0.3147968351840973,0.2665584683418274,-0.41897356510162354
1761315259660732000,1.70173193359375,-0.21921756863594055,0.2060314565896988,-0.27476897835731506
1761315259670779000,1.71177880859375,-0.14004819095134735,0.08401767164468765,-0.15134690701961517
1761315259680825900,1.721825927734375,-0.07683965563774109,-0.06833964586257935,-0.06583067774772644
1761315259690874000,1.7318740234375,-0.03711860626935959,-0.2191390097141266,-0.01979234628379345
1761315259700921000,1.741921142578125,-0.0153150400146842,-0.3562483787536621,0.000675377668812871
1761315259710968000,1.751968017578125,-0.019995812326669693,-0.4449297785758972,-0.009500826708972454
1761315259721015800,1.762015869140625,-0.06406579911708832,-0.47242027521133423,-0.037027791142463684
1761315259731063000,1.77206298828125,-0.11116567254066467,-0.4619561731815338,-0.06946269422769547
1761315259741110000,1.782110107421875,-0.1610780954360962,-0.39062872529029846,-0.09195442497730255
1761315259751157000,1.792156982421875,-0.21060970425605774,-0.2953086197376251,-0.10825110226869583
1761315259761205000,1.802205078125,-0.2617304027080536,-0.2092759907245636,-0.12587936222553253
1761315259771252000,1.812251953125,-0.29615309834480286,-0.13926281034946442,-0.16116945445537567
1761315259781299200,1.82229931640625,-0.3185763955116272,-0.07740690559148788,-0.2163141965866089
1761315259791347000,1.832346923828125,-0.30745580792427063,-0.02087412215769291,-0.2867515981197357
1761315259801394000,1.842393798828125,-0.3006674349308014,0.04337863251566887,-0.3698209226131439
1761315259811441000,1.85244091796875,-0.2725234031677246,0.10699063539505005,-0.45537257194519043
1761315259821489200,1.8624892578125,-0.2181539088487625,0.13840048015117645,-0.5160380601882935
1761315259831536000,1.8725361328125,-0.1497274488210678,0.1479164958000183,-0.5353518128395081
1761315259841583000,1.8825830078125,-0.08583740890026093,0.13612401485443115,-0.5133253335952759
1761315259851630800,1.892630859375,-0.039389751851558685,0.10820023715496063,-0.45899420976638794
1761315259861678000,1.902677978515625,-0.0012562130577862263,0.06827758997678757,-0.3926545977592468
1761315259871725000,1.91272509765625,0.03750716149806976,0.054127149283885956,-0.32249361276626587
1761315259881773000,1.92277294921875,0.06109850853681564,0.04843571037054062,-0.24500522017478943
1761315259891820000,1.932820068359375,0.07793235033750534,0.005791842471808195,-0.1605132520198822
1761315259901867000,1.942866943359375,0.07701142877340317,-0.03453986719250679,-0.07950761169195175
1761315259911914000,1.9529140625,0.09283646196126938,-0.06987815350294113,-0.01726420782506466
1761315259921962000,1.9629619140625,0.13446193933486938,-0.11000373214483261,0.014689197763800621
1761315259932009000,1.973009033203125,0.19811415672302246,-0.15401673316955566,0.026089923456311226
1761315259942056000,1.983055908203125,0.26097699999809265,-0.1968182623386383,0.03982411324977875
1761315259952104200,1.993104248046875,0.3015310764312744,-0.2629309594631195,0.044261738657951355
1761315259962151200,2.003151123046875,0.31660884618759155,-0.3354909121990204,0.035357989370822906
1761315259972198000,2.013197998046875,0.314405620098114,-0.38270795345306396,0.03293797746300697
1761315259982246000,2.023245849609375,0.3036693334579468,-0.42869144678115845,0.019581157714128494
1761315259992293000,2.033293212890625,0.2772369384765625,-0.5007970333099365,0.009562079794704914
1761315260002340000,2.043340087890625,0.23576273024082184,-0.5655574202537537,0.023927703499794006
1761315260012388000,2.05338818359375,0.17918679118156433,-0.5639826655387878,0.0753493458032608
1761315260022435000,2.06343505859375,0.11187487095594406,-0.49072709679603577,0.1465071439743042
1761315260032481800,2.073481689453125,0.050686080008745193,-0.35570618510246277,0.23182204365730286
1761315260042530000,2.083530029296875,0.015843944624066353,-0.19650933146476746,0.311947226524353
1761315260052577000,2.093576904296875,0.002572613535448909,-0.05940020829439163,0.36455026268959045
1761315260062624000,2.1036240234375,0.01290567871183157,0.01847647875547409,0.37571850419044495
1761315260072672300,2.11367236328125,0.04749295115470886,0.03455371409654617,0.333431214094162
1761315260082719000,2.123718994140625,0.10309123247861862,0.011990349739789963,0.2581996023654938
1761315260092766000,2.133765869140625,0.144185408949852,-0.025719745084643364,0.1656363606452942
1761315260102813000,2.14381298828125,0.15296505391597748,-0.07596320658922195,0.0676935613155365
1761315260112861000,2.15386083984375,0.12508521974086761,-0.12668870389461517,-0.022656310349702835
1761315260122908200,2.163908203125,0.07614190876483917,-0.14639556407928467,-0.09040340036153793
1761315260132955100,2.173955078125,0.016448747366666794,-0.12328758090734482,-0.12601785361766815
1761315260143003000,2.1840029296875,-0.03317100182175636,-0.055870190262794495,-0.11500035226345062
1761315260153049900,2.1940498046875,-0.06342238187789917,0.02112286165356636,-0.06587062776088715
1761315260163097000,2.20409716796875,-0.07271228730678558,0.1022840291261673,0.01561145018786192
1761315260173145000,2.21414501953125,-0.05585181340575218,0.17111581563949585,0.10539193451404572
1761315260183192000,2.224192138671875,-0.0177579578012228,0.23706553876399994,0.19312551617622375
1761315260193239000,2.234239013671875,0.041847050189971924,0.31569963693618774,0.25261759757995605
1761315260203287000,2.244287109375,0.1119971051812172,0.3973385691642761,0.29141321778297424
1761315260213334000,2.254333984375,0.18232452869415283,0.44696763157844543,0.3055140972137451
1761315260223381000,2.264381103515625,0.2544304132461548,0.4186649024486542,0.2893756330013275
1761315260233429000,2.274428955078125,0.30967289209365845,0.29547905921936035,0.2742440700531006
1761315260243476000,2.28447607421875,0.34919819235801697,0.15213946998119354,0.2601564824581146
1761315260253523200,2.294523193359375,0.3721615672111511,0.0052171326242387295,0.24504224956035614
1761315260263571000,2.304571044921875,0.3912452459335327,-0.12027128040790558,0.22653193771839142
1761315260273618000,2.314617919921875,0.4066963791847229,-0.20430946350097656,0.2045360952615738
1761315260283665000,2.324664794921875,0.42033976316452026,-0.243523970246315,0.160045325756073
1761315260293712100,2.334712158203125,0.41760414838790894,-0.27339985966682434,0.09267614036798477
1761315260303760100,2.344760009765625,0.4028334617614746,-0.31377843022346497,0.0070645674131810665
1761315260313807000,2.35480712890625,0.38417190313339233,-0.38520094752311707,-0.09692788124084473
1761315260323854000,2.36485400390625,0.3425259292125702,-0.48281538486480713,-0.20315098762512207
1761315260333902000,2.374902099609375,0.2795379161834717,-0.5435282588005066,-0.2938827574253082
1761315260343948800,2.38494873046875,0.20824161171913147,-0.5120899081230164,-0.35566437244415283
1761315260353995800,2.394995849609375,0.15290778875350952,-0.4053696095943451,-0.3893970251083374
1761315260364044000,2.4050439453125,0.11547119915485382,-0.2514127790927887,-0.3933046758174896
1761315260374091000,2.415091064453125,0.09808901697397232,-0.08299102634191513,-0.3625393211841583
1761315260384138000,2.425137939453125,0.09628552198410034,0.09792176634073257,-0.3104017972946167
1761315260394186000,2.43518603515625,0.09578245133161545,0.26865383982658386,-0.24071407318115234
1761315260404233000,2.44523291015625,0.10444758087396622,0.3820248544216156,-0.1844944804906845
1761315260414280000,2.455280029296875,0.11497718840837479,0.41695141792297363,-0.14596812427043915
1761315260424328000,2.465327880859375,0.13318495452404022,0.38824573159217834,-0.11139896512031555
1761315260434375000,2.475375,0.135218545794487,0.3322836756706238,-0.06712231040000916
1761315260444422000,2.485421875,0.11843769997358322,0.24686305224895477,-0.014158429577946663
1761315260454468900,2.49546875,0.08736926317214966,0.1246013194322586,0.032817333936691284
1761315260464516900,2.505516845703125,0.06960251182317734,-0.01563781499862671,0.08606351166963577
1761315260474563800,2.515563720703125,0.056242235004901886,-0.13693708181381226,0.13909929990768433
1761315260484610800,2.52561083984375,0.0511513352394104,-0.22263413667678833,0.17964991927146912
1761315260494659000,2.5356591796875,0.043237753212451935,-0.2568131387233734,0.2170899659395218
1761315260504705800,2.545705810546875,0.04242468997836113,-0.21855418384075165,0.24318362772464752
1761315260514752800,2.555752685546875,0.04848764091730118,-0.1491767019033432,0.25079625844955444
1761315260524801000,2.565801025390625,0.05975547432899475,-0.0613270066678524,0.2375212162733078
1761315260534848000,2.575847900390625,0.08168794214725494,0.02810034342110157,0.20077544450759888
1761315260544895000,2.58589501953125,0.11837484687566757,0.07959522306919098,0.12578615546226501
1761315260554942700,2.595942626953125,0.15655285120010376,0.09131260216236115,0.044297955930233
1761315260564989700,2.60598974609375,0.19157741963863373,0.07931879162788391,-0.022071747109293938
1761315260575037000,2.616036865234375,0.20448149740695953,0.05194921791553497,-0.05561772361397743
1761315260585085000,2.6260849609375,0.1808965504169464,0.025675002485513687,-0.07025152444839478
1761315260595132000,2.6361318359375,0.13579298555850983,-0.0123070003464818,-0.07595468312501907
1761315260605179000,2.646178955078125,0.08388397842645645,-0.05443394556641579,-0.06042606011033058
1761315260615227000,2.656226806640625,0.030833812430500984,-0.07628332078456879,-0.022306105121970177
1761315260625273900,2.66627392578125,-0.016635170206427574,-0.06310386955738068,0.02810753509402275
1761315260635320800,2.67632080078125,-0.06233448162674904,-0.053887467831373215,0.07629423588514328
1761315260645368800,2.686368896484375,-0.09751004725694656,-0.05434020236134529,0.11918418109416962
1761315260655416000,2.696416015625,-0.1224106028676033,-0.059061188250780106,0.16433727741241455
1761315260665463000,2.706463134765625,-0.12936943769454956,-0.06748823076486588,0.1899086833000183
1761315260675510000,2.716510009765625,-0.1272311955690384,-0.08064398169517517,0.20257973670959473
1761315260685557800,2.726557861328125,-0.12184014916419983,-0.0924748033285141,0.19848912954330444
1761315260695604700,2.736604736328125,-0.11618253588676453,-0.11581022292375565,0.17635132372379303
1761315260705652000,2.74665185546875,-0.12010803073644638,-0.1454695761203766,0.14872077107429504
1761315260715700000,2.756699951171875,-0.122255340218544,-0.15461114048957825,0.12818646430969238
1761315260725747000,2.766746826171875,-0.1182776391506195,-0.11243066936731339,0.12237171828746796
1761315260735794000,2.7767939453125,-0.1187005490064621,-0.10576744377613068,0.11270418018102646
1761315260745842000,2.786842041015625,-0.12932683527469635,-0.1420532763004303,0.08939113467931747
1761315260755889000,2.796888916015625,-0.14406529068946838,-0.15679174661636353,0.07345318049192429
1761315260765935900,2.806935791015625,-0.16078755259513855,-0.16010898351669312,0.05169009044766426
1761315260775983900,2.81698388671875,-0.17872659862041473,-0.16812269389629364,0.011627893894910812
1761315260786031000,2.827031005859375,-0.20556168258190155,-0.158362478017807,-0.055143412202596664
1761315260796078000,2.837078125,-0.22975251078605652,-0.14559900760650635,-0.131184384226799
1761315260806125800,2.847125732421875,-0.24695917963981628,-0.1227557435631752,-0.20960275828838348
1761315260816172800,2.8571728515625,-0.25639608502388,-0.0917818546295166,-0.2790422737598419
1761315260826219800,2.8672197265625,-0.26592808961868286,-0.07179483026266098,-0.3406212329864502
1761315260836267000,2.87726708984375,-0.2765953838825226,-0.0722920373082161,-0.3962722420692444
1761315260846315000,2.88731494140625,-0.28876760601997375,-0.053279731422662735,-0.43344998359680176
1761315260856362000,2.897362060546875,-0.29957765340805054,0.013790114782750607,-0.4328555464744568
1761315260866408700,2.90740869140625,-0.3215188980102539,0.1177641823887825,-0.407025009393692
1761315260876457000,2.91745703125,-0.3313845992088318,0.24074256420135498,-0.3605746924877167
1761315260886504000,2.92750390625,-0.35047438740730286,0.3665359318256378,-0.303987056016922
1761315260896551000,2.937551025390625,-0.35147812962532043,0.4657229483127594,-0.23753878474235535
1761315260906599000,2.947598876953125,-0.33823904395103455,0.5108187794685364,-0.17284314334392548
1761315260916646000,2.95764599609375,-0.339884877204895,0.4665658473968506,-0.11453510075807571
1761315260926692900,2.96769287109375,-0.3303491473197937,0.30924466252326965,-0.048118527978658676
1761315260936740900,2.977740966796875,-0.31637129187583923,0.11967793107032776,0.06270705908536911
1761315260946787800,2.987787841796875,-0.3025529384613037,-0.04013516753911972,0.19835276901721954
1761315260956834800,2.997834716796875,-0.31154483556747437,-0.15053598582744598,0.3426010310649872
1761315260966883000,3.007883056640625,-0.31937214732170105,-0.22562727332115173,0.4790491461753845
1761315260976929800,3.0179296875,-0.3342602849006653,-0.2833597958087921,0.5751357078552246
1761315260986976800,3.027976806640625,-0.3429749310016632,-0.34824293851852417,0.6109936237335205
1761315260997025000,3.03802490234375,-0.3477126955986023,-0.4231107831001282,0.5677334666252136
1761315261007072000,3.048072021484375,-0.3496032655239105,-0.48217782378196716,0.4591617286205292
1761315261017119000,3.058118896484375,-0.3596210181713104,-0.5096089243888855,0.28543972969055176
1761315261027166000,3.068166015625,-0.3737586736679077,-0.5119205713272095,0.06722963601350784
1761315261037213700,3.078213623046875,-0.39258694648742676,-0.4983847737312317,-0.1890420913696289
1761315261047261000,3.088260986328125,-0.40851107239723206,-0.47378966212272644,-0.45044413208961487
1761315261057308000,3.098307861328125,-0.4359344244003296,-0.42399123311042786,-0.6826845407485962
1761315261067356000,3.10835595703125,-0.4654790163040161,-0.325766384601593,-0.869482696056366
1761315261077403000,3.11840283203125,-0.5019350051879883,-0.19318810105323792,-1.0028804540634155
1761315261087449900,3.128449951171875,-0.5163163542747498,-0.02599564753472805,-1.0604931116104126
1761315261097497900,3.138497802734375,-0.5161323547363281,0.18152105808258057,-1.0388400554656982
1761315261107544800,3.148544921875,-0.4957391917705536,0.4048324525356293,-0.9435963034629822
1761315261117591800,3.158591796875,-0.45375844836235046,0.5693324208259583,-0.8086206316947937
1761315261127640000,3.16864013671875,-0.39563414454460144,0.6616674065589905,-0.6523724794387817
1761315261137687000,3.17868701171875,-0.30541345477104187,0.6728359460830688,-0.5072381496429443
1761315261147734000,3.188734130859375,-0.20740139484405518,0.5955477952957153,-0.3935435712337494
1761315261157781800,3.19878173828125,-0.10883992910385132,0.448901891708374,-0.30966463685035706
1761315261167828700,3.208828857421875,-0.029396237805485725,0.26933878660202026,-0.257663756608963
1761315261177876000,3.2188759765625,0.03189881145954132,0.055329568684101105,-0.2344077080488205
1761315261187924000,3.228924072265625,0.0790945515036583,-0.14848214387893677,-0.23187664151191711
1761315261197971000,3.238970947265625,0.09278612583875656,-0.30612316727638245,-0.2463834136724472
1761315261208018000,3.249017822265625,0.08377213031053543,-0.4131481647491455,-0.273611843585968
1761315261218065000,3.25906494140625,0.057859838008880615,-0.4544370174407959,-0.3147755265235901
1761315261228113000,3.26911279296875,0.019033079966902733,-0.44452258944511414,-0.37592995166778564
1761315261238160000,3.279159912109375,-0.016508135944604874,-0.4029157757759094,-0.44813650846481323
1761315261248206800,3.289206787109375,-0.05066797137260437,-0.3470602333545685,-0.5198626518249512
1761315261258255000,3.299255126953125,-0.06596756726503372,-0.279141366481781,-0.5741636753082275
1761315261268302000,3.309302001953125,-0.06902540475130081,-0.21813127398490906,-0.6112873554229736
1761315261278348800,3.319348876953125,-0.04277196526527405,-0.1693810373544693,-0.622394859790802
1761315261288396800,3.329396728515625,0.001255946815945208,-0.14113874733448029,-0.6025505661964417
1761315261298443800,3.33944384765625,0.05812615528702736,-0.13035720586776733,-0.5454193949699402
1761315261308491000,3.349490966796875,0.10517276078462601,-0.1331591159105301,-0.4549262225627899
1761315261318539000,3.3595390625,0.15042945742607117,-0.12799498438835144,-0.3304396867752075
1761315261328586000,3.3695859375,0.18539541959762573,-0.10525957494974136,-0.174725741147995
1761315261338632700,3.3796328125,0.21078839898109436,-0.07540154457092285,-0.02045920304954052
1761315261348684800,3.389684814453125,0.23680108785629272,-0.04927780106663704,0.11496254056692123
1761315261358731800,3.399731689453125,0.25243836641311646,-0.01895531453192234,0.22641529142856598
1761315261368778800,3.40977880859375,0.2666407525539398,0.019944412633776665,0.3044632375240326
1761315261378826800,3.41982666015625,0.2864759564399719,0.04934651032090187,0.3394894003868103
1761315261388873700,3.429873779296875,0.30142563581466675,0.07942957431077957,0.36259016394615173
1761315261398920700,3.439920654296875,0.3080073595046997,0.108182393014431,0.37500637769699097
1761315261408967700,3.4499677734375,0.30695781111717224,0.1278732717037201,0.3799111247062683
1761315261419016000,3.460015869140625,0.29641807079315186,0.14410044252872467,0.38130155205726624
1761315261429063000,3.47006298828125,0.2810910642147064,0.1448296159505844,0.3826754689216614
1761315261439110000,3.48010986328125,0.26161643862724304,0.16161739826202393,0.3846267759799957
1761315261449157600,3.49015771484375,0.24478258192539215,0.18737122416496277,0.38938531279563904
1761315261459204600,3.50020458984375,0.21902528405189514,0.20694492757320404,0.3955044448375702
1761315261469251800,3.510251953125,0.18526147305965424,0.21347500383853912,0.39673349261283875
1761315261479299800,3.5202998046875,0.14019279181957245,0.2343597710132599,0.3877543807029724
1761315261489346800,3.530346923828125,0.10054951161146164,0.26897579431533813,0.3851125240325928
1761315261499393800,3.540393798828125,0.06547994166612625,0.2610289454460144,0.37397173047065735
1761315261509441800,3.55044189453125,0.03873754292726517,0.17311851680278778,0.33375266194343567
1761315261519488800,3.56048876953125,0.015151788480579853,0.04403457045555115,0.26074716448783875
1761315261529535700,3.57053564453125,-0.007358314003795385,-0.11302615702152252,0.14618544280529022
1761315261539583700,3.580583740234375,-0.013653760775923729,-0.3187015652656555,-0.01426255889236927
1761315261549631000,3.590630859375,-0.009483249858021736,-0.5319659113883972,-0.19284801185131073
1761315261559678000,3.600677978515625,-0.02153991349041462,-0.7043924927711487,-0.35924044251441956
1761315261569725700,3.6107255859375,-0.04658534377813339,-0.813442587852478,-0.4667719602584839
1761315261579772700,3.620772705078125,-0.08664035052061081,-0.805598795413971,-0.5008862614631653
1761315261589819600,3.630819580078125,-0.13195110857486725,-0.6975002884864807,-0.4584676921367645
1761315261599867000,3.640866943359375,-0.16811390221118927,-0.528926432132721,-0.3564779460430145
1761315261609915000,3.650914794921875,-0.19023466110229492,-0.3286133110523224,-0.20426365733146667
1761315261619961900,3.6609619140625,-0.1725906878709793,-0.12236879020929337,-0.02562946267426014
1761315261630008600,3.671008544921875,-0.12983974814414978,0.05554768070578575,0.15007764101028442
1761315261640056800,3.681056884765625,-0.07741037011146545,0.17049238085746765,0.303131103515625
1761315261650103800,3.691103759765625,-0.012974920682609081,0.22570103406906128,0.4187498390674591
1761315261660150800,3.70115087890625,0.044678520411252975,0.24132899940013885,0.49741217494010925
1761315261670198800,3.71119873046875,0.09629005193710327,0.2127697914838791,0.5566134452819824
1761315261680245800,3.721245849609375,0.13284939527511597,0.16184109449386597,0.5981398224830627
1761315261690292700,3.731292724609375,0.15258900821208954,0.10438739508390427,0.6376779675483704
1761315261700340700,3.7413408203125,0.14551804959774017,0.07106885313987732,0.6777880787849426
1761315261710387700,3.7513876953125,0.12093441188335419,0.07934142649173737,0.7080996632575989
1761315261720434700,3.7614345703125,0.09440666437149048,0.07639703899621964,0.7052002549171448
1761315261730483000,3.77148291015625,0.07218577712774277,0.03050118312239647,0.6541080474853516
1761315261740529700,3.78152978515625,0.0702376738190651,-0.05403260886669159,0.5517960786819458
1761315261750576600,3.79157666015625,0.08529438823461533,-0.18696776032447815,0.4108988642692566
1761315261760623600,3.80162353515625,0.10774670541286469,-0.3546281158924103,0.2435162514448166
1761315261770671900,3.811671875,0.12665754556655884,-0.5343115925788879,0.06083645299077034
1761315261780718800,3.82171875,0.13403689861297607,-0.6952815651893616,-0.12659336626529694
1761315261790765800,3.831765869140625,0.1263347715139389,-0.8192901015281677,-0.3122822642326355
1761315261800813600,3.8418134765625,0.08869311958551407,-0.9339282512664795,-0.5167531371116638
1761315261810860800,3.85186083984375,0.015485215932130814,-1.0577455759048462,-0.7209637761116028
1761315261820907800,3.86190771484375,-0.0957891121506691,-1.1491601467132568,-0.8801227807998657
1761315261830955800,3.871955810546875,-0.22153106331825256,-1.172911286354065,-0.9527525305747986
1761315261841002800,3.882002685546875,-0.3594617545604706,-1.088644027709961,-0.9247464537620544
1761315261851049700,3.8920498046875,-0.48503461480140686,-0.8762918710708618,-0.8212528228759766
1761315261861097700,3.90209765625,-0.6067312359809875,-0.6035671234130859,-0.664545476436615
1761315261871144700,3.912144775390625,-0.7019421458244324,-0.3026892840862274,-0.4615553617477417
1761315261881191700,3.922191650390625,-0.771227240562439,0.0006684534018859267,-0.23333445191383362
1761315261891240000,3.932239990234375,-0.8219316601753235,0.31350359320640564,-0.009849967435002327
1761315261901287000,3.942286865234375,-0.8586004376411438,0.6311928629875183,0.19695967435836792
1761315261911334000,3.952333984375,-0.872919499874115,0.8572095036506653,0.364658385515213
1761315261921380900,3.962380859375,-0.8890070915222168,0.9598250985145569,0.47402694821357727
1761315261931428600,3.9724287109375,-0.9121305346488953,0.979920506477356,0.5262800455093384
1761315261941475800,3.982475830078125,-0.9366875290870667,0.9361549019813538,0.5362874269485474
1761315261951522800,3.992522705078125,-0.9708417654037476,0.8337289094924927,0.5050439834594727
1761315261961570800,4.00257080078125,-1.0202958583831787,0.702865481376648,0.44201257824897766
1761315261971617800,4.01261767578125,-1.1036275625228882,0.5449381470680237,0.37349769473075867
1761315261981665000,4.0226650390625,-1.2147575616836548,0.34961047768592834,0.3094840943813324
1761315261991712800,4.032712646484375,-1.345506191253662,0.14741341769695282,0.28023165464401245
1761315262001759700,4.042759765625,-1.4813101291656494,-0.03580620139837265,0.28322717547416687
1761315262011806700,4.052806640625,-1.6129482984542847,-0.21966445446014404,0.2955421805381775
1761315262021855000,4.06285498046875,-1.7283220291137695,-0.39065057039260864,0.29806071519851685
1761315262031902000,4.07290185546875,-1.8336948156356812,-0.5486205220222473,0.28174805641174316
1761315262041948700,4.08294873046875,-1.9318023920059204,-0.6845889687538147,0.23921099305152893
1761315262051996700,4.09299658203125,-2.018113374710083,-0.791038453578949,0.1986880600452423
1761315262062043600,4.103043701171875,-2.102865695953369,-0.8308053016662598,0.1777564138174057
1761315262072091000,4.1130908203125,-2.1795687675476074,-0.8375343084335327,0.17001380026340485
1761315262082137900,4.123137939453125,-2.235236883163452,-0.8316391706466675,0.1788131594657898
1761315262092185900,4.133185791015625,-2.2778353691101074,-0.8416411876678467,0.19441261887550354
1761315262102232600,4.143232666015625,-2.3269267082214355,-0.8718504905700684,0.1904306709766388
1761315262112279800,4.15327978515625,-2.391179323196411,-0.9478046298027039,0.15535283088684082
1761315262122327800,4.163327880859375,-2.482492208480835,-1.0658769607543945,0.10166724026203156
1761315262132374800,4.173374755859375,-2.590466260910034,-1.2008349895477295,0.03424718603491783
1761315262142421800,4.183421875,-2.7097976207733154,-1.3267463445663452,-0.04097699373960495
1761315262152469800,4.1934697265625,-2.8182053565979004,-1.4554731845855713,-0.1222500130534172
1761315262162516700,4.203516845703125,-2.9181840419769287,-1.5529056787490845,-0.2063411921262741
1761315262172563700,4.213563720703125,-3.0075929164886475,-1.5995984077453613,-0.27366963028907776
1761315262182611700,4.22361181640625,-3.0918221473693848,-1.5896624326705933,-0.2957078218460083
1761315262192658700,4.23365869140625,-3.173487663269043,-1.5572011470794678,-0.2513624429702759
1761315262202706000,4.243705810546875,-3.235363006591797,-1.4210706949234009,-0.1202680841088295
1761315262212753700,4.253753662109375,-3.2696785926818848,-1.1961265802383423,0.06639260798692703
1761315262222800600,4.263800537109375,-3.2865540981292725,-1.0489898920059204,0.22918765246868134
1761315262232847600,4.27384765625,-3.289890766143799,-1.071521282196045,0.2995915114879608
1761315262242894800,4.283894775390625,-3.2954061031341553,-1.2279590368270874,0.29870253801345825
1761315262252942800,4.29394287109375,-3.295924186706543,-1.4022091627120972,0.2591298222541809
1761315262262989800,4.30398974609375,-3.313843250274658,-1.5652964115142822,0.21805483102798462
1761315262273036800,4.314036865234375,-3.357970714569092,-1.7057682275772095,0.19080351293087006
1761315262283084800,4.324084716796875,-3.44122576713562,-1.7890870571136475,0.18892411887645721
1761315262293131800,4.3341318359375,-3.5398340225219727,-1.807173728942871,0.19676339626312256
1761315262303178800,4.3441787109375,-3.6258046627044678,-1.805010437965393,0.19699189066886902
1761315262313226800,4.354226806640625,-3.6893177032470703,-1.805915355682373,0.18108722567558289
1761315262323273700,4.364273681640625,-3.7300567626953125,-1.788670301437378,0.17171050608158112
1761315262333321000,4.374321044921875,-3.755466938018799,-1.7592519521713257,0.179133802652359
1761315262343365000,4.384365234375,-3.775277614593506,-1.731426477432251,0.21052022278308868
1761315262353412400,4.394412353515625,-3.796081304550171,-1.7142027616500854,0.26445749402046204
1761315262363459300,4.404459228515625,-3.813511610031128,-1.677106261253357,0.33725473284721375
1761315262373507300,4.41450732421875,-3.828587055206299,-1.6352914571762085,0.38932856917381287
1761315262383554300,4.42455419921875,-3.840017080307007,-1.59267258644104,0.4077094495296478
1761315262393601300,4.434601318359375,-3.844456195831299,-1.5681999921798706,0.3829875886440277
1761315262403648300,4.444648193359375,-3.8494725227355957,-1.5658819675445557,0.3059905469417572
1761315262413696300,4.4546962890625,-3.8471901416778564,-1.6036455631256104,0.2029091715812683
1761315262423743200,4.4647431640625,-3.84144926071167,-1.6700304746627808,0.08288449794054031
1761315262433790200,4.474790283203125,-3.8321573734283447,-1.7491769790649414,-0.02732270024716854
1761315262443838500,4.48483837890625,-3.831247329711914,-1.8212679624557495,-0.1169615089893341
1761315262453885400,4.494885498046875,-3.837033271789551,-1.9031319618225098,-0.18278872966766357
1761315262463932200,4.50493212890625,-3.831634521484375,-2.0245895385742188,-0.22882145643234253
1761315262473980200,4.514980224609375,-3.824946641921997,-2.154399871826172,-0.24806572496891022
1761315262484027400,4.52502734375,-3.8239552974700928,-2.252094268798828,-0.2615130841732025
1761315262494074400,4.535074462890625,-3.8222813606262207,-2.2989792823791504,-0.2822207808494568
1761315262504122400,4.545122314453125,-3.8177669048309326,-2.3210580348968506,-0.3236750066280365
1761315262514169300,4.55516943359375,-3.802121639251709,-2.2997121810913086,-0.36854395270347595
1761315262524216000,4.565216064453125,-3.7607181072235107,-2.2219808101654053,-0.3898540139198303
1761315262534264300,4.575264404296875,-3.7047953605651855,-2.105295419692993,-0.3817444443702698
1761315262544311300,4.585311279296875,-3.6351964473724365,-1.9504778385162354,-0.34627991914749146
1761315262554358300,4.595358154296875,-3.543680191040039,-1.7634648084640503,-0.28831034898757935
1761315262564405200,4.6054052734375,-3.432788848876953,-1.5609232187271118,-0.23728205263614655
1761315262574453200,4.615453369140625,-3.3189711570739746,-1.3713010549545288,-0.20052377879619598
1761315262584500200,4.625500244140625,-3.199276924133301,-1.207450032234192,-0.19288316369056702
1761315262594547200,4.635547119140625,-3.0787274837493896,-1.0897551774978638,-0.20135362446308136
1761315262604595200,4.64559521484375,-2.9519546031951904,-1.0413497686386108,-0.21258896589279175
1761315262614642400,4.655642333984375,-2.812060832977295,-1.0490082502365112,-0.18719466030597687
1761315262624689400,4.665689453125,-2.6644721031188965,-1.0829912424087524,-0.12261220067739487
1761315262634737200,4.675737060546875,-2.5257768630981445,-1.1237740516662598,-0.04069682955741882
1761315262644784000,4.6857841796875,-2.3997528553009033,-1.1466690301895142,0.03518461808562279
1761315262654831000,4.6958310546875,-2.2943389415740967,-1.138236165046692,0.08755621314048767
1761315262664879400,4.70587939453125,-2.1934094429016113,-1.1277518272399902,0.10225339978933334
1761315262674926300,4.71592626953125,-2.099391460418701,-1.1166183948516846,0.08541476726531982
1761315262684973300,4.725973388671875,-2.0062174797058105,-1.0960228443145752,0.03374384716153145
1761315262695021300,4.736021240234375,-1.9168024063110352,-1.058393955230713,-0.04255225509405136
1761315262705068300,4.746068359375,-1.845510721206665,-0.9748730063438416,-0.13399988412857056
1761315262715115300,4.756115234375,-1.789056420326233,-0.8594388365745544,-0.23631159961223602
1761315262725162200,4.766162353515625,-1.7615036964416504,-0.7533600926399231,-0.34036850929260254
1761315262735210200,4.776210205078125,-1.749658226966858,-0.6703884601593018,-0.44103944301605225
1761315262745257500,4.786257568359375,-1.763198733329773,-0.5822378396987915,-0.526386022567749
1761315262755304400,4.796304443359375,-1.7668668031692505,-0.49409228563308716,-0.601850688457489
1761315262765352200,4.806352294921875,-1.745248794555664,-0.4238482117652893,-0.6731461882591248
1761315262775399200,4.816399169921875,-1.700857400894165,-0.3548041582107544,-0.7382330298423767
1761315262785446100,4.826446044921875,-1.6344996690750122,-0.3046805262565613,-0.776907742023468
1761315262795494400,4.836494384765625,-1.55106782913208,-0.2925351858139038,-0.7682207822799683
1761315262805541400,4.846541259765625,-1.4533956050872803,-0.283290296792984,-0.6876087188720703
1761315262815588400,4.85658837890625,-1.3412864208221436,-0.2573862671852112,-0.5514176487922668
1761315262825636400,4.86663623046875,-1.2116615772247314,-0.20738062262535095,-0.3740399181842804
1761315262835683300,4.876683349609375,-1.077354073524475,-0.1245587095618248,-0.17723390460014343
1761315262845730300,4.886730224609375,-0.9530654549598694,-0.0383274145424366,-0.0036967338528484106
1761315262855775200,4.896775146484375,-0.8463416695594788,0.022296782582998276,0.10483027249574661
1761315262865822200,4.906822265625,-0.7540301084518433,0.03489779680967331,0.13823403418064117
1761315262875869200,4.916869140625,-0.6831828355789185,-0.0017118799732998013,0.11164183914661407
1761315262885917200,4.926917236328125,-0.6310064792633057,-0.09466845542192459,0.04717709869146347
1761315262895964400,4.93696435546875,-0.6002869009971619,-0.24304699897766113,-0.014965101145207882
1761315262906011400,4.947011474609375,-0.5834226608276367,-0.40463775396347046,-0.07231894135475159
1761315262916059100,4.95705908203125,-0.5913336277008057,-0.5382893085479736,-0.12137170135974884
1761315262926106000,4.967106201171875,-0.6019638776779175,-0.6192499399185181,-0.1554172933101654
1761315262936153000,4.977153076171875,-0.6178839802742004,-0.6500762701034546,-0.1712934523820877
1761315262946201300,4.987201416015625,-0.6493356823921204,-0.6308522820472717,-0.15434563159942627
1761315262956248300,4.997248291015625,-0.6832507252693176,-0.5308582782745361,-0.10571657866239548
1761315262966295300,5.00729541015625,-0.7162161469459534,-0.36911386251449585,-0.055147942155599594
1761315262976343300,5.01734326171875,-0.7503501772880554,-0.15472939610481262,-0.041494980454444885
1761315262986390300,5.027390380859375,-0.774746298789978,0.10512721538543701,-0.07981307059526443
1761315262996437200,5.037437255859375,-0.7878517508506775,0.3961547911167145,-0.17622242867946625
1761315263006484200,5.047484130859375,-0.7753218412399292,0.6273611187934875,-0.3205370008945465
1761315263016532200,5.0575322265625,-0.7313833832740784,0.6836680769920349,-0.45899927616119385
1761315263026579500,5.067579345703125,-0.6545416116714478,0.6263973116874695,-0.5288901925086975
1761315263036626400,5.07762646484375,-0.5685459971427917,0.5545670986175537,-0.5001749396324158
1761315263046674200,5.087674072265625,-0.4906887710094452,0.47821345925331116,-0.40335118770599365
1761315263056721200,5.09772119140625,-0.41769924759864807,0.4180276095867157,-0.2573567032814026
1761315263066768100,5.10776806640625,-0.34604448080062866,0.39929333329200745,-0.0877695307135582
1761315263076816400,5.11781640625,-0.27807503938674927,0.3774740397930145,0.06675692647695541
1761315263086863400,5.12786328125,-0.24098917841911316,0.2950170040130615,0.1693331003189087
1761315263096910300,5.137910400390625,-0.21531817317008972,0.17307829856872559,0.22911228239536285
1761315263106958300,5.147958251953125,-0.18868602812290192,0.03736761212348938,0.27320596575737
1761315263117005300,5.15800537109375,-0.18680663406848907,-0.08843585848808289,0.30306774377822876
1761315263127052300,5.16805224609375,-0.19710640609264374,-0.1961631178855896,0.3188653290271759
1761315263137099300,5.178099365234375,-0.2105572372674942,-0.25451192259788513,0.298909455537796
1761315263147147300,5.188147216796875,-0.2173568159341812,-0.2748936116695404,0.25297340750694275
1761315263157194500,5.198194580078125,-0.20122285187244415,-0.31033310294151306,0.1710023730993271
1761315263167241200,5.2082412109375,-0.1921747624874115,-0.3463688790798187,0.07775045186281204
1761315263177289200,5.218289306640625,-0.19091136753559113,-0.3706635534763336,-0.019056249409914017
1761315263187336200,5.228336181640625,-0.20949117839336395,-0.3888862431049347,-0.10573069006204605
1761315263197383200,5.238383056640625,-0.24617275595664978,-0.4073139727115631,-0.18298153579235077
1761315263207431400,5.248431396484375,-0.2961941063404083,-0.4188843369483948,-0.24393171072006226
1761315263217478400,5.258478515625,-0.35420095920562744,-0.3893855810165405,-0.2877628207206726
1761315263227525000,5.268525146484375,-0.39875057339668274,-0.304364949464798,-0.32485318183898926
1761315263237573400,5.278573486328125,-0.423423171043396,-0.20730870962142944,-0.36316755414009094
1761315263247620400,5.288620361328125,-0.43948042392730713,-0.1168706938624382,-0.4060108959674835
1761315263257667300,5.298667236328125,-0.4455718696117401,-0.009843575768172741,-0.4150446057319641
1761315263267714300,5.30871435546875,-0.4617213010787964,0.12450145184993744,-0.36881452798843384
1761315263277762000,5.318761962890625,-0.4855581820011139,0.26661890745162964,-0.29758667945861816
1761315263287809300,5.328809326171875,-0.5064874291419983,0.3702891170978546,-0.21723884344100952
1761315263297856300,5.338856201171875,-0.512715220451355,0.4019533097743988,-0.15883705019950867
1761315263307904300,5.348904296875,-0.5067201852798462,0.36196112632751465,-0.13098278641700745
1761315263317951200,5.358951171875,-0.48966264724731445,0.25572922825813293,-0.12698085606098175
1761315263327998200,5.368998291015625,-0.4747960865497589,0.13910223543643951,-0.130831778049469
1761315263338046200,5.379046142578125,-0.4722447693347931,0.016805078834295273,-0.14324423670768738
1761315263348092200,5.389092041015625,-0.47898709774017334,-0.12148115783929825,-0.14480432868003845
1761315263358139400,5.399139404296875,-0.4841083586215973,-0.22342723608016968,-0.13679486513137817
1761315263368187100,5.409187255859375,-0.4779042601585388,-0.28271719813346863,-0.1289406716823578
1761315263378234000,5.419234130859375,-0.4458765387535095,-0.29612645506858826,-0.1263534128665924
1761315263388281000,5.429281005859375,-0.4082372784614563,-0.2753133177757263,-0.12506604194641113
1761315263398329300,5.439329345703125,-0.35776054859161377,-0.2223244160413742,-0.12347772717475891
1761315263408376300,5.449376220703125,-0.30276626348495483,-0.1608424186706543,-0.13085681200027466
1761315263418423300,5.45942333984375,-0.25608718395233154,-0.10883167386054993,-0.13294313848018646
1761315263428470000,5.469469970703125,-0.2081790417432785,-0.09322768449783325,-0.1288360059261322
1761315263438518300,5.479518310546875,-0.17534971237182617,-0.13528965413570404,-0.12514886260032654
1761315263448565200,5.489565185546875,-0.14185594022274017,-0.1930147260427475,-0.10384596884250641
1761315263458612200,5.4996123046875,-0.1192166730761528,-0.22702649235725403,-0.06521229445934296
1761315263468660200,5.50966015625,-0.10179107636213303,-0.24993367493152618,-0.016813067719340324
1761315263478707200,5.519707275390625,-0.08646272122859955,-0.2755706012248993,0.02280784398317337
1761315263488754200,5.529754150390625,-0.07609370350837708,-0.2931634485721588,0.048053011298179626
1761315263498802200,5.53980224609375,-0.07478715479373932,-0.28868532180786133,0.06572921574115753
1761315263508849200,5.54984912109375,-0.07893982529640198,-0.2749466001987457,0.0786689817905426
1761315263518896000,5.559896240234375,-0.0887216106057167,-0.2599698007106781,0.07936646044254303
1761315263528944000,5.569944091796875,-0.09500134736299515,-0.25319337844848633,0.0809723436832428
1761315263538991000,5.5799912109375,-0.09984616935253143,-0.23745223879814148,0.10073113441467285
1761315263549038000,5.5900380859375,-0.10918773710727692,-0.20597393810749054,0.12789218127727509
1761315263559085000,5.6000849609375,-0.12480797618627548,-0.15336132049560547,0.16176466643810272
1761315263569133300,5.61013330078125,-0.13938798010349274,-0.09711004048585892,0.2024383246898651
1761315263579180300,5.62018017578125,-0.14735457301139832,-0.05457376316189766,0.2366599440574646
1761315263589227300,5.630227294921875,-0.14830026030540466,-0.03344770520925522,0.2606339752674103
1761315263599275000,5.64027490234375,-0.1626323163509369,-0.047576308250427246,0.27733492851257324
1761315263609322200,5.650322265625,-0.19249354302883148,-0.0976642444729805,0.28574201464653015
1761315263619369200,5.660369140625,-0.21439698338508606,-0.14013980329036713,0.30293482542037964
1761315263629417200,5.670417236328125,-0.22774767875671387,-0.11799880862236023,0.3263855576515198
1761315263639464200,5.680464111328125,-0.2346748262643814,-0.11292761564254761,0.33838924765586853
1761315263649511200,5.69051123046875,-0.25104233622550964,-0.14521072804927826,0.3141704499721527
1761315263659559200,5.70055908203125,-0.2701404094696045,-0.12084200233221054,0.27263471484184265
1761315263669606100,5.710606201171875,-0.2871987521648407,-0.04462925344705582,0.225235253572464
1761315263679653000,5.720653076171875,-0.308211088180542,0.017671404406428337,0.15060389041900635
1761315263689700000,5.7307001953125,-0.3233413100242615,0.044974133372306824,0.049555569887161255
1761315263699748400,5.740748291015625,-0.3455006778240204,0.04229259490966797,-0.0674983486533165
1761315263709795300,5.75079541015625,-0.35448965430259705,0.03292625769972801,-0.16903136670589447
1761315263719842300,5.76084228515625,-0.3386651277542114,0.014570154249668121,-0.2394522726535797
1761315263729890000,5.77089013671875,-0.30559906363487244,-0.043296609073877335,-0.2704607844352722
1761315263739937300,5.780937255859375,-0.2510058581829071,-0.13498471677303314,-0.26601943373680115
1761315263749984300,5.790984375,-0.21044938266277313,-0.23344071209430695,-0.22734394669532776
1761315263760032300,5.8010322265625,-0.18426518142223358,-0.31886640191078186,-0.1502360999584198
1761315263770079200,5.811079345703125,-0.1816752552986145,-0.34881603717803955,-0.03906351327896118
1761315263780126200,5.821126220703125,-0.17702405154705048,-0.28684109449386597,0.10711819678544998
1761315263790174200,5.83117431640625,-0.1884138584136963,-0.1623162031173706,0.25729092955589294
1761315263800221200,5.84122119140625,-0.18238525092601776,-0.021936191245913506,0.3885203003883362
1761315263810268200,5.85126806640625,-0.17859824001789093,0.10874751955270767,0.4912315011024475
1761315263820316200,5.861316162109375,-0.16410930454730988,0.22774021327495575,0.5882086753845215
1761315263830363400,5.87136328125,-0.132976695895195,0.3061029314994812,0.6726175546646118
1761315263840410000,5.88141015625,-0.11887791752815247,0.3325451910495758,0.7319695353507996
1761315263850457000,5.89145703125,-0.11624911427497864,0.3105376362800598,0.7593356370925903
1761315263860505000,5.901505126953125,-0.11372816562652588,0.26222389936447144,0.7496111392974854
1761315263870552300,5.91155224609375,-0.1129143014550209,0.2256546914577484,0.7234628796577454
1761315263880599300,5.921599365234375,-0.12971459329128265,0.1579403579235077,0.6617398858070374
1761315263890647300,5.931647216796875,-0.16375671327114105,0.03177257627248764,0.5639597773551941
1761315263900694000,5.941694091796875,-0.20944084227085114,-0.10510937124490738,0.4336947202682495
1761315263910741000,5.951740966796875,-0.2739391326904297,-0.20785865187644958,0.2799845039844513
1761315263920789200,5.961789306640625,-0.3552214801311493,-0.27783748507499695,0.1086103692650795
1761315263930836200,5.971836181640625,-0.43048667907714844,-0.30140939354896545,-0.06671218574047089
1761315263940883200,5.98188330078125,-0.49023574590682983,-0.29306596517562866,-0.24631310999393463
1761315263950931200,5.99193115234375,-0.5375526547431946,-0.28078773617744446,-0.42639657855033875
1761315263960978200,6.001978271484375,-0.5674706101417542,-0.26723116636276245,-0.5873777270317078
1761315263971025200,6.012025146484375,-0.5782529711723328,-0.24296391010284424,-0.6944019198417664
1761315263981072100,6.022072021484375,-0.5691177845001221,-0.2022862583398819,-0.7355536222457886
1761315263991120100,6.0321201171875,-0.5212714076042175,-0.11926008015871048,-0.7017727494239807
1761315264001167400,6.04216748046875,-0.4580352008342743,0.0017675400013104081,-0.6119605898857117
1761315264011214300,6.05221435546875,-0.385427862405777,0.12899979948997498,-0.4869701862335205
1761315264021262000,6.062261962890625,-0.3074225187301636,0.24594159424304962,-0.3674222230911255
1761315264031309000,6.07230908203125,-0.21969720721244812,0.3319547772407532,-0.2611983120441437
1761315264041356000,6.08235595703125,-0.12455444782972336,0.3580295145511627,-0.1911904662847519
1761315264051404300,6.092404296875,-0.04260711371898651,0.32008427381515503,-0.1576106697320938
1761315264061451300,6.102451171875,0.01932203210890293,0.24393703043460846,-0.14108096063137054
1761315264071498200,6.112498291015625,0.0679156705737114,0.15291444957256317,-0.13079902529716492
1761315264081546200,6.122546142578125,0.09426125138998032,0.06577608734369278,-0.11880361288785934
1761315264091593200,6.13259326171875,0.10673869401216507,-0.023267239332199097,-0.10729663074016571
1761315264101640200,6.14264013671875,0.0967920571565628,-0.09203112125396729,-0.09936413913965225
1761315264111687200,6.152687255859375,0.08343790471553802,-0.13998959958553314,-0.10016628354787827
1761315264121735200,6.162735107421875,0.06762431561946869,-0.13710646331310272,-0.1043463796377182
1761315264131782400,6.172782470703125,0.050572097301483154,-0.09584689885377884,-0.11251509189605713
1761315264141829400,6.182829345703125,0.028179707005620003,-0.05306055396795273,-0.12145984917879105
1761315264151877000,6.192877197265625,0.00635030772536993,-0.0086590014398098,-0.13101394474506378
1761315264161924000,6.202924072265625,-0.00031611722079105675,0.03838147595524788,-0.136020690202713
1761315264171971000,6.21297119140625,0.013636982999742031,0.07387528568506241,-0.14196166396141052
1761315264182019300,6.223019287109375,0.04054556041955948,0.0877266526222229,-0.14412441849708557
1761315264192066300,6.23306640625,0.07434400916099548,0.08573994040489197,-0.14548049867153168
1761315264202113000,6.243113037109375,0.11262721568346024,0.08458971977233887,-0.13181395828723907
1761315264212161300,6.253161376953125,0.14087535440921783,0.10353092104196548,-0.10243316739797592
1761315264222208300,6.263208251953125,0.15438291430473328,0.14127962291240692,-0.06483811885118484
1761315264232255200,6.273255126953125,0.17178666591644287,0.16463235020637512,-0.005819273181259632
1761315264242302200,6.28330224609375,0.19563262164592743,0.17644427716732025,0.08189806342124939
1761315264252350200,6.29335009765625,0.2265995889902115,0.18873316049575806,0.1832403987646103
1761315264262397200,6.303397216796875,0.25828853249549866,0.14956925809383392,0.2863886058330536
1761315264272444200,6.313444091796875,0.30397507548332214,0.08003358542919159,0.38666409254074097
1761315264282492200,6.3234921875,0.3535122573375702,0.036384906619787216,0.482264906167984
1761315264292539100,6.3335390625,0.38866040110588074,0.009012402966618538,0.5396163463592529
1761315264302586000,6.343586181640625,0.41374126076698303,-0.035885028541088104,0.5481541752815247
1761315264312634000,6.353634033203125,0.4189426600933075,-0.09929915517568588,0.4962976276874542
1761315264322681000,6.36368115234375,0.40978938341140747,-0.19524326920509338,0.39106282591819763
1761315264332728000,6.37372802734375,0.37507906556129456,-0.30241259932518005,0.2487216740846634
1761315264342776300,6.3837763671875,0.3326690196990967,-0.3875786066055298,0.13157853484153748
1761315264352824000,6.393823974609375,0.2764688730239868,-0.4385336637496948,0.07939788699150085
1761315264362871300,6.403871337890625,0.22428716719150543,-0.43809211254119873,0.09822004288434982
1761315264372918000,6.41391796875,0.1813892275094986,-0.3854723274707794,0.19663742184638977
1761315264382966000,6.423966064453125,0.17396806180477142,-0.31519362330436707,0.35325127840042114
1761315264393013000,6.434012939453125,0.18418528139591217,-0.23337653279304504,0.5392616391181946
1761315264403060000,6.44406005859375,0.2043672502040863,-0.14827442169189453,0.6813306212425232
1761315264413108200,6.454108154296875,0.22746777534484863,-0.07918110489845276,0.7301884293556213
1761315264423155000,6.464155029296875,0.26399409770965576,-0.03593003749847412,0.6707799434661865
1761315264433202000,6.474201904296875,0.3150343894958496,-0.01068300474435091,0.5303666591644287
1761315264443250200,6.484250244140625,0.36434492468833923,-0.01961018703877926,0.3376299738883972
1761315264453297200,6.494297119140625,0.3950514495372772,-0.06143007054924965,0.1584452986717224
1761315264463344000,6.50434423828125,0.39754948019981384,-0.06652549654245377,0.04616083577275276
1761315264473392000,6.51439208984375,0.3631827235221863,0.013684120960533619,0.028775721788406372
1761315264483438800,6.52443896484375,0.30445897579193115,0.14078667759895325,0.08381819725036621
1761315264493486000,6.534486083984375,0.2509957253932953,0.2683238685131073,0.18044939637184143
1761315264503533000,6.544532958984375,0.22179444134235382,0.3677324652671814,0.2925911247730255
1761315264513581000,6.5545810546875,0.2263609617948532,0.41208237409591675,0.39597636461257935
1761315264523628000,6.5646279296875,0.25538942217826843,0.3902231454849243,0.47356942296028137
1761315264533675000,6.574675048828125,0.3125302195549011,0.3227311670780182,0.5220943689346313
1761315264543723000,6.584722900390625,0.36645257472991943,0.24422810971736908,0.5496532917022705
1761315264553770000,6.59477001953125,0.41356679797172546,0.1910027116537094,0.5371787548065186
1761315264563817000,6.60481689453125,0.45798033475875854,0.15951110422611237,0.4900248348712921
1761315264573865200,6.614865234375,0.48152056336402893,0.12851004302501678,0.4082319736480713
1761315264583912200,6.624912109375,0.4784177243709564,0.1305452287197113,0.30719029903411865
1761315264593959200,6.634959228515625,0.4411640763282776,0.14520353078842163,0.19666272401809692
1761315264604007000,6.6450068359375,0.37590518593788147,0.17181064188480377,0.07528889179229736
1761315264614054000,6.655053955078125,0.2946212589740753,0.18961094319820404,-0.04242575541138649
1761315264624101000,6.66510107421875,0.20569589734077454,0.14068813621997833,-0.16749072074890137
1761315264634148000,6.675148193359375,0.126739040017128,0.02504117041826248,-0.29813021421432495
1761315264644196000,6.685196044921875,0.059479039162397385,-0.09785785526037216,-0.43468940258026123
1761315264654243000,6.6952431640625,-0.005546565633267164,-0.223798468708992,-0.5743442177772522
1761315264664290000,6.7052900390625,-0.052611012011766434,-0.3397330641746521,-0.7119622826576233
1761315264674338000,6.715338134765625,-0.08016461133956909,-0.42458829283714294,-0.8253058791160583
1761315264684385000,6.725385009765625,-0.11005380004644394,-0.518011212348938,-0.8927972912788391
1761315264694432000,6.735431884765625,-0.1704937070608139,-0.5295818448066711,-0.900123119354248
1761315264704480300,6.745480224609375,-0.23477762937545776,-0.43325263261795044,-0.8500991463661194
1761315264714527200,6.75552734375,-0.28286445140838623,-0.2602233290672302,-0.754953145980835
1761315264724574200,6.76557421875,-0.30272337794303894,-0.028309669345617294,-0.6481031775474548
1761315264734622000,6.7756220703125,-0.2689046859741211,0.21320389211177826,-0.5505750179290771
1761315264744669000,6.7856689453125,-0.1943971812725067,0.42018476128578186,-0.47454628348350525
1761315264754716200,6.795716064453125,-0.10563268512487411,0.550376832485199,-0.4168795049190521
1761315264764763100,6.80576318359375,-0.024515463039278984,0.6314682364463806,-0.3618040084838867
1761315264774811100,6.81581103515625,0.02369893714785576,0.633457601070404,-0.3273107409477234
1761315264784858000,6.825858154296875,0.037523671984672546,0.5418890714645386,-0.3121906518936157
1761315264794905000,6.835905029296875,0.037747643887996674,0.4062463045120239,-0.2858613133430481
1761315264804953000,6.845953125,0.0406038835644722,0.33078643679618835,-0.2152896672487259
1761315264815000000,6.856,0.023393472656607628,0.2953834533691406,-0.11142373085021973
1761315264825047000,6.866047119140625,0.015666045248508453,0.23032721877098083,0.00415373221039772
1761315264835095000,6.876094970703125,0.02846812643110752,0.16752508282661438,0.10970093309879303
1761315264845142000,6.88614208984375,0.05712294206023216,0.13121235370635986,0.19120298326015472
1761315264855189000,6.89618896484375,0.0930311381816864,0.09907039254903793,0.23008060455322266
1761315264865237000,6.906237060546875,0.1284799426794052,0.03971225768327713,0.22242268919944763
1761315264875284000,6.916283935546875,0.16224323213100433,-0.05904201418161392,0.18601727485656738
1761315264885331200,6.926331298828125,0.19053985178470612,-0.1951226145029068,0.15035568177700043
1761315264895378200,6.936378173828125,0.20252567529678345,-0.3240225315093994,0.12398319691419601
1761315264905426000,6.946426025390625,0.1917302906513214,-0.402579665184021,0.11175423115491867
1761315264915473000,6.956472900390625,0.15402498841285706,-0.4399677813053131,0.11939749866724014
1761315264925520100,6.96652001953125,0.08771014213562012,-0.3553676903247833,0.14738573133945465
1761315264935568100,6.976568115234375,0.029920348897576332,-0.15679973363876343,0.17224207520484924
1761315264945615000,6.986614990234375,-0.0026075011119246483,0.06919585168361664,0.1626690775156021
1761315264955662000,6.996662109375,-0.016140621155500412,0.23453980684280396,0.13884709775447845
1761315264965710000,7.0067099609375,-0.0368669368326664,0.28951597213745117,0.11431165784597397
1761315264975757000,7.016757080078125,-0.05597564950585365,0.24053643643856049,0.0942804291844368
1761315264985804000,7.026803955078125,-0.07831504195928574,0.12912335991859436,0.07997765392065048
1761315264995851000,7.03685107421875,-0.0981457382440567,0.014543788507580757,0.060439374297857285
1761315265005899000,7.04689892578125,-0.11590529978275299,-0.08163387328386307,0.007434746716171503
1761315265015946200,7.0569462890625,-0.11998739093542099,-0.13283661007881165,-0.07305104285478592
1761315265025993200,7.0669931640625,-0.09491080045700073,-0.14920546114444733,-0.1546715945005417
1761315265036041000,7.077041015625,-0.049321211874485016,-0.12803545594215393,-0.21122276782989502
1761315265046088000,7.087087890625,0.007637679576873779,-0.08272044360637665,-0.1997184306383133
1761315265056135200,7.09713525390625,0.05350636690855026,-0.033071134239435196,-0.10910757631063461
1761315265066183200,7.10718310546875,0.07065286487340927,-0.022671490907669067,0.0005608617211692035
1761315265076230100,7.117230224609375,0.08447946608066559,-0.0678432285785675,0.10987722873687744
1761315265086277000,7.127277099609375,0.10552642494440079,-0.11860174685716629,0.18658000230789185
1761315265096325000,7.1373251953125,0.1435755342245102,-0.1356465071439743,0.23489773273468018
1761315265106372000,7.1473720703125,0.1968909651041031,-0.1222928911447525,0.2590528726577759
1761315265116419000,7.157419189453125,0.23598164319992065,-0.11885261535644531,0.26027604937553406
1761315265126466000,7.167466064453125,0.24379082024097443,-0.15528333187103271,0.24216149747371674
1761315265136514300,7.177514404296875,0.22491221129894257,-0.22853277623653412,0.20097598433494568
1761315265146561000,7.18756103515625,0.18250855803489685,-0.3148927092552185,0.14409272372722626
1761315265156608000,7.19760791015625,0.11988512426614761,-0.3773749768733978,0.06315793097019196
1761315265166656000,7.207656005859375,0.030571224167943,-0.3848091959953308,-0.044017523527145386
1761315265176703000,7.217702880859375,-0.06118585914373398,-0.3373441994190216,-0.1631806641817093
1761315265186750200,7.227750244140625,-0.14447090029716492,-0.27445125579833984,-0.2837773859500885
1761315265196798200,7.237798095703125,-0.20403648912906647,-0.22869203984737396,-0.391708105802536
1761315265206845000,7.247844970703125,-0.23194003105163574,-0.22061040997505188,-0.46933579444885254
1761315265216892000,7.257891845703125,-0.24472293257713318,-0.24812272191047668,-0.513753354549408
1761315265226940200,7.267940185546875,-0.26253974437713623,-0.2968338131904602,-0.5171483159065247
1761315265236987100,7.277987060546875,-0.28162580728530884,-0.32149121165275574,-0.4823048710823059
1761315265247034000,7.2880341796875,-0.29389819502830505,-0.3211870789527893,-0.41318944096565247
1761315265257081000,7.2980810546875,-0.30076515674591064,-0.3180685043334961,-0.31351983547210693
1761315265267129000,7.308129150390625,-0.30572769045829773,-0.2954132854938507,-0.18808361887931824
1761315265277176000,7.318176025390625,-0.29197192192077637,-0.22358675301074982,-0.02305631712079048
1761315265287223000,7.32822314453125,-0.24743589758872986,-0.07494295388460159,0.1732918918132782
1761315265297271000,7.33827099609375,-0.19574153423309326,0.10147175937891006,0.3609328866004944
1761315265307318000,7.348318115234375,-0.14950667321681976,0.1813064068555832,0.4913713335990906
1761315265317365200,7.358365234375,-0.11315584927797318,0.1533040702342987,0.5533233880996704
1761315265327413000,7.3684130859375,-0.08425096422433853,0.07924582064151764,0.5519641041755676
1761315265337460000,7.3784599609375,-0.07047629356384277,0.003695402294397354,0.5142273902893066
1761315265347507000,7.3885068359375,-0.0720566138625145,-0.06964219361543655,0.4183778166770935
1761315265357555000,7.398554931640625,-0.08615272492170334,-0.16197772324085236,0.2425047904253006
1761315265367602000,7.408601806640625,-0.10938747972249985,-0.264645516872406,-0.006007292307913303
1761315265377649000,7.41864892578125,-0.12092775106430054,-0.30332979559898376,-0.25875699520111084
1761315265387695900,7.42869580078125,-0.12846475839614868,-0.24745719134807587,-0.47375717759132385
1761315265397743900,7.438743896484375,-0.13373862206935883,-0.16437296569347382,-0.6229661107063293
1761315265407790800,7.448790771484375,-0.13710911571979523,-0.0762268602848053,-0.7023863792419434
1761315265417837800,7.458837890625,-0.14153049886226654,-0.020173711702227592,-0.7279934287071228
1761315265427886000,7.468885986328125,-0.1328802853822708,0.03229402378201485,-0.6930229663848877
1761315265437933000,7.47893310546875,-0.1064944863319397,0.0931059718132019,-0.614842414855957
1761315265447980000,7.48897998046875,-0.055758338421583176,0.16351249814033508,-0.510850727558136
1761315265458027800,7.49902783203125,-0.0036309538409113884,0.23277120292186737,-0.39343544840812683
1761315265468074800,7.50907470703125,0.03424052894115448,0.2543955445289612,-0.27889713644981384
1761315265478122000,7.5191220703125,0.048653021454811096,0.2036106437444687,-0.17044790089130402
1761315265488169000,7.5291689453125,0.05385896936058998,0.10854671895503998,-0.06821314245462418
1761315265498217000,7.539217041015625,0.04109097644686699,0.00290444353595376,0.015126754529774189
1761315265508264000,7.549263916015625,0.01582370325922966,-0.05735596641898155,0.07134608179330826
1761315265518311000,7.559310791015625,0.004912200383841991,-0.026747191324830055,0.09315072000026703
1761315265528359000,7.56935888671875,0.021738585084676743,0.0800093486905098,0.07975900918245316
1761315265538406000,7.579406005859375,0.05558762699365616,0.22427411377429962,0.02719779871404171
1761315265548452900,7.589452880859375,0.09679339081048965,0.3643196225166321,-0.04020307958126068
1761315265558501000,7.599501220703125,0.13863271474838257,0.4526827931404114,-0.11202213913202286
1761315265568547800,7.6095478515625,0.17290280759334564,0.45762988924980164,-0.17381040751934052
1761315265578594800,7.6195947265625,0.1895611435174942,0.3932271897792816,-0.20382343232631683
1761315265588642800,7.629642822265625,0.1931833028793335,0.290874183177948,-0.1990624964237213
1761315265598689800,7.639689697265625,0.18123556673526764,0.1924980729818344,-0.1573408842086792
1761315265608737000,7.649737060546875,0.15583807229995728,0.09992686659097672,-0.08946649730205536
1761315265618784000,7.659783935546875,0.14930133521556854,0.013777331449091434,-0.03648477420210838
1761315265628831700,7.669831787109375,0.17184047400951385,-0.06145350635051727,0.000859934720210731
1761315265638878700,7.679878662109375,0.22129696607589722,-0.09139649569988251,0.021255221217870712
1761315265648926000,7.689926025390625,0.29319486021995544,-0.04880908504128456,0.036369457840919495
1761315265658974000,7.699973876953125,0.3792344033718109,0.042517367750406265,0.05807102471590042
1761315265669021000,7.71002099609375,0.44925928115844727,0.14533136785030365,0.08208049088716507
1761315265679068000,7.72006787109375,0.5027174353599548,0.26984238624572754,0.08827899396419525
1761315265689116000,7.730115966796875,0.5137107372283936,0.5099537968635559,0.21326860785484314
1761315265699163000,7.740162841796875,0.5096049308776855,0.454691618680954,0.2898525893688202
1761315265709209900,7.7502099609375,0.5699039697647095,0.1728695183992386,0.24791499972343445
1761315265719256800,7.7602568359375,0.6610855460166931,-0.0730246752500534,0.17076854407787323
1761315265729304800,7.770304931640625,0.6994296908378601,-0.2177797257900238,0.10059718042612076
1761315265739352000,7.78035205078125,0.6365916132926941,-0.25732874870300293,0.05892323702573776
1761315265749399000,7.79039892578125,0.5455056428909302,-0.23718565702438354,0.03947124257683754
1761315265759446800,7.80044677734375,0.474159836769104,-0.20089049637317657,0.028026575222611427
1761315265769493800,7.81049365234375,0.41592130064964294,-0.11321177333593369,0.044376518577337265
1761315265779541000,7.820541015625,0.3331840932369232,0.04132320359349251,0.15230964124202728
1761315265789589000,7.830589111328125,0.28749382495880127,0.24234259128570557,0.32867616415023804
