time,seconds_elapsed,z,y,x
1761315583837241000,0.056240966796875,-0.90570068359375,-0.47210693359375,0.0033111572265625
1761315583847289000,0.0662890625,-0.9109344482421875,-0.4799652099609375,-0.0001678466796875
1761315583857337300,0.07633740234375,-0.90692138671875,-0.4680023193359375,0.0070037841796875
1761315583867384300,0.08638427734375,-0.914398193359375,-0.4658050537109375,0.009613037109375
1761315583877432000,0.09643212890625,-0.9282684326171875,-0.458465576171875,0.0079193115234375
1761315583887480300,0.106480224609375,-0.9204864501953125,-0.4444427490234375,0.007904052734375
1761315583897527300,0.11652734375,-0.910552978515625,-0.442108154296875,0.00653076171875
1761315583907575000,0.126574951171875,-0.9195556640625,-0.4517822265625,-0.012725830078125
1761315583917623000,0.136623046875,-0.874298095703125,-0.4473419189453125,0.0368499755859375
1761315583927670300,0.146670166015625,-0.8099212646484375,-0.4264678955078125,0.0459747314453125
1761315583937718300,0.15671826171875,-0.806976318359375,-0.4248809814453125,0.0208892822265625
1761315583947766000,0.16676611328125,-0.823455810546875,-0.4423065185546875,0.00982666015625
1761315583957813200,0.176813232421875,-0.8051300048828125,-0.42535400390625,0.023162841796875
1761315583967861200,0.186861328125,-0.7852935791015625,-0.4181976318359375,0.0330352783203125
1761315583977909000,0.196908935546875,-0.778961181640625,-0.4342498779296875,0.032196044921875
1761315583987956000,0.2069560546875,-0.787353515625,-0.42852783203125,0.0612945556640625
1761315583998004200,0.217004150390625,-0.7869873046875,-0.4381561279296875,0.091888427734375
1761315584008051200,0.22705126953125,-0.779876708984375,-0.448638916015625,0.0997772216796875
1761315584018099000,0.237098876953125,-0.768585205078125,-0.4279937744140625,0.087982177734375
1761315584028147200,0.247147216796875,-0.7706146240234375,-0.403228759765625,0.08123779296875
1761315584038194200,0.257194091796875,-0.775634765625,-0.385986328125,0.063568115234375
1761315584048242200,0.2672421875,-0.770782470703125,-0.3648223876953125,0.0451202392578125
1761315584058290200,0.277290283203125,-0.7815093994140625,-0.33184814453125,0.027801513671875
1761315584068337200,0.287337158203125,-0.7978363037109375,-0.297210693359375,0.0182037353515625
1761315584078385200,0.29738525390625,-0.8165740966796875,-0.2763214111328125,0.015777587890625
1761315584088433200,0.30743310546875,-0.8417510986328125,-0.26885986328125,0.027557373046875
1761315584098480000,0.317480224609375,-0.8832244873046875,-0.267791748046875,0.0474700927734375
1761315584108528000,0.327528076171875,-0.9206695556640625,-0.263671875,0.0608062744140625
1761315584118576000,0.337576171875,-0.9304046630859375,-0.2619781494140625,0.055877685546875
1761315584128623400,0.347623291015625,-0.9251861572265625,-0.271331787109375,0.020782470703125
1761315584138671000,0.357671142578125,-0.88751220703125,-0.2566070556640625,-0.000732421875
1761315584148719000,0.367718994140625,-0.8623504638671875,-0.2431182861328125,-0.01190185546875
1761315584158766300,0.377766357421875,-0.846221923828125,-0.263946533203125,-0.0214996337890625
1761315584168814000,0.38781396484375,-0.8228607177734375,-0.304656982421875,-0.0165557861328125
1761315584178862000,0.397862060546875,-0.8135986328125,-0.3233795166015625,-0.0062713623046875
1761315584188909000,0.407908935546875,-0.805328369140625,-0.3167266845703125,0.0073699951171875
1761315584198957300,0.417957275390625,-0.8023529052734375,-0.3284759521484375,-0.0076751708984375
1761315584209004300,0.42800439453125,-0.8261566162109375,-0.37188720703125,-0.01068115234375
1761315584219052000,0.438052001953125,-0.8927001953125,-0.40985107421875,0.0668487548828125
1761315584229100300,0.448100341796875,-0.8549041748046875,-0.5511322021484375,0.19049072265625
1761315584239147300,0.458147216796875,-0.8937835693359375,-0.6822509765625,0.2300872802734375
1761315584249195000,0.468195068359375,-0.9910430908203125,-0.66162109375,0.217681884765625
1761315584259243300,0.4782431640625,-0.9810333251953125,-0.5867767333984375,0.18359375
1761315584269290200,0.488290283203125,-0.9669036865234375,-0.6175994873046875,0.1678924560546875
1761315584279338200,0.498338134765625,-1.0188446044921875,-0.6800537109375,0.1463470458984375
1761315584289386200,0.50838623046875,-1.045623779296875,-0.7044830322265625,0.1084747314453125
1761315584299433200,0.51843310546875,-1.08990478515625,-0.7060089111328125,0.0753021240234375
1761315584309481200,0.528481201171875,-1.1729736328125,-0.710723876953125,0.0467071533203125
1761315584319529000,0.538529052734375,-1.2407379150390625,-0.72796630859375,0.0485382080078125
1761315584329576200,0.548576171875,-1.2980194091796875,-0.744720458984375,0.064178466796875
1761315584339624200,0.558624267578125,-1.3299102783203125,-0.769744873046875,0.079742431640625
1761315584349672200,0.568672119140625,-1.3426971435546875,-0.7986602783203125,0.0846710205078125
1761315584359719200,0.57871923828125,-1.3177337646484375,-0.8112335205078125,0.0782623291015625
1761315584369767200,0.58876708984375,-1.300140380859375,-0.80987548828125,0.0536651611328125
1761315584379814100,0.598814208984375,-1.2550201416015625,-0.806549072265625,0.0635223388671875
1761315584389862100,0.608862060546875,-1.2181243896484375,-0.7638702392578125,0.0600738525390625
1761315584399910100,0.61891015625,-1.2057342529296875,-0.707977294921875,0.0382080078125
1761315584409957000,0.62895703125,-1.14215087890625,-0.67083740234375,0.049072265625
1761315584420005000,0.639005126953125,-1.0678863525390625,-0.6279449462890625,0.082733154296875
1761315584430053000,0.64905322265625,-0.981109619140625,-0.590240478515625,0.0889892578125
1761315584440100000,0.65910009765625,-0.85235595703125,-0.532196044921875,0.11126708984375
1761315584450148000,0.669148193359375,-0.85546875,-0.52392578125,0.1909332275390625
1761315584460196400,0.6791962890625,-0.9192352294921875,-0.572601318359375,0.1405029296875
1761315584470243300,0.689243408203125,-0.6936187744140625,-0.4023284912109375,0.0138397216796875
1761315584480291000,0.699291015625,-0.622406005859375,-0.3029937744140625,-0.0484161376953125
1761315584490339000,0.709339111328125,-0.6359405517578125,-0.3256683349609375,-0.07928466796875
1761315584500386300,0.71938623046875,-0.6468658447265625,-0.325164794921875,-0.077667236328125
1761315584510434000,0.72943408203125,-0.68951416015625,-0.28619384765625,-0.0359344482421875
1761315584520481000,0.73948095703125,-0.680145263671875,-0.1699371337890625,-0.0933380126953125
1761315584530529300,0.749529296875,-0.6102447509765625,-0.0908660888671875,-0.1075592041015625
1761315584540577300,0.759577392578125,-0.5839385986328125,-0.0398101806640625,-0.073760986328125
1761315584550624300,0.769624267578125,-0.508575439453125,-0.06500244140625,-0.04107666015625
1761315584560672000,0.779672119140625,-0.3845977783203125,-0.1376800537109375,-0.0246124267578125
1761315584570720300,0.78972021484375,-0.2879638671875,-0.1580352783203125,-0.0261993408203125
1761315584580767200,0.799767333984375,-0.23388671875,-0.1991424560546875,-0.0107269287109375
1761315584590815000,0.80981494140625,-0.3033447265625,-0.2331085205078125,0.0663909912109375
1761315584600863200,0.81986328125,-0.446533203125,-0.2564544677734375,0.1641845703125
1761315584610910200,0.82991015625,-0.4918060302734375,-0.2859649658203125,0.243560791015625
1761315584620958200,0.839958251953125,-0.435150146484375,-0.3255615234375,0.283905029296875
1761315584631006200,0.850006103515625,-0.4138641357421875,-0.35107421875,0.2674102783203125
1761315584641053200,0.86005322265625,-0.43109130859375,-0.31573486328125,0.2033843994140625
1761315584651102000,0.87010205078125,-0.5070953369140625,-0.2581634521484375,0.148712158203125
1761315584661150200,0.880150146484375,-0.59368896484375,-0.2540283203125,0.138427734375
1761315584671197200,0.890197265625,-0.652008056640625,-0.278717041015625,0.1970062255859375
1761315584681245200,0.9002451171875,-0.7619476318359375,-0.3151702880859375,0.2716827392578125
1761315584691292200,0.910292236328125,-0.897064208984375,-0.3541717529296875,0.3064422607421875
1761315584701340200,0.920340087890625,-1.09063720703125,-0.4101715087890625,0.2848358154296875
1761315584711388200,0.93038818359375,-1.279571533203125,-0.4381256103515625,0.252532958984375
1761315584721435100,0.94043505859375,-1.393310546875,-0.4729766845703125,0.268402099609375
1761315584731483100,0.950483154296875,-1.553985595703125,-0.514190673828125,0.326141357421875
1761315584741531100,0.96053125,-1.7278594970703125,-0.4734039306640625,0.3191680908203125
1761315584751578000,0.970578125,-1.869140625,-0.4678955078125,0.2462921142578125
1761315584761626400,0.98062646484375,-1.991455078125,-0.3689422607421875,0.1087188720703125
1761315584771674000,0.990674072265625,-2.0573577880859375,-0.2443389892578125,0.0665740966796875
1761315584781721000,1.00072119140625,-2.0554962158203125,-0.2439727783203125,0.063140869140625
1761315584791769300,1.010769287109375,-2.0335235595703125,-0.3321685791015625,0.1048126220703125
1761315584801817000,1.020817138671875,-2.03411865234375,-0.42584228515625,0.1657562255859375
1761315584811864000,1.030864013671875,-1.9449310302734375,-0.4920806884765625,0.2043304443359375
1761315584821912000,1.040912109375,-1.7555389404296875,-0.5177459716796875,0.20306396484375
1761315584831959300,1.050959228515625,-1.626007080078125,-0.507965087890625,0.134979248046875
1761315584842007000,1.061007080078125,-1.392791748046875,-0.596710205078125,0.11212158203125
1761315584852055000,1.071054931640625,-1.166473388671875,-0.70550537109375,0.1063690185546875
1761315584862102300,1.081102294921875,-1.0129852294921875,-0.6922454833984375,0.0430450439453125
1761315584872150300,1.091150390625,-0.8394622802734375,-0.602386474609375,-0.0343475341796875
1761315584882198000,1.101197998046875,-0.6630706787109375,-0.4961090087890625,-0.087890625
1761315584892245000,1.111244873046875,-0.5144805908203125,-0.3507080078125,-0.072540283203125
1761315584902293200,1.121293212890625,-0.3922271728515625,-0.359283447265625,-0.0846099853515625
1761315584912341000,1.131341064453125,-0.30731201171875,-0.386199951171875,-0.112335205078125
1761315584922388000,1.141387939453125,-0.2426300048828125,-0.3402252197265625,-0.1437530517578125
1761315584932436200,1.151436279296875,-0.1941375732421875,-0.2924346923828125,-0.186737060546875
1761315584942484200,1.161484130859375,-0.22027587890625,-0.2355804443359375,-0.24029541015625
1761315584952531200,1.17153125,-0.3079681396484375,-0.201629638671875,-0.2598419189453125
1761315584962579200,1.1815791015625,-0.3537750244140625,-0.216400146484375,-0.248992919921875
1761315584972626200,1.191626220703125,-0.340423583984375,-0.2056121826171875,-0.2154083251953125
1761315584982674200,1.201674072265625,-0.2951507568359375,-0.1766815185546875,-0.1746978759765625
1761315584992722200,1.21172216796875,-0.2009429931640625,-0.1322174072265625,-0.1573028564453125
1761315585002769200,1.22176904296875,-0.1056365966796875,-0.0843353271484375,-0.150115966796875
1761315585012817200,1.231817138671875,-0.0517120361328125,-0.054901123046875,-0.1402435302734375
1761315585022865200,1.241865234375,-0.0610198974609375,-0.0489349365234375,-0.1287841796875
1761315585032912100,1.251912109375,-0.1200408935546875,-0.0696563720703125,-0.099639892578125
1761315585042960100,1.261960205078125,-0.2462005615234375,-0.092529296875,-0.0508270263671875
1761315585053008100,1.272008056640625,-0.540313720703125,-0.01654052734375,0.055145263671875
1761315585063055400,1.282055419921875,-0.710723876953125,0.0161590576171875,0.1317291259765625
1761315585073103000,1.29210302734375,-0.7253570556640625,-0.1410675048828125,0.0602874755859375
1761315585083151000,1.302151123046875,-0.6569671630859375,-0.20318603515625,-0.014739990234375
1761315585093198000,1.312197998046875,-0.5664215087890625,-0.26336669921875,-0.0267181396484375
1761315585103246300,1.322246337890625,-0.3394012451171875,-0.261322021484375,0.00860595703125
1761315585113294000,1.332294189453125,-0.2297515869140625,-0.149139404296875,0.02764892578125
1761315585123341000,1.342341064453125,-0.331298828125,-0.0083160400390625,-0.0479888916015625
1761315585133389300,1.352389404296875,-0.6838531494140625,-0.0952911376953125,-0.096954345703125
1761315585143436300,1.362436279296875,-1.043212890625,-0.2932281494140625,-0.1050567626953125
1761315585153484000,1.372484130859375,-1.1978607177734375,-0.4578399658203125,-0.0724029541015625
1761315585163532300,1.3825322265625,-1.2389678955078125,-0.5308990478515625,-0.1160888671875
1761315585173579300,1.392579345703125,-1.3189239501953125,-0.527252197265625,-0.164886474609375
1761315585183627000,1.402626953125,-1.3805084228515625,-0.5200347900390625,-0.157684326171875
1761315585193675000,1.412675048828125,-1.552978515625,-0.61944580078125,-0.0832061767578125
1761315585203722200,1.42272216796875,-1.7483062744140625,-0.8328094482421875,0.007568359375
1761315585213770200,1.432770263671875,-2.00164794921875,-0.9737396240234375,-0.0707244873046875
1761315585223818000,1.44281787109375,-2.215576171875,-0.957366943359375,-0.184783935546875
1761315585233865200,1.452865234375,-2.3225250244140625,-0.9616546630859375,-0.171051025390625
1761315585243913200,1.462913330078125,-2.431121826171875,-1.0507965087890625,-0.068023681640625
1761315585253961000,1.4729609375,-2.5025787353515625,-1.1148223876953125,0.03619384765625
1761315585264008000,1.483008056640625,-2.453826904296875,-1.0962982177734375,0.1002197265625
1761315585274056200,1.49305615234375,-2.3425140380859375,-1.085357666015625,0.1248779296875
1761315585284103200,1.503103271484375,-2.1741180419921875,-1.12286376953125,0.151763916015625
1761315585294151200,1.513151123046875,-1.949432373046875,-1.1611328125,0.1908721923828125
1761315585304199200,1.52319921875,-1.6664581298828125,-1.1789703369140625,0.2057342529296875
1761315585314246100,1.53324609375,-1.3279266357421875,-1.1297607421875,0.1787567138671875
1761315585324294100,1.543294189453125,-0.99603271484375,-1.0513153076171875,0.1426239013671875
1761315585334342100,1.553342041015625,-0.693023681640625,-0.94793701171875,0.1151580810546875
1761315585344389000,1.56338916015625,-0.4239044189453125,-0.778900146484375,0.069854736328125
1761315585354437000,1.57343701171875,-0.2344970703125,-0.60357666015625,0.0387115478515625
1761315585364485400,1.5834853515625,-0.13446044921875,-0.4110565185546875,0.019561767578125
1761315585374532000,1.593531982421875,-0.1383514404296875,-0.1891326904296875,-0.0234527587890625
1761315585384580000,1.603580078125,-0.2028961181640625,-0.0036163330078125,-0.142822265625
1761315585394627000,1.613626953125,-0.1934814453125,0.0719146728515625,-0.0559234619140625
1761315585404675300,1.62367529296875,-0.1360015869140625,0.1126708984375,-0.07080078125
1761315585414723000,1.63372314453125,-0.1990966796875,0.1726837158203125,-0.000579833984375
1761315585424770000,1.64377001953125,-0.16607666015625,0.20123291015625,0.0996551513671875
1761315585434818300,1.653818359375,-0.1836395263671875,0.195068359375,0.18280029296875
1761315585444866300,1.6638662109375,-0.1453399658203125,0.1317291259765625,0.2460174560546875
1761315585454913000,1.6739130859375,-0.0593414306640625,0.0633697509765625,0.1722564697265625
1761315585464961000,1.6839609375,0.08599853515625,0.0357818603515625,0.118377685546875
1761315585475009300,1.69400927734375,0.204864501953125,-0.003875732421875,0.06292724609375
1761315585485056300,1.70405615234375,0.240570068359375,-0.027587890625,-0.018341064453125
1761315585495104000,1.71410400390625,0.2608184814453125,-0.02410888671875,-0.0489501953125
1761315585505152300,1.72415234375,0.2775421142578125,0.019195556640625,-0.0292816162109375
1761315585515199200,1.73419921875,0.2320404052734375,0.0343170166015625,-0.0695037841796875
1761315585525247000,1.7442470703125,0.1630706787109375,-0.0017547607421875,-0.079345703125
1761315585535295200,1.754295166015625,0.0259246826171875,-0.07171630859375,-0.08148193359375
1761315585545342200,1.76434228515625,-0.0302734375,-0.148101806640625,-0.0855255126953125
1761315585555390200,1.77439013671875,-0.1108856201171875,-0.1971282958984375,-0.0576324462890625
1761315585565437200,1.784437255859375,-0.18408203125,-0.232025146484375,-0.018798828125
1761315585575485200,1.794485107421875,-0.213623046875,-0.2688446044921875,0.0242767333984375
1761315585585533200,1.804533203125,-0.286102294921875,-0.32843017578125,0.0862274169921875
1761315585595580200,1.814580078125,-0.3514556884765625,-0.41070556640625,0.10797119140625
1761315585605628200,1.824628173828125,-0.383392333984375,-0.451416015625,0.0855255126953125
1761315585615676200,1.83467626953125,-0.4322509765625,-0.4742279052734375,0.051055908203125
1761315585625723100,1.84472314453125,-0.5218963623046875,-0.53045654296875,-0.001434326171875
1761315585635771400,1.854771484375,-0.67816162109375,-0.69482421875,-0.0048675537109375
1761315585645819100,1.864819091796875,-0.9008941650390625,-0.9451904296875,0.00238037109375
1761315585655864800,1.87486474609375,-1.104400634765625,-1.061065673828125,-0.0707855224609375
1761315585665913000,1.8849130859375,-1.2928619384765625,-0.9954833984375,-0.201019287109375
1761315585675960000,1.8949599609375,-1.5667266845703125,-0.9155426025390625,-0.2754974365234375
1761315585686008000,1.905008056640625,-1.910888671875,-0.9168853759765625,-0.2454986572265625
1761315585696056000,1.91505615234375,-2.311676025390625,-0.9922027587890625,-0.07269287109375
1761315585706103000,1.92510302734375,-2.59808349609375,-1.3250885009765625,0.16156005859375
1761315585716151000,1.935151123046875,-2.6888885498046875,-1.709075927734375,0.3717498779296875
1761315585726199000,1.945198974609375,-2.5507965087890625,-1.935211181640625,0.450225830078125
1761315585736246000,1.95524609375,-2.250640869140625,-1.82415771484375,0.303924560546875
1761315585746294000,1.9652939453125,-1.9905853271484375,-1.5258636474609375,0.060394287109375
1761315585756342000,1.975342041015625,-1.879852294921875,-1.421051025390625,-0.1019134521484375
1761315585766389200,1.98538916015625,-1.7883148193359375,-1.40863037109375,-0.1116180419921875
1761315585776437000,1.99543701171875,-1.7100830078125,-1.348846435546875,-0.088531494140625
1761315585786485000,2.005485107421875,-1.580596923828125,-1.23272705078125,-0.1026763916015625
1761315585796532000,2.015531982421875,-1.34674072265625,-1.05755615234375,-0.152984619140625
1761315585806580000,2.025580078125,-1.0905303955078125,-0.8686370849609375,-0.1719818115234375
1761315585816627000,2.035626953125,-0.88092041015625,-0.6291351318359375,-0.1602935791015625
1761315585826675000,2.045675048828125,-0.709381103515625,-0.39031982421875,-0.1571807861328125
1761315585836723200,2.05572314453125,-0.557830810546875,-0.2506561279296875,-0.148193359375
1761315585846770200,2.065770263671875,-0.419677734375,-0.1867218017578125,-0.173431396484375
1761315585856818000,2.07581787109375,-0.2490692138671875,-0.09051513671875,-0.1613922119140625
1761315585866866200,2.0858662109375,-0.038482666015625,-0.0244903564453125,-0.0909423828125
1761315585876913200,2.0959130859375,0.05975341796875,-0.04449462890625,-0.02276611328125
1761315585886961000,2.1059609375,0.1445159912109375,-0.045654296875,0.05145263671875
1761315585897009200,2.116009033203125,0.2027130126953125,-0.0117034912109375,0.1041717529296875
1761315585907056000,2.12605615234375,0.2342987060546875,-0.0057373046875,0.1406707763671875
1761315585917104000,2.136104248046875,0.2581024169921875,-0.0362701416015625,0.175689697265625
1761315585927151900,2.14615185546875,0.270721435546875,-0.0607757568359375,0.197662353515625
1761315585937199000,2.15619921875,0.2707672119140625,-0.0873260498046875,0.182098388671875
1761315585947247000,2.1662470703125,0.239227294921875,-0.124908447265625,0.15533447265625
1761315585957294000,2.176294189453125,0.1500396728515625,-0.146514892578125,0.081298828125
1761315585967342000,2.186342041015625,0.0760345458984375,-0.1360931396484375,-0.0110931396484375
1761315585977390000,2.19639013671875,-0.004608154296875,-0.1118621826171875,-0.0616912841796875
1761315585987437000,2.20643701171875,-0.13427734375,-0.0889129638671875,-0.0971527099609375
1761315585997484800,2.21648486328125,-0.2704315185546875,-0.0686798095703125,-0.1055145263671875
1761315586007533000,2.226532958984375,-0.3924713134765625,-0.0814971923828125,-0.095916748046875
1761315586017580000,2.236580078125,-0.521148681640625,-0.10748291015625,-0.06842041015625
1761315586027628000,2.2466279296875,-0.6609344482421875,-0.151580810546875,-0.0135040283203125
1761315586037676000,2.256676025390625,-0.75860595703125,-0.2102508544921875,0.0206756591796875
1761315586047723000,2.266722900390625,-0.7936248779296875,-0.266845703125,0.0302886962890625
1761315586057771000,2.27677099609375,-0.8088531494140625,-0.361328125,0.013580322265625
1761315586067818000,2.28681787109375,-0.80859375,-0.481536865234375,-0.014801025390625
1761315586077866000,2.296865966796875,-0.801116943359375,-0.5853118896484375,-0.0776519775390625
1761315586087914000,2.3069140625,-0.82464599609375,-0.7198028564453125,-0.12298583984375
1761315586097961000,2.3169609375,-0.8992919921875,-0.8655548095703125,-0.12615966796875
1761315586108009200,2.32700927734375,-1.005767822265625,-0.9459991455078125,-0.138702392578125
1761315586118057000,2.337056884765625,-1.1228790283203125,-0.964935302734375,-0.1416168212890625
1761315586128104000,2.34710400390625,-1.3187713623046875,-0.9695281982421875,-0.156524658203125
1761315586138152200,2.357152099609375,-1.5555267333984375,-0.9720611572265625,-0.1681671142578125
1761315586148200000,2.367199951171875,-1.8006134033203125,-0.97119140625,-0.1420745849609375
1761315586158247000,2.377246826171875,-1.9573211669921875,-1.0381622314453125,-0.0653839111328125
1761315586168295200,2.387295166015625,-2.03094482421875,-1.2204742431640625,0.069488525390625
1761315586178342100,2.397342041015625,-2.047882080078125,-1.3730010986328125,0.1332855224609375
1761315586188390100,2.40739013671875,-1.9667510986328125,-1.2926788330078125,0.0612335205078125
1761315586198438000,2.41743798828125,-1.891510009765625,-1.160003662109375,-0.0157470703125
1761315586208485000,2.427485107421875,-1.9114227294921875,-1.1808013916015625,-0.0511322021484375
1761315586218533000,2.437533203125,-1.9154205322265625,-1.2123870849609375,-0.0573883056640625
1761315586228580900,2.447580810546875,-1.8639068603515625,-1.22930908203125,-0.063568115234375
1761315586238628000,2.457628173828125,-1.75921630859375,-1.1905364990234375,-0.076019287109375
1761315586248676000,2.467676025390625,-1.612518310546875,-1.0904083251953125,-0.0869140625
1761315586258724000,2.47772412109375,-1.469329833984375,-0.9269256591796875,-0.090362548828125
1761315586268770800,2.487770751953125,-1.3111724853515625,-0.7388763427734375,-0.0844268798828125
1761315586278819000,2.497819091796875,-1.105865478515625,-0.5948028564453125,-0.06689453125
1761315586288866000,2.507865966796875,-0.8916015625,-0.4920501708984375,-0.04095458984375
1761315586298914000,2.5179140625,-0.6909942626953125,-0.40643310546875,-0.005950927734375
1761315586308962000,2.527962158203125,-0.518157958984375,-0.3238677978515625,0.0282135009765625
1761315586319009000,2.538009033203125,-0.3607025146484375,-0.2454376220703125,0.053497314453125
1761315586329057000,2.54805712890625,-0.2156219482421875,-0.1691436767578125,0.0584869384765625
1761315586339105000,2.55810498046875,-0.089019775390625,-0.10394287109375,0.032958984375
1761315586349152000,2.568152099609375,-0.006622314453125,-0.0636749267578125,0.0111541748046875
1761315586359200000,2.578199951171875,0.01763916015625,-0.0509490966796875,0.00341796875
1761315586369248300,2.588248291015625,-0.011871337890625,-0.0334930419921875,-0.00421142578125
1761315586379295200,2.598295166015625,-0.0885162353515625,-0.00970458984375,-0.00335693359375
1761315586389343000,2.608343017578125,-0.1367034912109375,-0.007476806640625,0.003387451171875
1761315586399390000,2.618389892578125,-0.1500396728515625,-0.006439208984375,0.0007476806640625
1761315586409438200,2.628438232421875,-0.173614501953125,0.00323486328125,0.00341796875
1761315586419486000,2.63848583984375,-0.2045440673828125,0.0120086669921875,0.0196533203125
1761315586429533000,2.648532958984375,-0.23065185546875,0.035064697265625,0.0308074951171875
1761315586439581000,2.658580810546875,-0.214599609375,0.0720672607421875,0.0308837890625
1761315586449629200,2.668629150390625,-0.1796417236328125,0.1200714111328125,0.0211181640625
1761315586459676000,2.678676025390625,-0.1592254638671875,0.141693115234375,0.014678955078125
1761315586469724000,2.688723876953125,-0.1636962890625,0.1157684326171875,0.0026702880859375
1761315586479772200,2.698772216796875,-0.159637451171875,0.081695556640625,-0.0179290771484375
1761315586489819100,2.708819091796875,-0.14849853515625,0.0861358642578125,-0.052001953125
1761315586499867000,2.718866943359375,-0.1277313232421875,0.104156494140625,-0.07000732421875
1761315586509913900,2.728913818359375,-0.1018524169921875,0.0546417236328125,-0.05145263671875
1761315586519962000,2.738962158203125,-0.03424072265625,-0.0627593994140625,0.010894775390625
1761315586530010000,2.749010009765625,0.0264892578125,-0.2147369384765625,0.0730133056640625
1761315586540056800,2.759056884765625,0.0235443115234375,-0.351654052734375,0.0788421630859375
1761315586550105000,2.76910498046875,-0.0545501708984375,-0.4029693603515625,0.00482177734375
1761315586560153000,2.779153076171875,-0.0814208984375,-0.4533233642578125,-0.06402587890625
1761315586570200000,2.789199951171875,-0.22515869140625,-0.5672454833984375,-0.0837554931640625
1761315586580248000,2.799248046875,-0.4013824462890625,-0.670745849609375,-0.1469879150390625
1761315586590296000,2.809296142578125,-0.488525390625,-0.754425048828125,-0.209930419921875
1761315586600343000,2.819343017578125,-0.6309661865234375,-0.8995513916015625,-0.2071533203125
1761315586610391000,2.82939111328125,-0.754425048828125,-1.0279541015625,-0.2080078125
1761315586620438000,2.83943798828125,-1.0045166015625,-1.110382080078125,-0.14447021484375
1761315586630486000,2.849486083984375,-1.3785552978515625,-1.2199249267578125,-0.0788116455078125
1761315586640534000,2.859533935546875,-1.8083953857421875,-1.380645751953125,-0.0441436767578125
1761315586650581200,2.869581298828125,-2.2762603759765625,-1.389129638671875,0.00799560546875
1761315586660629500,2.87962939453125,-2.7878570556640625,-1.3237457275390625,-0.012481689453125
1761315586670677500,2.889677490234375,-3.089508056640625,-1.1212310791015625,0.05694580078125
1761315586680724500,2.899724365234375,-3.1998443603515625,-1.0675201416015625,0.2247467041015625
1761315586690772200,2.909772216796875,-3.3408050537109375,-1.0429840087890625,0.3494415283203125
1761315586700820500,2.919820556640625,-3.2713775634765625,-1.036102294921875,0.4218902587890625
1761315586710867500,2.929867431640625,-3.0741424560546875,-1.081024169921875,0.3949737548828125
1761315586720915200,2.939915283203125,-2.746673583984375,-1.142242431640625,0.3206329345703125
1761315586730962400,2.94996240234375,-2.391387939453125,-1.1804656982421875,0.2621917724609375
1761315586741010400,2.960010498046875,-2.0324859619140625,-1.2142486572265625,0.2367095947265625
1761315586751058400,2.970058349609375,-1.6093597412109375,-1.195709228515625,0.2366943359375
1761315586761105400,2.98010546875,-1.1732025146484375,-1.11181640625,0.2360076904296875
1761315586771153400,2.9901533203125,-0.7956085205078125,-1.001739501953125,0.225311279296875
1761315586781201400,3.000201416015625,-0.581024169921875,-0.8160247802734375,0.123748779296875
1761315586791248400,3.010248291015625,-0.403594970703125,-0.5991668701171875,0.0078125
1761315586801296400,3.02029638671875,-0.2965850830078125,-0.4368133544921875,-0.060150146484375
1761315586811344400,3.030344482421875,-0.3149261474609375,-0.3126220703125,-0.06878662109375
1761315586821391400,3.040391357421875,-0.3102569580078125,-0.183502197265625,-0.05908203125
1761315586831439600,3.050439697265625,-0.2967071533203125,-0.0468902587890625,-0.053436279296875
1761315586841486300,3.060486328125,-0.2379150390625,0.0661773681640625,-0.06182861328125
1761315586851534300,3.070534423828125,-0.1466827392578125,0.1471099853515625,-0.0740203857421875
1761315586861582600,3.08058251953125,-0.074127197265625,0.1708526611328125,-0.074798583984375
1761315586871629600,3.090629638671875,-0.05419921875,0.157867431640625,-0.0778045654296875
1761315586881677300,3.10067724609375,-0.043670654296875,0.1378173828125,-0.0783843994140625
1761315586891725300,3.110725341796875,-0.008453369140625,0.124114990234375,-0.0715789794921875
1761315586901772500,3.1207724609375,0.0059356689453125,0.132843017578125,-0.05316162109375
1761315586911820300,3.1308203125,0.0342254638671875,0.146240234375,0.03155517578125
1761315586921867300,3.1408671875,0.0675201416015625,0.1163482666015625,0.0755615234375
1761315586931915500,3.15091552734375,0.090423583984375,0.067779541015625,0.110321044921875
1761315586941963500,3.160963623046875,0.1168975830078125,0.0517578125,0.165496826171875
1761315586952010500,3.171010498046875,0.11126708984375,0.056884765625,0.200714111328125
1761315586962058200,3.181058349609375,0.097930908203125,0.017425537109375,0.18682861328125
1761315586972106500,3.1911064453125,0.074249267578125,-0.0286712646484375,0.128509521484375
1761315586982153500,3.201153564453125,0.0641326904296875,-0.030181884765625,0.0653076171875
1761315586992201200,3.211201171875,0.066070556640625,-0.0212554931640625,-0.013824462890625
1761315587002249500,3.22124951171875,0.064849853515625,-0.04437255859375,-0.075775146484375
1761315587012296400,3.23129638671875,-0.057373046875,-0.0689697265625,-0.081695556640625
1761315587022344400,3.241344482421875,-0.2569122314453125,-0.1600341796875,-0.0263214111328125
1761315587032391400,3.251391357421875,-0.3537445068359375,-0.3297119140625,0.011199951171875
1761315587042439400,3.261439453125,-0.5313262939453125,-0.4445037841796875,0.0277557373046875
1761315587052487400,3.2714873046875,-0.719573974609375,-0.5072021484375,-0.00048828125
1761315587062534400,3.281534423828125,-0.8069610595703125,-0.552764892578125,-0.100860595703125
1761315587072582400,3.29158251953125,-0.912994384765625,-0.556854248046875,-0.2047576904296875
1761315587082630400,3.30163037109375,-1.057159423828125,-0.5690155029296875,-0.2823944091796875
1761315587092677400,3.311677490234375,-1.2151336669921875,-0.6168060302734375,-0.3283233642578125
1761315587102725600,3.3217255859375,-1.4349517822265625,-0.671600341796875,-0.352264404296875
1761315587112772400,3.3317724609375,-1.7265472412109375,-0.7099609375,-0.38153076171875
1761315587122820400,3.3418203125,-1.992279052734375,-0.7259368896484375,-0.4259796142578125
1761315587132868400,3.351868408203125,-2.16339111328125,-0.806396484375,-0.4227142333984375
1761315587142915600,3.36191552734375,-2.3303680419921875,-1.0579681396484375,-0.3134765625
1761315587152963300,3.37196337890625,-2.5537567138671875,-1.254608154296875,-0.1895599365234375
1761315587163011300,3.38201123046875,-2.6527099609375,-1.10992431640625,-0.0683441162109375
1761315587173058600,3.39205859375,-2.633087158203125,-0.975555419921875,-0.0653076171875
1761315587183106300,3.402106201171875,-2.7241363525390625,-0.84857177734375,-0.210479736328125
1761315587193154300,3.412154296875,-2.751953125,-0.7219085693359375,-0.33453369140625
1761315587203201300,3.422201171875,-2.730804443359375,-0.68365478515625,-0.3751983642578125
1761315587213249500,3.43224951171875,-2.6473541259765625,-0.6708221435546875,-0.3417816162109375
1761315587223296500,3.442296630859375,-2.5493621826171875,-0.64459228515625,-0.319976806640625
1761315587233344300,3.45234423828125,-2.2893218994140625,-0.5860595703125,-0.321990966796875
1761315587243392500,3.462392578125,-2.0048065185546875,-0.5200042724609375,-0.3565826416015625
1761315587253439500,3.472439453125,-1.6932830810546875,-0.4510498046875,-0.3580474853515625
1761315587263487200,3.4824873046875,-1.52862548828125,-0.375762939453125,-0.264129638671875
1761315587273535500,3.492535400390625,-1.603973388671875,-0.361541748046875,-0.1797332763671875
1761315587283582500,3.50258251953125,-1.356201171875,-0.353607177734375,-0.289764404296875
1761315587293630500,3.51263037109375,-1.05584716796875,-0.3128204345703125,-0.4337158203125
1761315587303677400,3.522677490234375,-0.648468017578125,-0.2278289794921875,-0.52587890625
1761315587313725400,3.532725341796875,-0.0564727783203125,-0.1892852783203125,-0.493194580078125
1761315587323773400,3.5427734375,0.170440673828125,-0.147857666015625,-0.3792572021484375
1761315587333820400,3.5528203125,0.1330718994140625,-0.0157928466796875,-0.190216064453125
1761315587343868400,3.562868408203125,0.1634063720703125,0.157318115234375,0.0206756591796875
1761315587353916400,3.57291650390625,0.292449951171875,0.2842559814453125,0.1078948974609375
1761315587363963400,3.58296337890625,0.4190673828125,0.3397979736328125,0.1483154296875
1761315587374011400,3.593011474609375,0.488861083984375,0.3380889892578125,0.2328643798828125
1761315587384058400,3.603058349609375,0.5489959716796875,0.2305450439453125,0.2601776123046875
1761315587394106400,3.6131064453125,0.6441497802734375,0.081146240234375,0.2598114013671875
1761315587404154400,3.623154296875,0.6926727294921875,0.0089111328125,0.22943115234375
1761315587414201600,3.63320166015625,0.6599578857421875,0.002685546875,0.167449951171875
1761315587424249300,3.643249267578125,0.63507080078125,0.01177978515625,0.11236572265625
1761315587434297300,3.65329736328125,0.6230926513671875,0.02716064453125,0.0788726806640625
1761315587444344600,3.663344482421875,0.554595947265625,0.0843505859375,0.0072174072265625
1761315587454392300,3.673392333984375,0.410247802734375,0.177032470703125,-0.0611419677734375
1761315587464439300,3.683439208984375,0.2433319091796875,0.2433624267578125,-0.058013916015625
1761315587474487300,3.6934873046875,0.058319091796875,0.2418060302734375,-0.0487823486328125
1761315587484535600,3.70353564453125,-0.09710693359375,0.2412872314453125,-0.0443572998046875
1761315587494582500,3.71358251953125,-0.229156494140625,0.231414794921875,-0.0567626953125
1761315587504630300,3.72363037109375,-0.324798583984375,0.0953521728515625,-0.0384521484375
1761315587514678500,3.733678466796875,-0.29901123046875,-0.192138671875,0.03558349609375
1761315587524725500,3.7437255859375,-0.2573699951171875,-0.52484130859375,0.09173583984375
1761315587534773200,3.753773193359375,-0.265899658203125,-0.82183837890625,0.1251983642578125
1761315587544821500,3.763821533203125,-0.2848358154296875,-1.0391082763671875,0.1171112060546875
1761315587554868500,3.773868408203125,-0.32244873046875,-1.188507080078125,0.139404296875
1761315587564916500,3.78391650390625,-0.263641357421875,-1.295440673828125,0.16351318359375
1761315587574963500,3.79396337890625,-0.4833221435546875,-1.429718017578125,0.2073211669921875
1761315587585011500,3.804011474609375,-0.8346710205078125,-1.3278656005859375,0.12701416015625
1761315587595059500,3.8140595703125,-1.147491455078125,-1.1450958251953125,-0.01025390625
1761315587605106400,3.8241064453125,-1.5095367431640625,-1.1028900146484375,-0.096893310546875
1761315587615154400,3.834154541015625,-1.859405517578125,-1.11383056640625,-0.117095947265625
1761315587625202400,3.844202392578125,-2.13763427734375,-1.168853759765625,-0.1237335205078125
1761315587635249400,3.85424951171875,-2.435699462890625,-1.3801422119140625,0.063385009765625
1761315587645297400,3.86429736328125,-2.6064300537109375,-1.4240264892578125,0.2684326171875
1761315587655344600,3.8743447265625,-2.665069580078125,-1.2600555419921875,0.43524169921875
1761315587665393000,3.884392822265625,-2.82867431640625,-1.162841796875,0.418792724609375
1761315587675441000,3.89444091796875,-2.9196624755859375,-0.9591064453125,0.235321044921875
1761315587685487900,3.90448779296875,-2.780120849609375,-0.7761383056640625,-0.0732879638671875
1761315587695535900,3.914535888671875,-2.5600433349609375,-0.6865692138671875,-0.2216339111328125
1761315587705583900,3.924583984375,-2.410247802734375,-0.738250732421875,-0.1536407470703125
1761315587715630800,3.934630859375,-2.189117431640625,-0.80242919921875,-0.04730224609375
1761315587725678600,3.9446787109375,-1.8427734375,-0.7374114990234375,-0.0401153564453125
1761315587735725800,3.954725830078125,-1.4884185791015625,-0.642913818359375,-0.0648345947265625
1761315587745773800,3.96477392578125,-1.15692138671875,-0.550506591796875,-0.0568695068359375
1761315587755821800,3.97482177734375,-0.8257904052734375,-0.4577484130859375,-0.03839111328125
1761315587765868800,3.984868896484375,-0.448150634765625,-0.386688232421875,-0.01397705078125
1761315587775916800,3.994916748046875,-0.11395263671875,-0.31903076171875,-0.002838134765625
1761315587785964800,4.00496484375,0.138641357421875,-0.2165069580078125,-0.023956298828125
1761315587796011800,4.01501171875,0.284637451171875,-0.110565185546875,-0.056976318359375
1761315587806059800,4.025059814453125,0.3671722412109375,-0.03131103515625,-0.0563812255859375
1761315587816106800,4.035106689453125,0.3583221435546875,0.0409088134765625,-0.014312744140625
1761315587826154800,4.04515478515625,0.2524261474609375,0.119415283203125,0.0377197265625
1761315587836202800,4.05520263671875,0.171539306640625,0.1732940673828125,0.0918121337890625
1761315587846249700,4.065249755859375,0.1123046875,0.176025390625,0.144073486328125
1761315587856297700,4.075297607421875,0.0766143798828125,0.1499786376953125,0.1856842041015625
1761315587866346000,4.085345947265625,0.0687103271484375,0.1138763427734375,0.2186126708984375
1761315587876393000,4.09539306640625,0.0747528076171875,0.06915283203125,0.2347259521484375
1761315587886440700,4.105440673828125,0.0730133056640625,0.0210723876953125,0.2340850830078125
1761315587896487700,4.11548779296875,0.0687103271484375,-0.042388916015625,0.2440338134765625
1761315587906536000,4.125535888671875,0.0218658447265625,-0.166168212890625,0.28375244140625
1761315587916583700,4.135583740234375,-0.069244384765625,-0.3773193359375,0.2925262451171875
1761315587926630700,4.145630615234375,-0.12445068359375,-0.505401611328125,0.214263916015625
1761315587936679000,4.155678955078125,-0.1248626708984375,-0.46728515625,0.032623291015625
1761315587946727000,4.165726806640625,-0.143218994140625,-0.4351959228515625,-0.11566162109375
1761315587956773600,4.175773681640625,-0.2818450927734375,-0.564666748046875,-0.1170654296875
1761315587966821600,4.185821533203125,-0.453216552734375,-0.712371826171875,-0.087127685546875
1761315587976868900,4.195868896484375,-0.581146240234375,-0.7603759765625,-0.1440582275390625
1761315587986916900,4.205916748046875,-0.700927734375,-0.7891998291015625,-0.2362518310546875
1761315587996964600,4.215964599609375,-0.8347320556640625,-0.879180908203125,-0.3315887451171875
1761315588007011800,4.22601171875,-0.9428558349609375,-0.9825286865234375,-0.461517333984375
1761315588017059800,4.236059814453125,-1.1081390380859375,-0.96881103515625,-0.6013946533203125
1761315588027107800,4.24610791015625,-1.3218994140625,-0.8466033935546875,-0.6831817626953125
1761315588037154600,4.256154541015625,-1.553619384765625,-0.6905517578125,-0.65643310546875
1761315588047202800,4.266202880859375,-1.8221893310546875,-0.5896148681640625,-0.5229949951171875
1761315588057249800,4.276249755859375,-2.0291595458984375,-0.5499725341796875,-0.41412353515625
1761315588067297800,4.2862978515625,-2.1374664306640625,-0.4953155517578125,-0.352569580078125
1761315588077345800,4.296345703125,-2.199859619140625,-0.4686737060546875,-0.31695556640625
1761315588087392800,4.306392822265625,-2.1868438720703125,-0.5852813720703125,-0.2594146728515625
1761315588097440800,4.316440673828125,-2.1204681396484375,-0.79974365234375,-0.1264190673828125
1761315588107488800,4.32648876953125,-2.095489501953125,-0.8374176025390625,-0.0610198974609375
1761315588117535700,4.33653564453125,-1.9688568115234375,-0.8224945068359375,0.00732421875
1761315588127583700,4.346583740234375,-1.7852630615234375,-0.841796875,0.0410308837890625
1761315588137630700,4.356630615234375,-1.6190948486328125,-0.776611328125,-0.0373382568359375
1761315588147679000,4.366678955078125,-1.5000762939453125,-0.7430572509765625,-0.11895751953125
1761315588157726700,4.376726806640625,-1.4401702880859375,-0.788116455078125,-0.1328887939453125
1761315588167773700,4.386773681640625,-1.369049072265625,-0.821075439453125,-0.111785888671875
1761315588177822000,4.396822021484375,-1.2347869873046875,-0.82177734375,-0.0850677490234375
1761315588187869700,4.40686962890625,-1.0920562744140625,-0.8044586181640625,-0.0565185546875
1761315588197916700,4.416916748046875,-0.972625732421875,-0.76348876953125,-0.0505218505859375
1761315588207965000,4.42696484375,-0.8848114013671875,-0.6551055908203125,-0.106536865234375
1761315588218012000,4.437011962890625,-0.7230224609375,-0.4985504150390625,-0.2288970947265625
1761315588228059600,4.4470595703125,-0.635772705078125,-0.3776397705078125,-0.246856689453125
1761315588238107600,4.457107666015625,-0.621124267578125,-0.30255126953125,-0.2029571533203125
1761315588248155000,4.46715478515625,-0.5477142333984375,-0.232940673828125,-0.125274658203125
1761315588258203000,4.477202880859375,-0.453704833984375,-0.181915283203125,-0.0327911376953125
1761315588268249900,4.487249755859375,-0.3421783447265625,-0.1158294677734375,0.0400543212890625
1761315588278297900,4.4972978515625,-0.2219085693359375,-0.052093505859375,0.096160888671875
1761315588288345900,4.507345947265625,-0.087982177734375,-0.0368194580078125,0.1240386962890625
1761315588298392800,4.517392822265625,0.0186920166015625,-0.07147216796875,0.0879058837890625
1761315588308440600,4.527440673828125,0.0659332275390625,-0.097198486328125,0.026214599609375
1761315588318488800,4.53748876953125,0.035003662109375,-0.108306884765625,-0.016876220703125
1761315588328535800,4.547535888671875,-0.0211029052734375,-0.121917724609375,-0.050384521484375
1761315588338583800,4.557583740234375,-0.043670654296875,-0.1487579345703125,-0.0666656494140625
1761315588348630800,4.567630859375,-0.09228515625,-0.173248291015625,-0.0491943359375
1761315588358678800,4.5776787109375,-0.1445465087890625,-0.198516845703125,-0.005645751953125
1761315588368726800,4.587726806640625,-0.1825714111328125,-0.20989990234375,0.040618896484375
1761315588378773800,4.597773681640625,-0.2098388671875,-0.2171478271484375,0.064788818359375
1761315588388821800,4.60782177734375,-0.198577880859375,-0.2214202880859375,0.0786895751953125
1761315588398869800,4.617869873046875,-0.168121337890625,-0.2352142333984375,0.0990142822265625
1761315588408916700,4.627916748046875,-0.1526641845703125,-0.2601470947265625,0.09661865234375
1761315588418964700,4.63796484375,-0.1638946533203125,-0.28717041015625,0.0795135498046875
1761315588429011700,4.64801171875,-0.1772918701171875,-0.3265838623046875,0.045501708984375
1761315588439059700,4.658059814453125,-0.18414306640625,-0.367401123046875,0.02752685546875
1761315588449108000,4.66810791015625,-0.2160797119140625,-0.415435791015625,0.0399932861328125
1761315588459155000,4.678155029296875,-0.2405853271484375,-0.4830474853515625,0.0718536376953125
1761315588469202700,4.68820263671875,-0.2640838623046875,-0.5488739013671875,0.11187744140625
1761315588479249700,4.698249755859375,-0.2853851318359375,-0.6388397216796875,0.141876220703125
1761315588489298000,4.7082978515625,-0.323089599609375,-0.7555389404296875,0.1464691162109375
1761315588499345700,4.718345703125,-0.4085235595703125,-0.8678741455078125,0.123748779296875
1761315588509392600,4.728392578125,-0.5055999755859375,-0.988189697265625,0.1136627197265625
1761315588519441000,4.73844091796875,-0.604034423828125,-1.0888519287109375,0.089752197265625
1761315588529489000,4.748489013671875,-0.72161865234375,-1.1756134033203125,0.101959228515625
1761315588539532800,4.75853271484375,-0.9116363525390625,-1.22955322265625,0.1502227783203125
1761315588549580800,4.768580810546875,-1.1035003662109375,-1.271392822265625,0.19073486328125
1761315588559628800,4.77862890625,-1.2960205078125,-1.336212158203125,0.23284912109375
1761315588569675800,4.78867578125,-1.447265625,-1.463104248046875,0.2618408203125
1761315588579723800,4.798723876953125,-1.5832366943359375,-1.4808502197265625,0.2195892333984375
1761315588589770800,4.808770751953125,-1.7769012451171875,-1.4238128662109375,0.157135009765625
1761315588599818800,4.81881884765625,-1.963348388671875,-1.4568023681640625,0.0860748291015625
1761315588609866800,4.82886669921875,-2.1193695068359375,-1.4722900390625,0.006805419921875
1761315588619913700,4.838913818359375,-2.215240478515625,-1.4321136474609375,-0.0612030029296875
1761315588629961700,4.848961669921875,-2.2081451416015625,-1.3721466064453125,-0.09259033203125
1761315588640010000,4.859010009765625,-2.1144561767578125,-1.2750091552734375,-0.117523193359375
1761315588650057000,4.869056884765625,-1.91888427734375,-1.152191162109375,-0.1146697998046875
1761315588660104400,4.8791044921875,-1.6962890625,-1.0041961669921875,-0.1098480224609375
1761315588670151400,4.8891513671875,-1.4866790771484375,-0.872161865234375,-0.1306610107421875
1761315588680199400,4.899199462890625,-1.2721099853515625,-0.7806243896484375,-0.1622314453125
1761315588690247400,4.909247314453125,-1.0753173828125,-0.702667236328125,-0.167816162109375
1761315588700294400,4.91929443359375,-0.908050537109375,-0.6255340576171875,-0.141937255859375
1761315588710342400,4.92934228515625,-0.7403106689453125,-0.5550689697265625,-0.0994720458984375
1761315588720389400,4.939389404296875,-0.5987396240234375,-0.4739990234375,-0.0741424560546875
1761315588730437600,4.949437744140625,-0.479736328125,-0.37823486328125,-0.05828857421875
1761315588740485400,4.9594853515625,-0.3458404541015625,-0.2989959716796875,-0.0595703125
1761315588750532400,4.969532470703125,-0.217559814453125,-0.22039794921875,-0.0931243896484375
1761315588760580400,4.979580322265625,-0.1013336181640625,-0.1475372314453125,-0.1065826416015625
1761315588770628400,4.98962841796875,-0.0178680419921875,-0.1037445068359375,-0.1112518310546875
1761315588780675300,4.99967529296875,0.014892578125,-0.0833740234375,-0.122039794921875
1761315588790723300,5.009723388671875,0.044525146484375,-0.0770263671875,-0.07562255859375
1761315588800770600,5.0197705078125,0.067108154296875,-0.1043548583984375,-0.01068115234375
1761315588810818600,5.029818603515625,0.0999298095703125,-0.147979736328125,0.0521392822265625
1761315588820866300,5.0398662109375,0.1398162841796875,-0.18963623046875,0.0994415283203125
1761315588830913300,5.049913330078125,0.1893768310546875,-0.2284088134765625,0.144317626953125
1761315588840961500,5.05996142578125,0.2122344970703125,-0.2799530029296875,0.1574554443359375
1761315588851008500,5.070008544921875,0.249359130859375,-0.29876708984375,0.132293701171875
1761315588861056300,5.08005615234375,0.2669677734375,-0.2928466796875,0.1051025390625
1761315588871104500,5.0901044921875,0.2273712158203125,-0.3281097412109375,0.1217803955078125
1761315588881151500,5.1001513671875,0.091156005859375,-0.4246673583984375,0.1256256103515625
1761315588891199200,5.11019921875,-0.05291748046875,-0.1717987060546875,-0.0313568115234375
1761315588901247500,5.12024755859375,-0.3189544677734375,-0.0918731689453125,-0.007965087890625
1761315588911294500,5.13029443359375,-0.4761962890625,-0.15618896484375,0.0958099365234375
1761315588921342500,5.140342529296875,-0.4381866455078125,-0.2243194580078125,0.10748291015625
1761315588931389400,5.150389404296875,-0.8507080078125,-0.4941558837890625,0.112060546875
1761315588941437400,5.1604375,-0.8688507080078125,-0.6502227783203125,0.2020416259765625
1761315588951485400,5.1704853515625,-1.10150146484375,-0.3716278076171875,-0.0015869140625
1761315588961532400,5.180532470703125,-1.4128875732421875,-0.1739349365234375,-0.187103271484375
1761315588971580400,5.190580322265625,-1.414886474609375,-0.354736328125,-0.06549072265625
1761315588981627400,5.20062744140625,-1.281036376953125,-0.4452056884765625,0.0494384765625
1761315588991675400,5.21067529296875,-1.3380584716796875,-0.35675048828125,-0.037139892578125
1761315589001723400,5.220723388671875,-1.3759918212890625,-0.4254150390625,-0.0286865234375
1761315589011770400,5.230770263671875,-1.3645477294921875,-0.4989776611328125,-0.0311431884765625
1761315589021818400,5.240818359375,-1.2873077392578125,-0.5608062744140625,-0.0116424560546875
1761315589031866400,5.250866455078125,-1.1799163818359375,-0.6262054443359375,0.039794921875
1761315589041913600,5.26091357421875,-1.0814666748046875,-0.7730255126953125,0.11920166015625
1761315589051961300,5.27096142578125,-1.089508056640625,-0.901611328125,0.17205810546875
1761315589062008300,5.28100830078125,-1.2139892578125,-0.7950439453125,0.213592529296875
1761315589072056300,5.291056396484375,-1.3171844482421875,-1.06634521484375,0.3917083740234375
1761315589082104300,5.301104248046875,-1.6664886474609375,-1.372528076171875,0.4928436279296875
1761315589092151300,5.3111513671875,-1.86578369140625,-1.495513916015625,0.4454498291015625
1761315589102199300,5.32119921875,-1.8817901611328125,-1.055938720703125,0.176422119140625
1761315589112246500,5.33124658203125,-1.87872314453125,-0.682098388671875,-0.0242462158203125
1761315589122294500,5.34129443359375,-1.8506011962890625,-0.6150360107421875,-0.1329803466796875
1761315589132342300,5.35134228515625,-1.7622528076171875,-0.57537841796875,-0.1001434326171875
1761315589142390500,5.361390625,-1.6408538818359375,-0.62664794921875,-0.04669189453125
1761315589152438500,5.3714384765625,-1.4940185546875,-0.6517486572265625,-0.0099334716796875
1761315589162485200,5.3814853515625,-1.33184814453125,-0.530303955078125,0.0192108154296875
1761315589172533500,5.391533447265625,-1.1671142578125,-0.451690673828125,0.048095703125
1761315589182581500,5.40158154296875,-1.0470733642578125,-0.412841796875,0.064697265625
1761315589192628500,5.41162841796875,-0.93438720703125,-0.37493896484375,0.0797119140625
1761315589202676200,5.42167626953125,-0.85540771484375,-0.3399200439453125,0.0890960693359375
1761315589212724500,5.431724365234375,-0.8023834228515625,-0.27862548828125,0.08477783203125
1761315589222771500,5.441771484375,-0.7463531494140625,-0.1895599365234375,0.0718841552734375
1761315589232819200,5.451819091796875,-0.71661376953125,-0.1033935546875,0.029205322265625
1761315589242866400,5.461866455078125,-0.638153076171875,-0.07537841796875,-0.009002685546875
1761315589252914400,5.47191455078125,-0.512420654296875,-0.041839599609375,-0.050201416015625
1761315589262962400,5.48196240234375,-0.3752288818359375,-0.019073486328125,-0.0713043212890625
1761315589273009400,5.492009521484375,-0.2601470947265625,-0.0214691162109375,-0.066253662109375
1761315589283057400,5.502057373046875,-0.19091796875,-0.044830322265625,-0.0606536865234375
1761315589293104400,5.5121044921875,-0.1458740234375,-0.0853271484375,-0.040130615234375
1761315589303152400,5.52215234375,-0.159393310546875,-0.11944580078125,-0.0081329345703125
1761315589313200400,5.532200439453125,-0.2346649169921875,-0.1484375,0.019012451171875
1761315589323247400,5.542247314453125,-0.317047119140625,-0.1988372802734375,0.044525146484375
1761315589333295400,5.55229541015625,-0.357269287109375,-0.2571563720703125,0.0585174560546875
1761315589343342300,5.56234228515625,-0.37353515625,-0.2939300537109375,0.06072998046875
1761315589353390300,5.572390380859375,-0.3823394775390625,-0.308441162109375,0.0548248291015625
1761315589363438300,5.582438232421875,-0.385345458984375,-0.3172454833984375,0.0458221435546875
1761315589373485300,5.5924853515625,-0.4034271240234375,-0.3533477783203125,0.044403076171875
1761315589383533600,5.602533447265625,-0.435546875,-0.403411865234375,0.059173583984375
1761315589393580500,5.61258056640625,-0.479217529296875,-0.477935791015625,0.0755462646484375
1761315589403628300,5.622628173828125,-0.5334930419921875,-0.531158447265625,0.08917236328125
1761315589413676500,5.632676513671875,-0.6192626953125,-0.50164794921875,0.093048095703125
1761315589423723500,5.6427236328125,-0.7022247314453125,-0.4674072265625,0.1168670654296875
1761315589433771300,5.652771240234375,-0.741424560546875,-0.5225372314453125,0.1349639892578125
1761315589443819500,5.662819580078125,-0.7189178466796875,-0.6434326171875,0.12078857421875
1761315589453866500,5.672866455078125,-0.724273681640625,-0.706207275390625,0.096832275390625
1761315589463914500,5.68291455078125,-0.79290771484375,-0.6833953857421875,0.0760650634765625
1761315589473961500,5.69296142578125,-0.84832763671875,-0.6905975341796875,0.0749969482421875
1761315589484009500,5.703009521484375,-0.8932952880859375,-0.7776641845703125,0.104278564453125
1761315589494057500,5.713057373046875,-1.013214111328125,-0.8223724365234375,0.1103515625
1761315589504104400,5.7231044921875,-1.126983642578125,-0.7987823486328125,0.0975189208984375
1761315589514152400,5.73315234375,-1.13555908203125,-0.7879180908203125,0.077056884765625
1761315589524199400,5.743199462890625,-1.1676483154296875,-0.7742156982421875,0.0426483154296875
1761315589534247400,5.753247314453125,-1.2437744140625,-0.7513885498046875,0.022430419921875
1761315589544295400,5.76329541015625,-1.286346435546875,-0.706451416015625,0.003204345703125
1761315589554342400,5.77334228515625,-1.2812347412109375,-0.6295013427734375,-0.00897216796875
1761315589564390400,5.783390380859375,-1.2550048828125,-0.576141357421875,-0.0040435791015625
1761315589574437400,5.793437255859375,-1.2462005615234375,-0.5420379638671875,0.0173187255859375
1761315589584485400,5.8034853515625,-1.256927490234375,-0.51904296875,0.027923583984375
1761315589594533400,5.813533447265625,-1.2025146484375,-0.51727294921875,0.0268402099609375
1761315589604580400,5.823580322265625,-1.114715576171875,-0.5191192626953125,0.01885986328125
1761315589614628400,5.83362841796875,-1.090728759765625,-0.466033935546875,-0.0125579833984375
1761315589624675600,5.843675537109375,-1.0708160400390625,-0.38226318359375,-0.02667236328125
1761315589634723300,5.853723388671875,-1.0222930908203125,-0.339202880859375,-0.0144500732421875
1761315589644771300,5.863771240234375,-0.9729461669921875,-0.30401611328125,0.0078125
1761315589654818300,5.873818359375,-0.915313720703125,-0.275360107421875,0.0487060546875
1761315589664866600,5.883866455078125,-0.849884033203125,-0.286468505859375,0.094635009765625
1761315589674913800,5.893913818359375,-0.7955322265625,-0.31671142578125,0.1324920654296875
1761315589684961800,5.9039619140625,-0.7598724365234375,-0.3383331298828125,0.166351318359375
1761315589695009800,5.914009765625,-0.74517822265625,-0.3487701416015625,0.187896728515625
1761315589705056800,5.924056884765625,-0.7584686279296875,-0.3548431396484375,0.1908111572265625
1761315589715104800,5.934104736328125,-0.793670654296875,-0.346923828125,0.1807098388671875
1761315589725152800,5.94415283203125,-0.8295745849609375,-0.3269805908203125,0.1684417724609375
1761315589735199700,5.95419970703125,-0.85931396484375,-0.322418212890625,0.1565093994140625
1761315589745247700,5.964247802734375,-0.8690032958984375,-0.3315887451171875,0.138946533203125
1761315589755294700,5.974294677734375,-0.8427734375,-0.3393707275390625,0.1249847412109375
1761315589765342700,5.9843427734375,-0.83660888671875,-0.3413238525390625,0.1232757568359375
1761315589775391000,5.994390869140625,-0.8331298828125,-0.324615478515625,0.1199951171875
1761315589785437700,6.004437744140625,-0.8127593994140625,-0.2643585205078125,0.1594085693359375
1761315589795485700,6.014485595703125,-1.0199127197265625,-0.2964324951171875,0.21771240234375
1761315589805532700,6.02453271484375,-1.0626068115234375,-0.336639404296875,0.233184814453125
1761315589815581000,6.034580810546875,-1.0126800537109375,-0.3762664794921875,0.1986083984375
1761315589825628700,6.044628662109375,-0.954010009765625,-0.3575286865234375,0.1342926025390625
1761315589835675600,6.054675537109375,-0.903533935546875,-0.3470458984375,0.0568389892578125
1761315589845724000,6.064723876953125,-0.88751220703125,-0.356842041015625,0.0113372802734375
1761315589855771000,6.07477099609375,-0.887847900390625,-0.3204803466796875,-0.0010833740234375
