time,seconds_elapsed,z,y,x
1761315583837241000,0.056240966796875,-0.006974286399781704,-0.06782086193561554,-0.1071309819817543
1761315583847289000,0.0662890625,-0.06521708518266678,-0.022492259740829468,-0.13603399693965912
1761315583857337300,0.07633740234375,-0.13313435018062592,0.02618366666138172,-0.1543205976486206
1761315583867384300,0.08638427734375,-0.18980136513710022,0.03476916626095772,-0.15447372198104858
1761315583877432000,0.09643212890625,-0.23372140526771545,-0.015687083825469017,-0.1415424793958664
1761315583887480300,0.106480224609375,-0.2417931854724884,-0.08242190629243851,-0.11618705838918686
1761315583897527300,0.11652734375,-0.1648123860359192,-0.21620100736618042,-0.10923221707344055
1761315583907575000,0.126574951171875,-0.0965299978852272,-0.3248782157897949,-0.13486939668655396
1761315583917623000,0.136623046875,-0.12345482409000397,-0.24792511761188507,-0.14774365723133087
1761315583927670300,0.146670166015625,-0.1630062311887741,-0.12754571437835693,-0.15131521224975586
1761315583937718300,0.15671826171875,-0.17601364850997925,-0.07911372929811478,-0.1481175571680069
1761315583947766000,0.16676611328125,-0.19865183532238007,-0.012343218550086021,-0.14205460250377655
1761315583957813200,0.176813232421875,-0.24676451086997986,0.13360732793807983,-0.1773177981376648
1761315583967861200,0.186861328125,-0.2599064111709595,0.207414448261261,-0.1611635833978653
1761315583977909000,0.196908935546875,-0.2652095556259155,0.21634162962436676,-0.16117450594902039
1761315583987956000,0.2069560546875,-0.2644079625606537,0.15456613898277283,-0.2133314460515976
1761315583998004200,0.217004150390625,-0.2516056001186371,0.07483402639627457,-0.2945783734321594
1761315584008051200,0.22705126953125,-0.25344717502593994,-0.0012199940392747521,-0.3769310414791107
1761315584018099000,0.237098876953125,-0.26921841502189636,-0.04253041744232178,-0.4413079023361206
1761315584028147200,0.247147216796875,-0.28057652711868286,-0.06253155320882797,-0.48303350806236267
1761315584038194200,0.257194091796875,-0.26569533348083496,-0.03332493454217911,-0.5122150778770447
1761315584048242200,0.2672421875,-0.25171664357185364,0.04193573072552681,-0.5016311407089233
1761315584058290200,0.277290283203125,-0.2410682737827301,0.12971697747707367,-0.44585445523262024
1761315584068337200,0.287337158203125,-0.224001944065094,0.21470192074775696,-0.34365642070770264
1761315584078385200,0.29738525390625,-0.18354105949401855,0.2770816683769226,-0.20754386484622955
1761315584088433200,0.30743310546875,-0.09997453540563583,0.2413681447505951,-0.04688148945569992
1761315584098480000,0.317480224609375,-0.00771704176440835,0.0938418060541153,0.13900448381900787
1761315584108528000,0.327528076171875,0.09218958020210266,-0.09691349416971207,0.3577496111392975
1761315584118576000,0.337576171875,0.22082318365573883,-0.27898716926574707,0.5850144624710083
1761315584128623400,0.347623291015625,0.3050866723060608,-0.3414265811443329,0.8107530474662781
1761315584138671000,0.357671142578125,0.3166101574897766,-0.24891501665115356,1.0477317571640015
1761315584148719000,0.367718994140625,0.3262273669242859,-0.07817336171865463,1.263834834098816
1761315584158766300,0.377766357421875,0.349491685628891,0.1526385396718979,1.4550607204437256
1761315584168814000,0.38781396484375,0.3836195766925812,0.42811593413352966,1.6057268381118774
1761315584178862000,0.397862060546875,0.4197874069213867,0.7107588052749634,1.6894323825836182
1761315584188909000,0.407908935546875,0.424621045589447,1.0186800956726074,1.6787302494049072
1761315584198957300,0.417957275390625,0.44796764850616455,1.1937763690948486,1.549422025680542
1761315584209004300,0.42800439453125,0.3445320725440979,1.1871120929718018,1.3075907230377197
1761315584219052000,0.438052001953125,0.23763225972652435,1.1505903005599976,1.1326112747192383
1761315584229100300,0.448100341796875,0.27992352843284607,1.124042272567749,1.0105607509613037
1761315584239147300,0.458147216796875,0.3994603157043457,0.7613918781280518,0.8324517011642456
1761315584249195000,0.468195068359375,0.4252365231513977,0.2484196573495865,0.6632357835769653
1761315584259243300,0.4782431640625,0.3744684159755707,-0.1630363166332245,0.5604901909828186
1761315584269290200,0.488290283203125,0.3286929428577423,-0.526383101940155,0.46584680676460266
1761315584279338200,0.498338134765625,0.31250864267349243,-0.7313234806060791,0.36019039154052734
1761315584289386200,0.50838623046875,0.28647303581237793,-0.6939049959182739,0.26954999566078186
1761315584299433200,0.51843310546875,0.2657853364944458,-0.5317035913467407,0.2021203488111496
1761315584309481200,0.528481201171875,0.27983057498931885,-0.29231229424476624,0.164566308259964
1761315584319529000,0.538529052734375,0.2957901060581207,-0.11361284554004669,0.12601998448371887
1761315584329576200,0.548576171875,0.29193437099456787,-0.038716770708560944,0.057906974107027054
1761315584339624200,0.558624267578125,0.26203668117523193,-0.0536605641245842,-0.0586225651204586
1761315584349672200,0.568672119140625,0.19864171743392944,-0.03881743550300598,-0.2275487333536148
1761315584359719200,0.57871923828125,0.10023419559001923,0.08482487499713898,-0.4200097918510437
1761315584369767200,0.58876708984375,0.008847021497786045,0.25324371457099915,-0.6225565075874329
1761315584379814100,0.598814208984375,-0.05643078684806824,0.547154426574707,-0.8138428330421448
1761315584389862100,0.608862060546875,-0.0889250785112381,0.6936085820198059,-1.004873275756836
1761315584399910100,0.61891015625,-0.062191735953092575,0.7838519215583801,-1.1538262367248535
1761315584409957000,0.62895703125,-0.055815860629081726,0.8692898750305176,-1.269591212272644
1761315584420005000,0.639005126953125,-0.09495900571346283,0.9944975972175598,-1.329981803894043
1761315584430053000,0.64905322265625,-0.18735045194625854,1.0819097757339478,-1.3125940561294556
1761315584440100000,0.65910009765625,-0.29198843240737915,0.867768406867981,-1.260408878326416
1761315584450148000,0.669148193359375,-0.21469126641750336,-0.13309787213802338,-1.3639512062072754
1761315584460196400,0.6791962890625,-0.07297886908054352,-0.8979582786560059,-1.457298755645752
1761315584470243300,0.689243408203125,-0.06736918538808823,-1.0695617198944092,-1.4753278493881226
1761315584480291000,0.699291015625,-0.16147571802139282,-1.011067271232605,-1.4608471393585205
1761315584490339000,0.709339111328125,-0.33323174715042114,-0.7748733162879944,-1.4178619384765625
1761315584500386300,0.71938623046875,-0.57794189453125,-0.5815960168838501,-1.3249309062957764
1761315584510434000,0.72943408203125,-0.856633722782135,-0.5884238481521606,-1.0852926969528198
1761315584520481000,0.73948095703125,-1.0957387685775757,-0.5971488952636719,-0.7458757758140564
1761315584530529300,0.749529296875,-1.237036943435669,-0.5597772598266602,-0.4757678806781769
1761315584540577300,0.759577392578125,-1.215362310409546,-0.47505122423171997,-0.3429624140262604
1761315584550624300,0.769624267578125,-0.9806296825408936,-0.12396535277366638,-0.1472938507795334
1761315584560672000,0.779672119140625,-0.6402934193611145,0.3868531882762909,0.09896572679281235
1761315584570720300,0.78972021484375,-0.32886284589767456,0.9461066126823425,0.3724744915962219
1761315584580767200,0.799767333984375,-0.12348172068595886,1.3391926288604736,0.5476857423782349
1761315584590815000,0.80981494140625,-0.07724019140005112,1.3039579391479492,0.5060344338417053
1761315584600863200,0.81986328125,-0.17072246968746185,0.9017037153244019,0.27026450634002686
1761315584610910200,0.82991015625,-0.284000039100647,0.48721837997436523,0.01854039542376995
1761315584620958200,0.839958251953125,-0.3848957419395447,0.20432117581367493,-0.12197224795818329
1761315584631006200,0.850006103515625,-0.4402173161506653,0.0032708945218473673,-0.2065877914428711
1761315584641053200,0.86005322265625,-0.43431922793388367,-0.126326784491539,-0.2580808103084564
1761315584651102000,0.87010205078125,-0.4002739191055298,-0.2478896975517273,-0.1994587779045105
1761315584661150200,0.880150146484375,-0.3559362590312958,-0.23032987117767334,-0.031207187101244926
1761315584671197200,0.890197265625,-0.3781408965587616,-0.23232725262641907,0.20189690589904785
1761315584681245200,0.9002451171875,-0.46252796053886414,-0.3906918466091156,0.41035184264183044
1761315584691292200,0.910292236328125,-0.5852296352386475,-0.7351070046424866,0.543495237827301
1761315584701340200,0.920340087890625,-0.7030055522918701,-1.3432414531707764,0.5739426612854004
1761315584711388200,0.93038818359375,-0.7839645743370056,-1.8325531482696533,0.4903161823749542
1761315584721435100,0.94043505859375,-0.7688713669776917,-1.9465467929840088,0.26376453042030334
1761315584731483100,0.950483154296875,-0.6302834153175354,-1.7794007062911987,-0.14012648165225983
1761315584741531100,0.96053125,-0.3117919862270355,-0.9610794186592102,-0.6576932072639465
1761315584751578000,0.970578125,0.22617773711681366,-0.3911493718624115,-0.81389981508255
1761315584761626400,0.98062646484375,0.6870436072349548,0.2386607825756073,-0.7908315658569336
1761315584771674000,0.990674072265625,1.022736668586731,0.7908384799957275,-0.6203977465629578
1761315584781721000,1.00072119140625,1.212733268737793,1.2426365613937378,-0.23902297019958496
1761315584791769300,1.010769287109375,1.2838947772979736,1.2392247915267944,0.08804703503847122
1761315584801817000,1.020817138671875,1.3162487745285034,0.7562730312347412,0.2519603371620178
1761315584811864000,1.030864013671875,1.2531567811965942,0.2215275913476944,0.3777294456958771
1761315584821912000,1.040912109375,1.1028906106948853,-0.3570052683353424,0.5044437050819397
1761315584831959300,1.050959228515625,0.8832549452781677,-0.8849881291389465,0.6242271065711975
1761315584842007000,1.061007080078125,0.740524411201477,-1.0970662832260132,0.7626635432243347
1761315584852055000,1.071054931640625,0.669321596622467,-1.2255561351776123,0.8184868693351746
1761315584862102300,1.081102294921875,0.5942724347114563,-1.3034085035324097,0.7751005291938782
1761315584872150300,1.091150390625,0.5011073350906372,-1.2938789129257202,0.6649793386459351
1761315584882198000,1.101197998046875,0.46707209944725037,-1.2623449563980103,0.5026050806045532
1761315584892245000,1.111244873046875,0.4429337680339813,-1.3270717859268188,0.24945217370986938
1761315584902293200,1.121293212890625,0.500599205493927,-1.4821878671646118,-0.07252400368452072
1761315584912341000,1.131341064453125,0.6649731993675232,-1.631059169769287,-0.45418694615364075
1761315584922388000,1.141387939453125,0.8312181234359741,-1.5775638818740845,-0.8117333650588989
1761315584932436200,1.151436279296875,0.8839915990829468,-1.3590513467788696,-0.9448773264884949
1761315584942484200,1.161484130859375,0.8044245839118958,-1.1268473863601685,-0.9084974527359009
1761315584952531200,1.17153125,0.6768738031387329,-0.8925544619560242,-0.6915494203567505
1761315584962579200,1.1815791015625,0.5548235177993774,-0.5736553072929382,-0.43039292097091675
1761315584972626200,1.191626220703125,0.4422605037689209,-0.22963052988052368,-0.1827823370695114
1761315584982674200,1.201674072265625,0.3480154871940613,0.16193270683288574,-0.009547964669764042
1761315584992722200,1.21172216796875,0.2862730324268341,0.6431235671043396,0.05835838243365288
1761315585002769200,1.22176904296875,0.2992469072341919,1.1773425340652466,0.04644632712006569
1761315585012817200,1.231817138671875,0.3823558986186981,1.6837077140808105,0.004294879734516144
1761315585022865200,1.241865234375,0.5339068174362183,2.0307443141937256,-0.01474539004266262
1761315585032912100,1.251912109375,0.713097870349884,2.225637912750244,0.016685236245393753
1761315585042960100,1.261960205078125,0.7815296649932861,1.94890558719635,0.07243611663579941
1761315585053008100,1.272008056640625,0.5791456699371338,1.0541915893554688,0.05505712702870369
1761315585063055400,1.282055419921875,0.43657225370407104,-0.06081061810255051,0.11064714938402176
1761315585073103000,1.29210302734375,0.5240629315376282,-1.0287405252456665,0.2878038287162781
1761315585083151000,1.302151123046875,0.788037896156311,-1.72230863571167,0.5423548817634583
1761315585093198000,1.312197998046875,1.1071666479110718,-1.7955952882766724,0.8689524531364441
1761315585103246300,1.322246337890625,1.138246774673462,-0.1710316687822342,1.2566591501235962
1761315585113294000,1.332294189453125,0.7527430057525635,1.095747709274292,1.640622854232788
1761315585123341000,1.342341064453125,0.08463285863399506,1.732638955116272,1.8040820360183716
1761315585133389300,1.352389404296875,-0.5211350917816162,1.2754789590835571,1.654246211051941
1761315585143436300,1.362436279296875,-0.9180571436882019,0.3519282042980194,1.2978888750076294
1761315585153484000,1.372484130859375,-1.0673227310180664,-0.37224680185317993,0.9637929201126099
1761315585163532300,1.3825322265625,-1.0350193977355957,-0.8565261363983154,0.7463487386703491
1761315585173579300,1.392579345703125,-0.9571936130523682,-0.9864580035209656,0.6292985677719116
1761315585183627000,1.402626953125,-0.8293613791465759,-0.7866618037223816,0.4938318133354187
1761315585193675000,1.412675048828125,-0.6478152871131897,-0.3494565188884735,0.17378084361553192
1761315585203722200,1.42272216796875,-0.28698810935020447,0.5518202781677246,-0.21461856365203857
1761315585213770200,1.432770263671875,0.19050124287605286,1.3718602657318115,-0.18702101707458496
1761315585223818000,1.44281787109375,0.43567636609077454,2.280003070831299,0.1030358374118805
1761315585233865200,1.452865234375,0.5327041149139404,3.0321197509765625,0.3706377148628235
1761315585243913200,1.462913330078125,0.6234899759292603,3.3162789344787598,0.48177570104599
1761315585253961000,1.4729609375,0.7209749817848206,3.172438621520996,0.5505563616752625
1761315585264008000,1.483008056640625,0.7652412056922913,2.854590892791748,0.7435018420219421
1761315585274056200,1.49305615234375,0.7950723767280579,2.4384825229644775,1.1122926473617554
1761315585284103200,1.503103271484375,0.7524239420890808,1.9542579650878906,1.5734946727752686
1761315585294151200,1.513151123046875,0.6475194096565247,1.39857816696167,1.9952623844146729
1761315585304199200,1.52319921875,0.5336871147155762,0.7948175072669983,2.1594090461730957
1761315585314246100,1.53324609375,0.4280693233013153,0.15955424308776855,1.8548855781555176
1761315585324294100,1.543294189453125,0.35882845520973206,-0.31865599751472473,1.1933754682540894
1761315585334342100,1.553342041015625,0.3689489960670471,-0.39025962352752686,0.44710612297058105
1761315585344389000,1.56338916015625,0.48806580901145935,-0.12003426253795624,-0.23280155658721924
1761315585354437000,1.57343701171875,0.6502882838249207,0.2639496326446533,-0.7615538239479065
1761315585364485400,1.5834853515625,0.719448447227478,0.4579579830169678,-1.1111924648284912
1761315585374532000,1.593531982421875,0.5287381410598755,0.43248483538627625,-1.3126622438430786
1761315585384580000,1.603580078125,0.17109452188014984,0.31118690967559814,-1.194049596786499
1761315585394627000,1.613626953125,-0.13947400450706482,0.29323747754096985,-0.7641059160232544
1761315585404675300,1.62367529296875,-0.3660925030708313,-0.1078774631023407,-0.154906764626503
1761315585414723000,1.63372314453125,-0.5308753252029419,-0.7996039986610413,0.5409777760505676
1761315585424770000,1.64377001953125,-0.5082147717475891,-1.6368099451065063,1.1982344388961792
1761315585434818300,1.653818359375,-0.3177265524864197,-2.4496898651123047,1.8099247217178345
1761315585444866300,1.6638662109375,0.024832112714648247,-3.0113720893859863,2.3836138248443604
1761315585454913000,1.6739130859375,0.2288539558649063,-3.0940639972686768,2.791015386581421
1761315585464961000,1.6839609375,0.26077327132225037,-2.713438034057617,2.9436936378479004
1761315585475009300,1.69400927734375,0.23701095581054688,-2.3323521614074707,2.745927333831787
1761315585485056300,1.70405615234375,0.09782882779836655,-2.108802556991577,2.2673919200897217
1761315585495104000,1.71410400390625,-0.12318584322929382,-1.8611533641815186,1.6402584314346313
1761315585505152300,1.72415234375,-0.3601083755493164,-1.5467325448989868,0.9516997933387756
1761315585515199200,1.73419921875,-0.6311268210411072,-1.272667646408081,0.3524797558784485
1761315585525247000,1.7442470703125,-0.8490362763404846,-1.0606286525726318,-0.09848955273628235
1761315585535295200,1.754295166015625,-0.9574556946754456,-0.6934075355529785,-0.28502213954925537
1761315585545342200,1.76434228515625,-1.0129636526107788,-0.23161165416240692,-0.2284555435180664
1761315585555390200,1.77439013671875,-0.9979690313339233,0.08569946140050888,-0.06010701134800911
1761315585565437200,1.784437255859375,-0.8833750486373901,0.28482747077941895,0.11486586183309555
1761315585575485200,1.794485107421875,-0.8264774084091187,0.2711777091026306,0.1793724149465561
1761315585585533200,1.804533203125,-0.8613632321357727,0.0054664043709635735,0.10492987930774689
1761315585595580200,1.814580078125,-0.933590292930603,-0.2706890106201172,-0.01709509640932083
1761315585605628200,1.824628173828125,-0.9727869629859924,-0.38191327452659607,-0.24003390967845917
1761315585615676200,1.83467626953125,-0.8682637214660645,-0.281538188457489,-0.6098902225494385
1761315585625723100,1.84472314453125,-0.6491450071334839,-0.030763771384954453,-1.0682133436203003
1761315585635771400,1.854771484375,-0.34375977516174316,0.20489083230495453,-1.5138089656829834
1761315585645819100,1.864819091796875,-0.04543645679950714,0.3193444311618805,-1.9936176538467407
1761315585655864800,1.87486474609375,0.06405621767044067,0.6035436987876892,-2.591287851333618
1761315585665913000,1.8849130859375,0.016328373923897743,1.1588863134384155,-3.0980160236358643
1761315585675960000,1.8949599609375,0.02858796902000904,1.8054932355880737,-3.1134016513824463
1761315585686008000,1.905008056640625,0.08225119858980179,2.0844180583953857,-2.5259294509887695
1761315585696056000,1.91505615234375,0.2380112260580063,1.728444218635559,-1.2493114471435547
1761315585706103000,1.92510302734375,0.42492544651031494,0.43535253405570984,0.26870763301849365
1761315585716151000,1.935151123046875,0.46903008222579956,-1.2530028820037842,0.9581409096717834
1761315585726199000,1.945198974609375,0.4534132778644562,-2.441706657409668,0.7308736443519592
1761315585736246000,1.95524609375,0.3020496070384979,-2.6910510063171387,0.2502892017364502
1761315585746294000,1.9652939453125,0.196283221244812,-2.272503137588501,-0.32393786311149597
1761315585756342000,1.975342041015625,0.2185581773519516,-1.341188669204712,-0.8985084891319275
1761315585766389200,1.98538916015625,0.27387574315071106,-0.22549650073051453,-1.2211410999298096
1761315585776437000,1.99543701171875,0.3716971278190613,0.7112211585044861,-1.2267968654632568
1761315585786485000,2.005485107421875,0.4770675003528595,1.3228960037231445,-1.0310739278793335
1761315585796532000,2.015531982421875,0.5777943730354309,1.5762733221054077,-0.7069286704063416
1761315585806580000,2.025580078125,0.6195716261863708,1.2319815158843994,-0.3017454743385315
1761315585816627000,2.035626953125,0.545807957649231,0.43139880895614624,0.02273780293762684
1761315585826675000,2.045675048828125,0.342651903629303,-0.509270429611206,0.23542237281799316
1761315585836723200,2.05572314453125,0.0809537023305893,-1.2420258522033691,0.4181341230869293
1761315585846770200,2.065770263671875,-0.1654382348060608,-1.681496500968933,0.6925965547561646
1761315585856818000,2.07581787109375,-0.4154680371284485,-1.5895057916641235,1.0652103424072266
1761315585866866200,2.0858662109375,-0.5639973282814026,-1.2455226182937622,1.3402276039123535
1761315585876913200,2.0959130859375,-0.663121223449707,-0.9381980895996094,1.4768027067184448
1761315585886961000,2.1059609375,-0.7466681003570557,-0.8344793915748596,1.5322902202606201
1761315585897009200,2.116009033203125,-0.7565616965293884,-0.91087406873703,1.4508638381958008
1761315585907056000,2.12605615234375,-0.7200196981430054,-1.0912986993789673,1.260317325592041
1761315585917104000,2.136104248046875,-0.6693136096000671,-1.2960624694824219,0.9558902382850647
1761315585927151900,2.14615185546875,-0.5818623304367065,-1.4311505556106567,0.5007395148277283
1761315585937199000,2.15619921875,-0.4670822322368622,-1.431895136833191,-0.03648237884044647
1761315585947247000,2.1662470703125,-0.34114107489585876,-1.3122438192367554,-0.5878970623016357
1761315585957294000,2.176294189453125,-0.2351997345685959,-0.9773425459861755,-1.0138108730316162
1761315585967342000,2.186342041015625,-0.1557547152042389,-0.36961957812309265,-1.2695711851119995
1761315585977390000,2.19639013671875,-0.09297920763492584,0.3400140404701233,-1.404166340827942
1761315585987437000,2.20643701171875,-0.05043494328856468,0.9620245695114136,-1.386893630027771
1761315585997484800,2.21648486328125,-0.05035078898072243,1.4122735261917114,-1.1795955896377563
1761315586007533000,2.226532958984375,-0.07316023111343384,1.5640164613723755,-0.8467525839805603
1761315586017580000,2.236580078125,-0.18492484092712402,1.2988522052764893,-0.48927247524261475
1761315586027628000,2.2466279296875,-0.33943426609039307,0.7341645359992981,-0.1348121464252472
1761315586037676000,2.256676025390625,-0.4297087490558624,0.09130115061998367,0.23004785180091858
1761315586047723000,2.266722900390625,-0.3838009238243103,-0.4461686909198761,0.5379465222358704
1761315586057771000,2.27677099609375,-0.22961215674877167,-0.7787168025970459,0.731783390045166
1761315586067818000,2.28681787109375,-0.0002258360618725419,-0.7451066374778748,0.7455809712409973
1761315586077866000,2.296865966796875,0.21026189625263214,-0.3003172278404236,0.5921770334243774
1761315586087914000,2.3069140625,0.2778396010398865,0.43370509147644043,0.3455454111099243
1761315586097961000,2.3169609375,0.2827451527118683,1.0881679058074951,0.04809722304344177
1761315586108009200,2.32700927734375,0.27354180812835693,1.5230793952941895,-0.30020296573638916
1761315586118057000,2.337056884765625,0.21665188670158386,1.6623579263687134,-0.6530025601387024
1761315586128104000,2.34710400390625,0.0857338160276413,1.5686644315719604,-0.8268641233444214
1761315586138152200,2.357152099609375,-0.14094433188438416,1.286399245262146,-0.6975210309028625
1761315586148200000,2.367199951171875,-0.354683518409729,0.8519265651702881,-0.3567597270011902
1761315586158247000,2.377246826171875,-0.48411527276039124,0.39523306488990784,-0.000037550569686573
1761315586168295200,2.387295166015625,-0.5131464004516602,-0.12561757862567902,0.12586258351802826
1761315586178342100,2.397342041015625,-0.3984941244125366,-0.4418242871761322,-0.041603635996580124
1761315586188390100,2.40739013671875,-0.2904779016971588,-0.37133175134658813,-0.3682059943675995
1761315586198438000,2.41743798828125,-0.12078393995761871,-0.17806774377822876,-0.7082458734512329
1761315586208485000,2.427485107421875,0.03729037940502167,-0.05989023298025131,-0.9290959239006042
1761315586218533000,2.437533203125,0.13342809677124023,-0.025006016716361046,-0.9591488838195801
1761315586228580900,2.447580810546875,0.21012048423290253,-0.11895861476659775,-0.9004818797111511
1761315586238628000,2.457628173828125,0.23971351981163025,-0.28694280982017517,-0.8490753769874573
1761315586248676000,2.467676025390625,0.18771770596504211,-0.5264025330543518,-0.7614752650260925
1761315586258724000,2.47772412109375,0.03686986863613129,-0.9788674712181091,-0.5950074195861816
1761315586268770800,2.487770751953125,-0.11258726567029953,-1.5080578327178955,-0.42268386483192444
1761315586278819000,2.497819091796875,-0.18594110012054443,-1.8772470951080322,-0.2681576907634735
1761315586288866000,2.507865966796875,-0.1608235090970993,-1.9420439004898071,-0.12228783220052719
1761315586298914000,2.5179140625,-0.118109330534935,-1.7253835201263428,0.05375191196799278
1761315586308962000,2.527962158203125,-0.05260595306754112,-1.3850964307785034,0.24800367653369904
1761315586319009000,2.538009033203125,0.05687606707215309,-0.9839389324188232,0.3640599846839905
1761315586329057000,2.54805712890625,0.18579623103141785,-0.5725088119506836,0.37229233980178833
1761315586339105000,2.55810498046875,0.2563798427581787,-0.21537090837955475,0.2937008738517761
1761315586349152000,2.568152099609375,0.267302006483078,-0.012793293222784996,0.14621952176094055
1761315586359200000,2.578199951171875,0.21762686967849731,0.01956384815275669,-0.014642059803009033
1761315586369248300,2.588248291015625,0.08951044082641602,-0.14871864020824432,-0.13072338700294495
1761315586379295200,2.598295166015625,-0.0893557146191597,-0.3941987156867981,-0.13865429162979126
1761315586389343000,2.608343017578125,-0.2138499766588211,-0.476960152387619,-0.013287043198943138
1761315586399390000,2.618389892578125,-0.2898925244808197,-0.3604141175746918,0.16578736901283264
1761315586409438200,2.628438232421875,-0.34327399730682373,-0.10955552011728287,0.34127795696258545
1761315586419486000,2.63848583984375,-0.34483036398887634,0.16677913069725037,0.5078954696655273
1761315586429533000,2.648532958984375,-0.32978588342666626,0.36023515462875366,0.6867141723632812
1761315586439581000,2.658580810546875,-0.29497572779655457,0.4083171784877777,0.8284737467765808
1761315586449629200,2.668629150390625,-0.2841920554637909,0.3569115102291107,0.8322277069091797
1761315586459676000,2.678676025390625,-0.32599276304244995,0.28699687123298645,0.7188385725021362
1761315586469724000,2.688723876953125,-0.44052520394325256,0.2856999337673187,0.6134151816368103
1761315586479772200,2.698772216796875,-0.5863103270530701,0.44372764229774475,0.580253541469574
1761315586489819100,2.708819091796875,-0.7379129528999329,0.7849973440170288,0.6409384608268738
1761315586499867000,2.718866943359375,-0.8206552267074585,1.1913131475448608,0.811887264251709
1761315586509913900,2.728913818359375,-0.8138827681541443,1.5604352951049805,1.0902339220046997
1761315586519962000,2.738962158203125,-0.7185339331626892,1.8825137615203857,1.3693859577178955
1761315586530010000,2.749010009765625,-0.5389465689659119,2.0822277069091797,1.571890115737915
1761315586540056800,2.759056884765625,-0.3585861027240753,1.9537303447723389,1.6469634771347046
1761315586550105000,2.76910498046875,-0.34224921464920044,1.6055183410644531,1.6445996761322021
1761315586560153000,2.779153076171875,-0.49604278802871704,1.0872453451156616,1.4932876825332642
1761315586570200000,2.789199951171875,-0.6914389133453369,0.25172996520996094,0.9724796414375305
1761315586580248000,2.799248046875,-0.7835078239440918,-0.36495241522789,0.16906972229480743
1761315586590296000,2.809296142578125,-0.7885153889656067,-0.5345920324325562,-0.728351891040802
1761315586600343000,2.819343017578125,-0.6563224792480469,-0.1254175752401352,-1.5264408588409424
1761315586610391000,2.82939111328125,-0.39504557847976685,0.5500615239143372,-2.292956829071045
1761315586620438000,2.83943798828125,-0.11805713176727295,1.1475569009780884,-2.9606449604034424
1761315586630486000,2.849486083984375,0.18500900268554688,1.517513394355774,-3.1997218132019043
1761315586640534000,2.859533935546875,0.3579895794391632,1.4623425006866455,-2.895465850830078
1761315586650581200,2.869581298828125,0.34664636850357056,0.5183065533638,-2.2685158252716064
1761315586660629500,2.87962939453125,-0.23143482208251953,-1.0140933990478516,-1.8696585893630981
1761315586670677500,2.889677490234375,-1.1121866703033447,-2.138897657394409,-1.4762279987335205
1761315586680724500,2.899724365234375,-1.4356038570404053,-3.0115342140197754,-1.0116757154464722
1761315586690772200,2.909772216796875,-1.1860142946243286,-3.3588898181915283,-0.5247484445571899
1761315586700820500,2.919820556640625,-0.68440842628479,-3.146190643310547,0.03425038233399391
1761315586710867500,2.929867431640625,-0.24984019994735718,-2.415616512298584,0.6024339199066162
1761315586720915200,2.939915283203125,-0.056466471403837204,-1.5141940116882324,1.0051417350769043
1761315586730962400,2.94996240234375,0.029820745810866356,-0.9625226259231567,1.1522608995437622
1761315586741010400,2.960010498046875,0.1304863691329956,-0.8981161713600159,1.0914547443389893
1761315586751058400,2.970058349609375,0.26591822504997253,-1.1207261085510254,0.851335346698761
1761315586761105400,2.98010546875,0.40413203835487366,-1.4262160062789917,0.49290984869003296
1761315586771153400,2.9901533203125,0.5153525471687317,-1.7538566589355469,0.036485571414232254
1761315586781201400,3.000201416015625,0.39248576760292053,-1.6543008089065552,-0.4752860963344574
1761315586791248400,3.010248291015625,0.20507672429084778,-0.9298794269561768,-0.6952205896377563
1761315586801296400,3.02029638671875,0.12815158069133759,-0.25784993171691895,-0.6457718014717102
1761315586811344400,3.030344482421875,0.1378052681684494,0.08863319456577301,-0.47832077741622925
1761315586821391400,3.040391357421875,0.1644456684589386,0.06605704873800278,-0.2918371856212616
1761315586831439600,3.050439697265625,0.21524547040462494,-0.2295873910188675,-0.103305883705616
1761315586841486300,3.060486328125,0.29053330421447754,-0.5130603909492493,0.05946279317140579
1761315586851534300,3.070534423828125,0.3670259416103363,-0.685242235660553,0.22712530195713043
1761315586861582600,3.08058251953125,0.3720393478870392,-0.8428361415863037,0.38088130950927734
1761315586871629600,3.090629638671875,0.22017523646354675,-0.980596661567688,0.5130936503410339
1761315586881677300,3.10067724609375,-0.04211442917585373,-1.021681785583496,0.6467350721359253
1761315586891725300,3.110725341796875,-0.3010445237159729,-0.9993932843208313,0.7986298203468323
1761315586901772500,3.1207724609375,-0.48481062054634094,-1.1668882369995117,0.9539552330970764
1761315586911820300,3.1308203125,-0.6885144710540771,-1.0455610752105713,0.9618368148803711
1761315586921867300,3.1408671875,-0.6984190344810486,-0.8557687401771545,0.9130426645278931
1761315586931915500,3.15091552734375,-0.5193464756011963,-0.665736734867096,0.8941707015037537
1761315586941963500,3.160963623046875,-0.21289736032485962,-0.501501202583313,0.8019068241119385
1761315586952010500,3.171010498046875,0.08751147240400314,-0.30028125643730164,0.5075910687446594
1761315586962058200,3.181058349609375,0.31679606437683105,-0.0721713975071907,0.10879918187856674
1761315586972106500,3.1911064453125,0.4359847605228424,0.14982758462429047,-0.27164536714553833
1761315586982153500,3.201153564453125,0.41396841406822205,0.47639983892440796,-0.6302852630615234
1761315586992201200,3.211201171875,0.2788012623786926,1.0162936449050903,-1.003010630607605
1761315587002249500,3.22124951171875,0.11304373294115067,1.7134144306182861,-1.4119206666946411
1761315587012296400,3.23129638671875,-0.045095574110746384,1.7378854751586914,-1.5428235530853271
1761315587022344400,3.241344482421875,-0.08446934074163437,1.6219806671142578,-1.4374969005584717
1761315587032391400,3.251391357421875,0.02153938077390194,1.323458194732666,-1.2169764041900635
1761315587042439400,3.261439453125,0.12554994225502014,0.7461655139923096,-1.0050724744796753
1761315587052487400,3.2714873046875,0.13544811308383942,0.1384473592042923,-0.8334937691688538
1761315587062534400,3.281534423828125,0.017730792984366417,-0.2544243037700653,-0.8406922817230225
1761315587072582400,3.29158251953125,-0.1895611435174942,-0.33458277583122253,-1.096411943435669
1761315587082630400,3.30163037109375,-0.36715883016586304,-0.1255725771188736,-1.388245701789856
1761315587092677400,3.311677490234375,-0.4569861888885498,0.22698786854743958,-1.588557243347168
1761315587102725600,3.3217255859375,-0.409969687461853,0.4888328015804291,-1.7062760591506958
1761315587112772400,3.3317724609375,-0.2518729865550995,0.563667893409729,-1.6226770877838135
1761315587122820400,3.3418203125,-0.038790538907051086,0.7499064803123474,-1.199791669845581
1761315587132868400,3.351868408203125,0.1862252652645111,0.9835528135299683,-0.4284221827983856
1761315587142915600,3.36191552734375,0.3842070698738098,0.6941132545471191,0.38098037242889404
1761315587152963300,3.37196337890625,0.2227763533592224,-0.12665994465351105,0.4894794225692749
1761315587163011300,3.38201123046875,-0.1852598637342453,-0.9037985801696777,0.024175111204385757
1761315587173058600,3.39205859375,-0.22362297773361206,-1.6882091760635376,-0.4598328471183777
1761315587183106300,3.402106201171875,-0.05061976611614227,-2.1490061283111572,-0.7873108386993408
1761315587193154300,3.412154296875,0.20873190462589264,-2.081393241882324,-0.8061692118644714
1761315587203201300,3.422201171875,0.37676432728767395,-1.6173489093780518,-0.4365272521972656
1761315587213249500,3.43224951171875,0.5397700071334839,-1.2575278282165527,0.11456679552793503
1761315587223296500,3.442296630859375,0.7672090530395508,-1.1665409803390503,0.6240505576133728
1761315587233344300,3.45234423828125,1.0690724849700928,-1.1045788526535034,0.993437647819519
1761315587243392500,3.462392578125,1.4085099697113037,-1.3319957256317139,1.2488526105880737
1761315587253439500,3.472439453125,1.6382821798324585,-1.9714982509613037,1.3533716201782227
1761315587263487200,3.4824873046875,1.5942656993865967,-3.382453203201294,1.1240342855453491
1761315587273535500,3.492535400390625,1.2739297151565552,-4.412234306335449,1.0511504411697388
1761315587283582500,3.50258251953125,0.8659614324569702,-4.355611324310303,1.59260094165802
1761315587293630500,3.51263037109375,0.5871574878692627,-3.752103567123413,2.30318021774292
1761315587303677400,3.522677490234375,0.16434313356876373,-2.1159706115722656,3.195356607437134
1761315587313725400,3.532725341796875,-0.38984203338623047,-0.20484448969364166,3.973191261291504
1761315587323773400,3.5427734375,-0.788264274597168,0.8066105246543884,4.233747959136963
1761315587333820400,3.5528203125,-1.0004327297210693,0.680671215057373,4.197579383850098
1761315587343868400,3.562868408203125,-0.9943782687187195,-0.009272061288356781,4.240496635437012
1761315587353916400,3.57291650390625,-1.0161008834838867,-0.8058211207389832,4.314965724945068
1761315587363963400,3.58296337890625,-1.1361860036849976,-1.7196667194366455,4.252585411071777
1761315587374011400,3.593011474609375,-1.2540884017944336,-2.501075506210327,3.8872437477111816
1761315587384058400,3.603058349609375,-1.3602662086486816,-2.77048921585083,3.3345093727111816
1761315587394106400,3.6131064453125,-1.404466152191162,-2.4733328819274902,2.713841199874878
1761315587404154400,3.623154296875,-1.4002866744995117,-1.7633048295974731,2.0624337196350098
1761315587414201600,3.63320166015625,-1.402660846710205,-0.7355254292488098,1.399742603302002
1761315587424249300,3.643249267578125,-1.4549427032470703,0.6527186632156372,0.723572850227356
1761315587434297300,3.65329736328125,-1.5342649221420288,2.3042571544647217,0.05980581045150757
1761315587444344600,3.663344482421875,-1.668426752090454,3.9343068599700928,-0.58832186460495
1761315587454392300,3.673392333984375,-1.8428949117660522,5.182911396026611,-1.0403436422348022
1761315587464439300,3.683439208984375,-1.9486725330352783,5.723886489868164,-1.1986088752746582
1761315587474487300,3.6934873046875,-1.963498830795288,5.372995853424072,-1.064812183380127
1761315587484535600,3.70353564453125,-1.9217979907989502,4.3674774169921875,-0.8309459090232849
1761315587494582500,3.71358251953125,-1.7691764831542969,2.899505853652954,-0.6924673914909363
1761315587504630300,3.72363037109375,-1.5563098192214966,1.5639415979385376,-0.6549562811851501
1761315587514678500,3.733678466796875,-1.3534184694290161,0.7434735894203186,-0.6881360411643982
1761315587524725500,3.7437255859375,-1.1992923021316528,0.4779497981071472,-0.8864291906356812
1761315587534773200,3.753773193359375,-1.009817123413086,0.5092435479164124,-1.2647000551223755
1761315587544821500,3.763821533203125,-0.7402205467224121,0.8563889861106873,-1.7946134805679321
1761315587554868500,3.773868408203125,-0.5127754211425781,1.1802154779434204,-2.6723499298095703
1761315587564916500,3.78391650390625,-0.4301082491874695,1.6658333539962769,-3.822295904159546
1761315587574963500,3.79396337890625,-0.21101050078868866,1.6609795093536377,-4.765687465667725
1761315587585011500,3.804011474609375,0.0626564547419548,1.459087610244751,-5.260817050933838
1761315587595059500,3.8140595703125,0.2754869759082794,1.069716215133667,-5.276241779327393
1761315587605106400,3.8241064453125,0.2456502467393875,0.7569739818572998,-4.823837757110596
1761315587615154400,3.834154541015625,0.14214834570884705,0.42059117555618286,-3.7892661094665527
1761315587625202400,3.844202392578125,-0.06707890331745148,-0.10818186402320862,-2.512836217880249
1761315587635249400,3.85424951171875,-0.3541293144226074,-0.6989772319793701,-1.7401610612869263
1761315587645297400,3.86429736328125,-0.6745840311050415,-1.0657349824905396,-1.6657878160476685
1761315587655344600,3.8743447265625,-0.5164068937301636,-1.6637192964553833,-1.7661950588226318
1761315587665393000,3.884392822265625,-0.11318354308605194,-2.3775250911712646,-1.9376448392868042
1761315587675441000,3.89444091796875,0.16609282791614532,-2.370561361312866,-1.9557908773422241
1761315587685487900,3.90448779296875,0.16128955781459808,-1.311068058013916,-1.5438799858093262
1761315587695535900,3.914535888671875,0.038661107420921326,-0.1313692033290863,-0.963469386100769
1761315587705583900,3.924583984375,0.10372666269540787,0.363275945186615,-0.5342732667922974
1761315587715630800,3.934630859375,0.23254749178886414,0.2545963227748871,-0.18434001505374908
1761315587725678600,3.9446787109375,0.2235713005065918,-0.17751672863960266,0.18379487097263336
1761315587735725800,3.954725830078125,0.07100014388561249,-0.9046523571014404,0.5275213122367859
1761315587745773800,3.96477392578125,-0.09333314001560211,-1.8022221326828003,0.7829541563987732
1761315587755821800,3.97482177734375,-0.1495593935251236,-2.5056803226470947,0.9496861696243286
1761315587765868800,3.984868896484375,-0.10041395574808121,-2.668689250946045,0.9854665398597717
1761315587775916800,3.994916748046875,0.0224419254809618,-2.3054096698760986,0.8814319968223572
1761315587785964800,4.00496484375,0.15497440099716187,-1.5594587326049805,0.6754999160766602
1761315587796011800,4.01501171875,0.22176168859004974,-0.5666970014572144,0.4270375967025757
1761315587806059800,4.025059814453125,0.1783955693244934,0.4122016727924347,0.2325512170791626
1761315587816106800,4.035106689453125,0.08149619400501251,0.9690974354743958,0.12599921226501465
1761315587826154800,4.04515478515625,-0.03395290672779083,1.053280234336853,0.17990292608737946
1761315587836202800,4.05520263671875,-0.14956898987293243,0.7784984111785889,0.37518107891082764
1761315587846249700,4.065249755859375,-0.2518434226512909,0.20951727032661438,0.6275342106819153
1761315587856297700,4.075297607421875,-0.3654368221759796,-0.485293447971344,0.823391854763031
1761315587866346000,4.085345947265625,-0.48372697830200195,-1.1093882322311401,0.8995766639709473
1761315587876393000,4.09539306640625,-0.5793541669845581,-1.5236104726791382,0.8641422390937805
1761315587886440700,4.105440673828125,-0.5927229523658752,-1.6352453231811523,0.7463085651397705
1761315587896487700,4.11548779296875,-0.47707974910736084,-1.5187033414840698,0.5398864150047302
1761315587906536000,4.125535888671875,-0.16064560413360596,-1.3039507865905762,0.30039098858833313
1761315587916583700,4.135583740234375,0.28109586238861084,-0.993369996547699,0.17747917771339417
1761315587926630700,4.145630615234375,0.6491281986236572,-0.4981629252433777,0.2527632713317871
1761315587936679000,4.155678955078125,0.655497133731842,0.2033666968345642,0.5000990629196167
1761315587946727000,4.165726806640625,0.24029329419136047,0.7421508431434631,0.8186141848564148
1761315587956773600,4.175773681640625,-0.2754768431186676,0.6938977837562561,1.106726884841919
1761315587966821600,4.185821533203125,-0.5487637519836426,0.021852834150195122,1.241290807723999
1761315587976868900,4.195868896484375,-0.5294601321220398,-0.7837664484977722,1.0615735054016113
1761315587986916900,4.205916748046875,-0.3725317716598511,-1.203778624534607,0.5373026132583618
1761315587996964600,4.215964599609375,-0.10460230708122253,-0.721099317073822,-0.06989119946956635
1761315588007011800,4.22601171875,0.33429381251335144,0.5552730560302734,-0.5068325996398926
1761315588017059800,4.236059814453125,0.758974015712738,2.1341552734375,-0.820991575717926
1761315588027107800,4.24610791015625,0.8587618470191956,3.5531485080718994,-0.9802651405334473
1761315588037154600,4.256154541015625,0.6243600249290466,4.1634087562561035,-0.869784951210022
1761315588047202800,4.266202880859375,0.2934763431549072,3.8007960319519043,-0.48082441091537476
1761315588057249800,4.276249755859375,-0.01679123006761074,2.8630237579345703,0.011283813044428825
1761315588067297800,4.2862978515625,-0.3053532540798187,1.6745355129241943,0.46757304668426514
1761315588077345800,4.296345703125,-0.4633346199989319,0.671933650970459,0.9127334952354431
1761315588087392800,4.306392822265625,-0.48888978362083435,0.32534825801849365,1.4980851411819458
1761315588097440800,4.316440673828125,-0.4109254777431488,0.09208944439888,2.0713958740234375
1761315588107488800,4.32648876953125,-0.2824048101902008,-0.1635308712720871,2.2659475803375244
1761315588117535700,4.33653564453125,-0.057308562099933624,-0.24151568114757538,2.08990740776062
1761315588127583700,4.346583740234375,0.23659522831439972,-0.12259222567081451,1.5695773363113403
1761315588137630700,4.356630615234375,0.5010636448860168,0.21186858415603638,0.8482378125190735
1761315588147679000,4.366678955078125,0.7082956433296204,0.6040693521499634,0.2164124697446823
1761315588157726700,4.376726806640625,0.8650503754615784,0.8706653714179993,-0.11225862801074982
1761315588167773700,4.386773681640625,1.0040570497512817,0.9765194058418274,-0.18307368457317352
1761315588177822000,4.396822021484375,1.1264790296554565,0.889285147190094,-0.16785317659378052
1761315588187869700,4.40686962890625,1.2223259210586548,0.6401136517524719,-0.16744332015514374
1761315588197916700,4.416916748046875,1.1841572523117065,0.36390870809555054,-0.1774032860994339
1761315588207965000,4.42696484375,0.9758599996566772,0.4022747278213501,0.002055960241705179
1761315588218012000,4.437011962890625,0.5926364064216614,0.6630115509033203,0.37562447786331177
1761315588228059600,4.4470595703125,0.17495450377464294,0.7300664782524109,0.8075809478759766
1761315588238107600,4.457107666015625,-0.14080026745796204,0.4980161786079407,1.3018250465393066
1761315588248155000,4.46715478515625,-0.3100542724132538,0.0007099987124092877,1.8167924880981445
1761315588258203000,4.477202880859375,-0.3349668085575104,-0.5898542404174805,2.1949570178985596
1761315588268249900,4.487249755859375,-0.3097669184207916,-1.0888330936431885,2.2953786849975586
1761315588278297900,4.4972978515625,-0.252509742975235,-1.3124110698699951,2.085935115814209
1761315588288345900,4.507345947265625,-0.15961070358753204,-1.1615211963653564,1.6636836528778076
1761315588298392800,4.517392822265625,-0.029812490567564964,-0.7145498394966125,1.187416434288025
1761315588308440600,4.527440673828125,0.0628063902258873,-0.16712027788162231,0.7025834321975708
1761315588318488800,4.53748876953125,0.050521764904260635,0.390659898519516,0.28903019428253174
1761315588328535800,4.547535888671875,-0.017124658450484276,1.0255146026611328,0.10771341621875763
1761315588338583800,4.557583740234375,-0.09802030771970749,1.5773149728775024,0.13197481632232666
1761315588348630800,4.567630859375,-0.1781846433877945,1.8454701900482178,0.2541148364543915
1761315588358678800,4.5776787109375,-0.2713731825351715,1.8046252727508545,0.39429351687431335
1761315588368726800,4.587726806640625,-0.3469015061855316,1.5096194744110107,0.5252363681793213
1761315588378773800,4.597773681640625,-0.35398364067077637,1.0783793926239014,0.6296927332878113
1761315588388821800,4.60782177734375,-0.30879831314086914,0.6958972811698914,0.651908278465271
1761315588398869800,4.617869873046875,-0.23826609551906586,0.40439221262931824,0.584071159362793
1761315588408916700,4.627916748046875,-0.17932315170764923,0.2116509974002838,0.4294048845767975
1761315588418964700,4.63796484375,-0.1669945865869522,0.15556561946868896,0.2520439624786377
1761315588429011700,4.64801171875,-0.18880507349967957,0.31171661615371704,0.17304688692092896
1761315588439059700,4.658059814453125,-0.2338007688522339,0.5557236671447754,0.19935065507888794
1761315588449108000,4.66810791015625,-0.2444494217634201,0.7636843323707581,0.29477038979530334
1761315588459155000,4.678155029296875,-0.21542096138000488,0.8641355633735657,0.40050241351127625
1761315588469202700,4.68820263671875,-0.17700327932834625,0.8526850342750549,0.45259755849838257
1761315588479249700,4.698249755859375,-0.17669567465782166,0.7746118307113647,0.43559807538986206
1761315588489298000,4.7082978515625,-0.19980205595493317,0.5903232097625732,0.31346815824508667
1761315588499345700,4.718345703125,-0.22252973914146423,0.3217993378639221,0.02943512052297592
1761315588509392600,4.728392578125,-0.19768671691417694,0.06179439276456833,-0.3721346855163574
1761315588519441000,4.73844091796875,-0.14625707268714905,-0.08761507272720337,-0.8234187960624695
1761315588529489000,4.748489013671875,-0.0951683297753334,-0.06673668324947357,-1.222589373588562
1761315588539532800,4.75853271484375,0.05655675381422043,0.11788216233253479,-1.449958324432373
1761315588549580800,4.768580810546875,0.3388907015323639,0.36142584681510925,-1.497546911239624
1761315588559628800,4.77862890625,0.7045315504074097,0.623821496963501,-1.4548298120498657
1761315588569675800,4.78867578125,0.9957841634750366,0.8412989974021912,-1.448606014251709
1761315588579723800,4.798723876953125,1.1341180801391602,0.7555872797966003,-1.683366298675537
1761315588589770800,4.808770751953125,1.2235249280929565,0.4096527695655823,-1.9959020614624023
1761315588599818800,4.81881884765625,1.2237670421600342,0.05101897567510605,-2.0852198600769043
1761315588609866800,4.82886669921875,1.084220290184021,-0.32133302092552185,-1.8304142951965332
1761315588619913700,4.838913818359375,0.8693450093269348,-0.6024097204208374,-1.342743158340454
1761315588629961700,4.848961669921875,0.6372792720794678,-0.7343347072601318,-0.7954065799713135
1761315588640010000,4.859010009765625,0.4488750100135803,-0.7232234477996826,-0.27999064326286316
1761315588650057000,4.869056884765625,0.3371412754058838,-0.6336027979850769,0.12685196101665497
1761315588660104400,4.8791044921875,0.30093666911125183,-0.5650026798248291,0.4194585084915161
1761315588670151400,4.8891513671875,0.2839086949825287,-0.5577253103256226,0.6187098622322083
1761315588680199400,4.899199462890625,0.19520145654678345,-0.6913843154907227,0.7040782570838928
1761315588690247400,4.909247314453125,0.03555666282773018,-1.017671823501587,0.6944575905799866
1761315588700294400,4.91929443359375,-0.06420695036649704,-1.4071128368377686,0.6397640109062195
1761315588710342400,4.92934228515625,-0.05630135536193848,-1.6652956008911133,0.5933735966682434
1761315588720389400,4.939389404296875,0.022310098633170128,-1.8121287822723389,0.5407378077507019
1761315588730437600,4.949437744140625,0.13139264285564423,-1.7499910593032837,0.5030439496040344
1761315588740485400,4.9594853515625,0.22012890875339508,-1.47193443775177,0.46483293175697327
1761315588750532400,4.969532470703125,0.23451556265354156,-1.05716872215271,0.37971484661102295
1761315588760580400,4.979580322265625,0.16974136233329773,-0.5544067621231079,0.22241921722888947
1761315588770628400,4.98962841796875,0.10772593319416046,-0.14050012826919556,0.06531642377376556
1761315588780675300,4.99967529296875,0.00820839498192072,0.10089678317308426,-0.0473608560860157
1761315588790723300,5.009723388671875,-0.09611774235963821,0.10320787876844406,-0.14297659695148468
1761315588800770600,5.0197705078125,-0.15937580168247223,-0.07019240409135818,-0.2517416775226593
1761315588810818600,5.029818603515625,-0.17941395938396454,-0.3365814685821533,-0.39961478114128113
1761315588820866300,5.0398662109375,-0.1674254834651947,-0.5923749208450317,-0.6267927885055542
1761315588830913300,5.049913330078125,-0.17255765199661255,-0.7427700161933899,-0.9716045260429382
1761315588840961500,5.05996142578125,-0.19981937110424042,-0.6703165769577026,-1.361954927444458
1761315588851008500,5.070008544921875,-0.2530277371406555,-0.1967567354440689,-1.73831045627594
1761315588861056300,5.08005615234375,-0.30448904633522034,0.5678048729896545,-2.0576024055480957
1761315588871104500,5.0901044921875,-0.08258435875177383,1.4311116933822632,-2.176795482635498
1761315588881151500,5.1001513671875,0.140113964676857,2.1982009410858154,-2.2301244735717773
1761315588891199200,5.11019921875,0.14442695677280426,2.668752908706665,-2.4000182151794434
1761315588901247500,5.12024755859375,-0.08891335874795914,3.0604982376098633,-2.6178622245788574
1761315588911294500,5.13029443359375,-0.45941418409347534,3.6835129261016846,-2.2349791526794434
1761315588921342500,5.140342529296875,-0.6463265419006348,3.813892364501953,-1.4998118877410889
1761315588931389400,5.150389404296875,-0.30507922172546387,3.5483875274658203,-1.171419382095337
1761315588941437400,5.1604375,-0.03742886334657669,2.998464345932007,-1.1340887546539307
1761315588951485400,5.1704853515625,-0.1029876321554184,1.6425343751907349,-1.2240806818008423
1761315588961532400,5.180532470703125,-0.30570054054260254,0.03670022264122963,-1.1964994668960571
1761315588971580400,5.190580322265625,-0.46686863899230957,-0.5619296431541443,-0.8627941608428955
1761315588981627400,5.20062744140625,-0.7059880495071411,-0.7574166059494019,-0.3704630136489868
1761315588991675400,5.21067529296875,-0.8472721576690674,-0.8558944463729858,0.14222025871276855
1761315589001723400,5.220723388671875,-0.8186993598937988,-0.8967758417129517,0.6156584024429321
1761315589011770400,5.230770263671875,-0.6669266223907471,-0.8999097943305969,0.9722660183906555
1761315589021818400,5.240818359375,-0.4882354438304901,-0.8200432062149048,1.1836243867874146
1761315589031866400,5.250866455078125,-0.32198601961135864,-0.6447108387947083,1.2150899171829224
1761315589041913600,5.26091357421875,-0.10145658254623413,-0.39078906178474426,1.0385441780090332
1761315589051961300,5.27096142578125,-0.14300455152988434,-0.3716731667518616,0.6713890433311462
1761315589062008300,5.28100830078125,-0.3877389430999756,-0.31760644912719727,0.2022542953491211
1761315589072056300,5.291056396484375,-0.45920538902282715,-0.62113356590271,-0.470756858587265
1761315589082104300,5.301104248046875,-0.1830611675977707,-1.2823991775512695,-1.1677201986312866
1761315589092151300,5.3111513671875,0.15506069362163544,-1.5966728925704956,-1.656341552734375
1761315589102199300,5.32119921875,0.1681826114654541,-1.56496262550354,-1.9128724336624146
1761315589112246500,5.33124658203125,0.11246556043624878,-1.2253485918045044,-1.8050156831741333
1761315589122294500,5.34129443359375,0.08646325021982193,-0.7559358477592468,-1.3586814403533936
1761315589132342300,5.35134228515625,0.03014937974512577,-0.35690993070602417,-0.6831969618797302
1761315589142390500,5.361390625,0.11629145592451096,-0.15175864100456238,0.08030975610017776
1761315589152438500,5.3714384765625,0.13099023699760437,-0.20072618126869202,0.6720444560050964
1761315589162485200,5.3814853515625,0.06496621668338776,-0.49143844842910767,0.9304014444351196
1761315589172533500,5.391533447265625,0.006146309431642294,-0.942486047744751,0.8154234290122986
1761315589182581500,5.40158154296875,-0.00612340634688735,-1.4104063510894775,0.4315343499183655
1761315589192628500,5.41162841796875,0.007297860458493233,-1.661177635192871,0.031188812106847763
1761315589202676200,5.42167626953125,0.04590970277786255,-1.661784052848816,-0.18293440341949463
1761315589212724500,5.431724365234375,0.03809918090701103,-1.3268617391586304,-0.11141467839479446
1761315589222771500,5.441771484375,0.045888662338256836,-0.8466783165931702,0.12694516777992249
1761315589232819200,5.451819091796875,0.12387534230947495,-0.3543524742126465,0.42154085636138916
1761315589242866400,5.461866455078125,0.2800569534301758,0.08909392356872559,0.6899078488349915
1761315589252914400,5.47191455078125,0.4435840845108032,0.5337560772895813,0.8717468976974487
1761315589262962400,5.48196240234375,0.551272988319397,1.002619743347168,0.9853120446205139
1761315589273009400,5.492009521484375,0.6056052446365356,1.370241641998291,1.0636321306228638
1761315589283057400,5.502057373046875,0.643683910369873,1.5589306354522705,1.130388855934143
1761315589293104400,5.5121044921875,0.6642243266105652,1.5903226137161255,1.140798807144165
1761315589303152400,5.52215234375,0.670741081237793,1.4218145608901978,1.0210986137390137
1761315589313200400,5.532200439453125,0.6832275986671448,1.082642912864685,0.7823286056518555
1761315589323247400,5.542247314453125,0.7150781750679016,0.7366535067558289,0.49813681840896606
1761315589333295400,5.55229541015625,0.7618497014045715,0.49915599822998047,0.268644243478775
1761315589343342300,5.56234228515625,0.7693150639533997,0.42203378677368164,0.15353868901729584
1761315589353390300,5.572390380859375,0.7200215458869934,0.5102512836456299,0.17567035555839539
1761315589363438300,5.582438232421875,0.6102889180183411,0.7083457112312317,0.3063330352306366
1761315589373485300,5.5924853515625,0.45711401104927063,0.9615985155105591,0.5317315459251404
1761315589383533600,5.602533447265625,0.36949390172958374,1.1240081787109375,0.8288995623588562
1761315589393580500,5.61258056640625,0.28465569019317627,1.2048430442810059,1.1170616149902344
1761315589403628300,5.622628173828125,0.1398734748363495,1.0146862268447876,1.3034964799880981
1761315589413676500,5.632676513671875,-0.037451501935720444,0.5059630274772644,1.2949676513671875
1761315589423723500,5.6427236328125,-0.16054999828338623,-0.1453060656785965,1.044251561164856
1761315589433771300,5.652771240234375,-0.18782342970371246,-0.6031244993209839,0.6860699653625488
1761315589443819500,5.662819580078125,-0.0786101222038269,-0.7586773037910461,0.32893234491348267
1761315589453866500,5.672866455078125,0.07154768705368042,-0.6843469142913818,-0.04825248569250107
1761315589463914500,5.68291455078125,0.17401893436908722,-0.3832147717475891,-0.4073174297809601
1761315589473961500,5.69296142578125,0.23577390611171722,0.1536223143339157,-0.7141138315200806
1761315589484009500,5.703009521484375,0.28487780690193176,0.6179013252258301,-1.0311706066131592
1761315589494057500,5.713057373046875,0.27146053314208984,0.7406573295593262,-1.4301044940948486
1761315589504104400,5.7231044921875,0.1416119933128357,0.7706609964370728,-1.7711880207061768
1761315589514152400,5.73315234375,-0.055568721145391464,0.8287395238876343,-1.9987024068832397
1761315589524199400,5.743199462890625,-0.22756364941596985,0.7561728954315186,-2.2070138454437256
1761315589534247400,5.753247314453125,-0.31123191118240356,0.5702109932899475,-2.3965914249420166
1761315589544295400,5.76329541015625,-0.3225788474082947,0.4233049154281616,-2.4703638553619385
1761315589554342400,5.77334228515625,-0.2618579864501953,0.4148046374320984,-2.371115207672119
1761315589564390400,5.783390380859375,-0.14353398978710175,0.4469761550426483,-2.1529245376586914
1761315589574437400,5.793437255859375,-0.0007811051327735186,0.39586344361305237,-1.8651450872421265
1761315589584485400,5.8034853515625,0.140675351023674,0.298267126083374,-1.5339504480361938
1761315589594533400,5.813533447265625,0.2877923846244812,0.34082096815109253,-1.161653757095337
1761315589604580400,5.823580322265625,0.3959907591342926,0.39126256108283997,-0.8107751607894897
1761315589614628400,5.83362841796875,0.3910534977912903,0.3013193607330322,-0.5245721340179443
1761315589624675600,5.843675537109375,0.2715342938899994,0.11284372955560684,-0.26553046703338623
1761315589634723300,5.853723388671875,0.08871335536241531,-0.13029782474040985,0.0021797972731292248
1761315589644771300,5.863771240234375,-0.11138883978128433,-0.3674728274345398,0.22681130468845367
1761315589654818300,5.873818359375,-0.2545510530471802,-0.5246368646621704,0.37727218866348267
1761315589664866600,5.883866455078125,-0.2956992983818054,-0.5537433624267578,0.44462913274765015
1761315589674913800,5.893913818359375,-0.2533164322376251,-0.4940480589866638,0.4131702780723572
1761315589684961800,5.9039619140625,-0.14629116654396057,-0.3653809130191803,0.3029654622077942
1761315589695009800,5.914009765625,-0.003576625371351838,-0.1995924711227417,0.14425651729106903
1761315589705056800,5.924056884765625,0.13807956874370575,-0.043252132833004,0.005328719038516283
1761315589715104800,5.934104736328125,0.2386637032032013,0.04653101786971092,-0.09014321118593216
1761315589725152800,5.94415283203125,0.2753620743751526,0.08487893640995026,-0.14891092479228973
1761315589735199700,5.95419970703125,0.2553015351295471,0.10984021425247192,-0.1846790313720703
1761315589745247700,5.964247802734375,0.20182393491268158,0.1938062161207199,-0.19863054156303406
1761315589755294700,5.974294677734375,0.12180846184492111,0.32367953658103943,-0.23213763535022736
1761315589765342700,5.9843427734375,0.04771825298666954,0.4912794530391693,-0.284220814704895
1761315589775391000,5.994390869140625,-0.03388739377260208,0.7134131789207458,-0.16968411207199097
1761315589785437700,6.004437744140625,-0.10905085504055023,0.5544962286949158,-0.010883274488151073
1761315589795485700,6.014485595703125,-0.06088998168706894,0.059855345636606216,0.05525526404380798
1761315589805532700,6.02453271484375,0.14427195489406586,-0.3663897216320038,0.10304702073335648
1761315589815581000,6.034580810546875,0.3263874351978302,-0.5144995450973511,0.12396109104156494
1761315589825628700,6.044628662109375,0.3984195590019226,-0.32454371452331543,0.04344015195965767
1761315589835675600,6.054675537109375,0.37186330556869507,0.030662572011351585,-0.12556324899196625
1761315589845724000,6.064723876953125,0.26715341210365295,0.38332900404930115,-0.2681102752685547
1761315589855771000,6.07477099609375,0.13254232704639435,0.5554014444351196,-0.28155630826950073
