time,seconds_elapsed,z,y,x
1761333569005899500,0.0708994140625,0.010995565913617611,-0.014660755172371864,0.001221729558892548
1761333569024598300,0.089598388671875,0.010384701192378998,-0.015271619893610477,0.002443459117785096
1761333569043297300,0.10829736328125,0.010384701192378998,-0.015271619893610477,0.001832594396546483
1761333569061996300,0.126996337890625,0.010995565913617611,-0.01588248461484909,0.001832594396546483
1761333569080695000,0.145695068359375,0.009773836471140385,-0.014660755172371864,0.001221729558892548
1761333569099394000,0.16439404296875,0.010995565913617611,-0.01588248461484909,0.001832594396546483
1761333569118092800,0.1830927734375,0.010384701192378998,-0.014660755172371864,0.001221729558892548
1761333569136791800,0.201791748046875,0.009773836471140385,-0.01588248461484909,0.001221729558892548
1761333569155490800,0.22049072265625,0.010384701192378998,-0.014660755172371864,0.002443459117785096
1761333569174189600,0.239189453125,0.009773836471140385,-0.014049889519810677,0.001221729558892548
1761333569192888600,0.257888671875,0.010384701192378998,-0.015271619893610477,0.001221729558892548
1761333569211587300,0.27658740234375,0.009773836471140385,-0.015271619893610477,0.001221729558892548
1761333569230286300,0.295286376953125,0.010995565913617611,-0.015271619893610477,-0.000610864779446274
1761333569248985300,0.3139853515625,0.010384701192378998,-0.015271619893610477,0.000610864779446274
1761333569267684000,0.33268408203125,0.010384701192378998,-0.014049889519810677,0.000610864779446274
1761333569286383000,0.351383056640625,0.010995565913617611,-0.015271619893610477,0.001832594396546483
1761333569305082000,0.37008203125,0.009773836471140385,-0.015271619893610477,0.001832594396546483
1761333569323780900,0.38878076171875,0.010995565913617611,-0.01588248461484909,0.002443459117785096
1761333569342480000,0.40747998046875,0.010384701192378998,-0.014660755172371864,0.001832594396546483
1761333569361179000,0.426178955078125,0.010995565913617611,-0.015271619893610477,0.002443459117785096
1761333569379877600,0.444877685546875,0.010995565913617611,-0.014660755172371864,0.001221729558892548
1761333569398576600,0.46357666015625,0.009773836471140385,-0.015271619893610477,0.002443459117785096
1761333569417275400,0.482275390625,0.010995565913617611,-0.015271619893610477,0.002443459117785096
1761333569435974400,0.500974365234375,0.010384701192378998,-0.015271619893610477,0.001832594396546483
1761333569454673200,0.519673095703125,0.010384701192378998,-0.01588248461484909,0.002443459117785096
1761333569473372200,0.5383720703125,0.010995565913617611,-0.01588248461484909,0.001221729558892548
1761333569492071200,0.5570712890625,0.009773836471140385,-0.01588248461484909,0.002443459117785096
1761333569510770000,0.57577001953125,0.010995565913617611,-0.01588248461484909,0.001832594396546483
1761333569529469000,0.594468994140625,0.010995565913617611,-0.014660755172371864,0.002443459117785096
1761333569548168000,0.61316796875,0.010384701192378998,-0.015271619893610477,0.001221729558892548
1761333569566866700,0.63186669921875,0.010384701192378998,-0.01588248461484909,0.001221729558892548
1761333569585565700,0.650565673828125,0.010384701192378998,-0.015271619893610477,0.002443459117785096
1761333569604264700,0.6692646484375,0.009773836471140385,-0.015271619893610477,0.002443459117785096
1761333569622963500,0.68796337890625,0.009773836471140385,-0.01588248461484909,0.002443459117785096
1761333569641662500,0.706662353515625,0.010384701192378998,-0.01588248461484909,0.001832594396546483
1761333569660361500,0.725361572265625,0.010384701192378998,-0.015271619893610477,0.001832594396546483
1761333569679060200,0.744060302734375,0.010384701192378998,-0.015271619893610477,0.002443459117785096
1761333569697759000,0.762759033203125,0.010995565913617611,-0.01588248461484909,0.002443459117785096
1761333569716458000,0.7814580078125,0.009773836471140385,-0.014660755172371864,0.001832594396546483
1761333569735157000,0.800156982421875,0.009773836471140385,-0.01588248461484909,0.001832594396546483
1761333569753855700,0.818855712890625,0.009773836471140385,-0.014660755172371864,0.002443459117785096
1761333569772554800,0.8375546875,0.009773836471140385,-0.014660755172371864,0.001832594396546483
1761333569791253800,0.856253662109375,0.009773836471140385,-0.014660755172371864,0.001832594396546483
1761333569809952500,0.874952392578125,0.010995565913617611,-0.01588248461484909,0.001221729558892548
1761333569828651500,0.893651611328125,0.010384701192378998,-0.015271619893610477,0.001832594396546483
1761333569847350500,0.9123505859375,0.009773836471140385,-0.015271619893610477,0.002443459117785096
1761333569866049500,0.931049560546875,0.010384701192378998,-0.015271619893610477,0.002443459117785096
1761333569884748300,0.949748291015625,0.009773836471140385,-0.015271619893610477,0.002443459117785096
1761333569903447300,0.968447265625,0.009773836471140385,-0.015271619893610477,0.002443459117785096
1761333569922146300,0.987146240234375,0.009773836471140385,-0.01588248461484909,0.002443459117785096
1761333569940845000,1.005844970703125,0.010384701192378998,-0.01588248461484909,0.002443459117785096
1761333569959544000,1.0245439453125,0.009773836471140385,-0.015271619893610477,0.001832594396546483
1761333569978242800,1.043242919921875,0.009773836471140385,-0.01588248461484909,0.001221729558892548
1761333569996941800,1.06194189453125,0.009773836471140385,-0.014660755172371864,0.001832594396546483
1761333570015640800,1.080640869140625,0.010384701192378998,-0.01588248461484909,0.002443459117785096
1761333570034339600,1.099339599609375,0.010384701192378998,-0.015271619893610477,0.002443459117785096
1761333570053038600,1.11803857421875,0.009773836471140385,-0.015271619893610477,0.001221729558892548
1761333570071737300,1.1367373046875,0.010995565913617611,-0.01588248461484909,0.002443459117785096
1761333570090436400,1.155436279296875,0.010384701192378998,-0.014660755172371864,0.002443459117785096
1761333570109135400,1.17413525390625,0.010384701192378998,-0.015271619893610477,0.002443459117785096
1761333570127834000,1.192834228515625,0.010384701192378998,-0.01588248461484909,0.001832594396546483
1761333570146533000,1.211533203125,0.010384701192378998,-0.015271619893610477,0.002443459117785096
1761333570165232000,1.230232177734375,0.010995565913617611,-0.01588248461484909,0.002443459117785096
1761333570183931000,1.248930908203125,0.010384701192378998,-0.015271619893610477,0.002443459117785096
1761333570202630000,1.2676298828125,0.009773836471140385,-0.01588248461484909,0.001832594396546483
1761333570221329000,1.286328857421875,0.010995565913617611,-0.014660755172371864,0.001832594396546483
1761333570240027600,1.305027587890625,0.010995565913617611,-0.01588248461484909,0.002443459117785096
1761333570258726700,1.3237265625,0.010384701192378998,-0.014660755172371864,0.002443459117785096
1761333570277425700,1.34242578125,0.010384701192378998,-0.015271619893610477,0.002443459117785096
1761333570296124400,1.36112451171875,0.009773836471140385,-0.01588248461484909,0.002443459117785096
1761333570314823400,1.379823486328125,0.009773836471140385,-0.01588248461484909,0.001832594396546483
1761333570333522400,1.3985224609375,0.009773836471140385,-0.015271619893610477,0.001221729558892548
1761333570352221200,1.41722119140625,0.009773836471140385,-0.01588248461484909,0.001832594396546483
1761333570370920200,1.435920166015625,0.009773836471140385,-0.015271619893610477,0.002443459117785096
1761333570389619000,1.454618896484375,0.010384701192378998,-0.014660755172371864,0.001832594396546483
1761333570408318000,1.47331787109375,0.010995565913617611,-0.015271619893610477,0.001221729558892548
1761333570427017000,1.492016845703125,0.010995565913617611,-0.01588248461484909,0.002443459117785096
1761333570445715700,1.5107158203125,0.010995565913617611,-0.015271619893610477,0.002443459117785096
1761333570464414700,1.529414794921875,0.010995565913617611,-0.014660755172371864,0.001221729558892548
1761333570483113500,1.548113525390625,0.010384701192378998,-0.015271619893610477,0.001221729558892548
1761333570501812500,1.5668125,0.010384701192378998,-0.01588248461484909,0.001221729558892548
1761333570520511500,1.585511474609375,0.009773836471140385,-0.01649334840476513,0.001832594396546483
1761333570539210200,1.604210205078125,0.010384701192378998,-0.015271619893610477,0.002443459117785096
1761333570557909200,1.6229091796875,0.010384701192378998,-0.01588248461484909,0.002443459117785096
1761333570576608300,1.641608154296875,0.010384701192378998,-0.015271619893610477,0.001221729558892548
1761333570595307000,1.66030712890625,0.010995565913617611,-0.01588248461484909,0.002443459117785096
1761333570614006000,1.679006103515625,0.010995565913617611,-0.014660755172371864,0.001832594396546483
1761333570632705000,1.697705078125,0.011606430634856224,-0.015271619893610477,0.001832594396546483
1761333570651403800,1.71640380859375,0.010384701192378998,-0.01588248461484909,0.002443459117785096
1761333570670102800,1.735102783203125,0.010384701192378998,-0.014660755172371864,0.001832594396546483
1761333570688801800,1.7538017578125,0.009773836471140385,-0.01588248461484909,0.001832594396546483
1761333570707500500,1.77250048828125,0.010995565913617611,-0.015271619893610477,0.001221729558892548
1761333570726199600,1.791199462890625,0.010384701192378998,-0.015271619893610477,0.001832594396546483
1761333570744898600,1.809898681640625,0.009773836471140385,-0.01588248461484909,0.001832594396546483
1761333570763597300,1.828597412109375,0.010384701192378998,-0.015271619893610477,0.001832594396546483
1761333570782296300,1.84729638671875,0.010384701192378998,-0.015271619893610477,0.002443459117785096
1761333570800995300,1.865995361328125,0.009773836471140385,-0.01588248461484909,0.001221729558892548
1761333570819694000,1.884694091796875,0.009773836471140385,-0.015271619893610477,0.001221729558892548
1761333570838393000,1.90339306640625,0.009773836471140385,-0.01588248461484909,0.002443459117785096
1761333570857092000,1.922092041015625,0.010995565913617611,-0.014660755172371864,0.001832594396546483
1761333570875790800,1.940790771484375,0.010995565913617611,-0.015271619893610477,0.001221729558892548
1761333570894489900,1.95948974609375,0.010995565913617611,-0.01588248461484909,0.001832594396546483
1761333570913188900,1.97818896484375,0.009162971749901772,-0.015271619893610477,0.001221729558892548
1761333570931887600,1.9968876953125,0.010995565913617611,-0.014660755172371864,0.001221729558892548
1761333570950586600,2.015586669921875,0.010995565913617611,-0.015271619893610477,0.001832594396546483
1761333570969285400,2.034285400390625,0.010384701192378998,-0.01588248461484909,0.001221729558892548
1761333570987984400,2.052984375,0.009773836471140385,-0.015271619893610477,0.002443459117785096
1761333571006683400,2.071683349609375,0.010384701192378998,-0.01588248461484909,0.002443459117785096
1761333571025382400,2.09038232421875,0.010384701192378998,-0.015271619893610477,0.001832594396546483
1761333571044081200,2.1090810546875,0.010995565913617611,-0.015271619893610477,0.002443459117785096
1761333571062780200,2.1277802734375,0.009773836471140385,-0.015271619893610477,0.002443459117785096
1761333571081479000,2.14647900390625,0.010995565913617611,-0.014660755172371864,0.002443459117785096
1761333571100178000,2.165177978515625,0.010384701192378998,-0.01588248461484909,0.001832594396546483
1761333571118877000,2.183876953125,0.009773836471140385,-0.01588248461484909,0.002443459117785096
1761333571137575700,2.20257568359375,0.010384701192378998,-0.015271619893610477,0.001832594396546483
1761333571156274700,2.221274658203125,0.010384701192378998,-0.01588248461484909,0.002443459117785096
1761333571174973700,2.2399736328125,0.009773836471140385,-0.01588248461484909,0.002443459117785096
1761333571193672400,2.25867236328125,0.010384701192378998,-0.01588248461484909,0.002443459117785096
1761333571212371500,2.277371337890625,0.009773836471140385,-0.015271619893610477,0.001832594396546483
1761333571231070500,2.296070556640625,0.010995565913617611,-0.014660755172371864,0.002443459117785096
1761333571249769200,2.314769287109375,0.010384701192378998,-0.014660755172371864,0.001832594396546483
1761333571268468200,2.33346826171875,0.010995565913617611,-0.01588248461484909,0.002443459117785096
1761333571287167200,2.352167236328125,0.009773836471140385,-0.015271619893610477,0.001221729558892548
1761333571305866000,2.370865966796875,0.010384701192378998,-0.015271619893610477,0.001832594396546483
1761333571324565000,2.38956494140625,0.010995565913617611,-0.014660755172371864,0.001221729558892548
1761333571343264000,2.408263916015625,0.010384701192378998,-0.015271619893610477,0.002443459117785096
1761333571361962800,2.426962646484375,0.010384701192378998,-0.01588248461484909,0.002443459117785096
1761333571380661800,2.445661865234375,0.010995565913617611,-0.01588248461484909,0.002443459117785096
1761333571399360800,2.46436083984375,0.009773836471140385,-0.014660755172371864,0.001832594396546483
1761333571418059500,2.4830595703125,0.010995565913617611,-0.015271619893610477,0.001832594396546483
1761333571436758500,2.501758544921875,0.009773836471140385,-0.01588248461484909,0.001832594396546483
1761333571455457500,2.52045751953125,0.010384701192378998,-0.01588248461484909,0.002443459117785096
1761333571474156300,2.53915625,0.010384701192378998,-0.01588248461484909,0.002443459117785096
1761333571492855300,2.557855224609375,0.009773836471140385,-0.01588248461484909,0.002443459117785096
1761333571511554300,2.57655419921875,0.010384701192378998,-0.01588248461484909,0.001221729558892548
1761333571530253000,2.595253173828125,0.009773836471140385,-0.01588248461484909,0.001832594396546483
1761333571548952000,2.6139521484375,0.010384701192378998,-0.014660755172371864,0.001221729558892548
1761333571567651000,2.632651123046875,0.010384701192378998,-0.01588248461484909,0.001832594396546483
1761333571586349800,2.651349853515625,0.010384701192378998,-0.014660755172371864,0.002443459117785096
1761333571605048800,2.670048828125,0.010384701192378998,-0.014660755172371864,0.002443459117785096
1761333571623747800,2.688747802734375,0.010384701192378998,-0.01588248461484909,0.002443459117785096
1761333571642446600,2.707446533203125,0.010384701192378998,-0.015271619893610477,0.001832594396546483
1761333571661145600,2.7261455078125,0.009773836471140385,-0.014660755172371864,0.002443459117785096
1761333571679844600,2.7448447265625,0.010995565913617611,-0.01588248461484909,0.001832594396546483
1761333571698543400,2.76354345703125,0.010995565913617611,-0.015271619893610477,0.002443459117785096
1761333571717242400,2.782242431640625,0.010995565913617611,-0.015271619893610477,0.001832594396546483
1761333571735941400,2.80094140625,0.010384701192378998,-0.01588248461484909,0.001832594396546483
1761333571754640100,2.81964013671875,0.010384701192378998,-0.014660755172371864,0.001221729558892548
1761333571773339100,2.838339111328125,0.010995565913617611,-0.015271619893610477,0.001832594396546483
1761333571792038100,2.8570380859375,0.010995565913617611,-0.014660755172371864,0.002443459117785096
1761333571810737000,2.87573681640625,0.010995565913617611,-0.01588248461484909,0.001832594396546483
1761333571829436000,2.894435791015625,0.010384701192378998,-0.015271619893610477,0.001832594396546483
1761333571848135000,2.913135009765625,0.010995565913617611,-0.01588248461484909,0.002443459117785096
1761333571866833700,2.931833740234375,0.009773836471140385,-0.01588248461484909,0.001832594396546483
1761333571885532700,2.95053271484375,0.010384701192378998,-0.01588248461484909,0.002443459117785096
1761333571904231700,2.969231689453125,0.010384701192378998,-0.01588248461484909,0.001221729558892548
1761333571922930400,2.987930419921875,0.009773836471140385,-0.01588248461484909,0.002443459117785096
1761333571941629400,3.00662939453125,0.010384701192378998,-0.015271619893610477,0.001832594396546483
1761333571960328400,3.025328369140625,0.010384701192378998,-0.015271619893610477,0.001221729558892548
1761333571979027200,3.044027099609375,0.010995565913617611,-0.01588248461484909,0.001832594396546483
1761333571997726200,3.062726318359375,0.010384701192378998,-0.014660755172371864,0.001221729558892548
1761333572016425200,3.08142529296875,0.010384701192378998,-0.015271619893610477,0.002443459117785096
1761333572035124200,3.100124267578125,0.010995565913617611,-0.01588248461484909,0.001832594396546483
1761333572053823000,3.118822998046875,0.010995565913617611,-0.015271619893610477,0.002443459117785096
1761333572072522000,3.13752197265625,0.009773836471140385,-0.015271619893610477,0.002443459117785096
1761333572091221000,3.156220947265625,0.009773836471140385,-0.015271619893610477,0.002443459117785096
1761333572109919700,3.174919677734375,0.010995565913617611,-0.01588248461484909,0.001832594396546483
1761333572128618800,3.19361865234375,0.010384701192378998,-0.015271619893610477,0.001832594396546483
1761333572147317800,3.21231787109375,0.010995565913617611,-0.015271619893610477,0.002443459117785096
1761333572166016500,3.2310166015625,0.010995565913617611,-0.015271619893610477,0.001832594396546483
1761333572184715500,3.249715576171875,0.009773836471140385,-0.015271619893610477,0.002443459117785096
1761333572203414500,3.26841455078125,0.010995565913617611,-0.015271619893610477,0.001221729558892548
1761333572222113300,3.28711328125,0.010995565913617611,-0.015271619893610477,0.001221729558892548
1761333572240812300,3.305812255859375,0.009773836471140385,-0.015271619893610477,0.001221729558892548
1761333572259511300,3.32451123046875,0.010995565913617611,-0.01588248461484909,0.002443459117785096
1761333572278210000,3.3432099609375,0.010995565913617611,-0.015271619893610477,0.002443459117785096
1761333572296909000,3.361908935546875,0.009773836471140385,-0.015271619893610477,0.001832594396546483
1761333572315608000,3.380608154296875,0.010995565913617611,-0.01588248461484909,0.002443459117785096
1761333572334306800,3.399306884765625,0.010995565913617611,-0.015271619893610477,0.001832594396546483
1761333572353005800,3.418005859375,0.010384701192378998,-0.015271619893610477,0.002443459117785096
1761333572371704800,3.436704833984375,0.010384701192378998,-0.014660755172371864,0.001832594396546483
1761333572390403600,3.455403564453125,0.009773836471140385,-0.015271619893610477,0.001832594396546483
1761333572409102600,3.4741025390625,0.010995565913617611,-0.01588248461484909,0.001832594396546483
1761333572427801600,3.492801513671875,0.009773836471140385,-0.014660755172371864,0.001832594396546483
1761333572446500600,3.51150048828125,0.010995565913617611,-0.015271619893610477,0.001221729558892548
1761333572465199400,3.530199462890625,0.010384701192378998,-0.014660755172371864,0.002443459117785096
1761333572483898400,3.5488984375,0.010384701192378998,-0.014660755172371864,0.001832594396546483
1761333572502597400,3.567597412109375,0.010384701192378998,-0.01588248461484909,0.001832594396546483
1761333572521296100,3.586296142578125,0.009773836471140385,-0.015271619893610477,0.002443459117785096
1761333572539995100,3.6049951171875,0.010995565913617611,-0.014660755172371864,0.001832594396546483
1761333572558694100,3.623694091796875,0.010995565913617611,-0.01588248461484909,0.002443459117785096
1761333572577393200,3.64239306640625,0.010995565913617611,-0.015271619893610477,0.001832594396546483
1761333572596092000,3.661091796875,0.010995565913617611,-0.015271619893610477,0.002443459117785096
1761333572614791000,3.679791015625,0.010384701192378998,-0.015271619893610477,0.001832594396546483
1761333572633490000,3.698489990234375,0.010384701192378998,-0.015271619893610477,0.002443459117785096
1761333572652188700,3.717188720703125,0.009773836471140385,-0.014049889519810677,0.002443459117785096
1761333572670887700,3.7358876953125,0.010384701192378998,-0.015271619893610477,0.001832594396546483
1761333572689586700,3.754586669921875,0.010384701192378998,-0.015271619893610477,0.002443459117785096
1761333572708285400,3.773285400390625,0.010384701192378998,-0.01588248461484909,0.001832594396546483
1761333572726984400,3.791984375,0.009773836471140385,-0.015271619893610477,0.001832594396546483
1761333572745683500,3.810683349609375,0.010384701192378998,-0.015271619893610477,0.001832594396546483
1761333572764382200,3.82938232421875,0.010384701192378998,-0.014660755172371864,0.002443459117785096
1761333572783081200,3.848081298828125,0.010995565913617611,-0.01588248461484909,0.0030543238390237093
1761333572801780200,3.8667802734375,0.010995565913617611,-0.015271619893610477,0.002443459117785096
1761333572820479000,3.88547900390625,0.010995565913617611,-0.015271619893610477,0.002443459117785096
1761333572839178000,3.904177978515625,0.010384701192378998,-0.01588248461484909,0.001832594396546483
1761333572857877000,3.922876953125,0.009773836471140385,-0.014660755172371864,0.001832594396546483
1761333572876575700,3.94157568359375,0.010384701192378998,-0.01588248461484909,0.002443459117785096
1761333572895274800,3.960274658203125,0.010995565913617611,-0.015271619893610477,0.002443459117785096
1761333572913973800,3.978973876953125,0.009773836471140385,-0.01588248461484909,0.002443459117785096
1761333572932672800,3.9976728515625,0.010995565913617611,-0.01649334840476513,0.002443459117785096
1761333572951371500,4.01637158203125,0.010384701192378998,-0.01649334840476513,0.001832594396546483
1761333572970070500,4.035070556640625,0.010384701192378998,-0.01588248461484909,0.002443459117785096
1761333572988769500,4.05376953125,0.010384701192378998,-0.014660755172371864,0.002443459117785096
1761333573007468300,4.07246826171875,0.009773836471140385,-0.015271619893610477,0.001832594396546483
1761333573026167300,4.091167236328125,0.010384701192378998,-0.01588248461484909,0.001832594396546483
1761333573044866300,4.1098662109375,0.010384701192378998,-0.01588248461484909,0.002443459117785096
1761333573063565300,4.1285654296875,0.009773836471140385,-0.01588248461484909,0.002443459117785096
1761333573082264000,4.14726416015625,0.010384701192378998,-0.015271619893610477,0.002443459117785096
1761333573100963000,4.165963134765625,0.010384701192378998,-0.01588248461484909,0.002443459117785096
1761333573119662000,4.184662109375,0.010384701192378998,-0.01588248461484909,0.002443459117785096
1761333573138361000,4.203361083984375,0.009773836471140385,-0.01588248461484909,0.002443459117785096
1761333573157059800,4.222059814453125,0.009773836471140385,-0.01588248461484909,0.002443459117785096
1761333573175758800,4.2407587890625,0.009773836471140385,-0.01588248461484909,0.002443459117785096
1761333573194457900,4.259457763671875,0.010995565913617611,-0.014660755172371864,0.001221729558892548
1761333573213156600,4.278156494140625,0.010384701192378998,-0.015271619893610477,0.001832594396546483
1761333573231855600,4.296855712890625,0.010384701192378998,-0.015271619893610477,0.001832594396546483
1761333573250554600,4.3155546875,0.009773836471140385,-0.015271619893610477,0.001832594396546483
1761333573269253400,4.33425341796875,0.009773836471140385,-0.01588248461484909,0.001832594396546483
1761333573287952400,4.352952392578125,0.010384701192378998,-0.014660755172371864,0.002443459117785096
1761333573306651400,4.3716513671875,0.010995565913617611,-0.015271619893610477,0.002443459117785096
1761333573325350100,4.39035009765625,0.009773836471140385,-0.014660755172371864,0.002443459117785096
1761333573344049200,4.409049072265625,0.010995565913617611,-0.014660755172371864,0.001832594396546483
1761333573362748200,4.427748046875,0.010384701192378998,-0.015271619893610477,0.001832594396546483
1761333573381447200,4.446447265625,0.010995565913617611,-0.014660755172371864,0.002443459117785096
1761333573400146000,4.46514599609375,0.010995565913617611,-0.015271619893610477,0.002443459117785096
1761333573418845000,4.483844970703125,0.010384701192378998,-0.01588248461484909,0.001832594396546483
1761333573437544000,4.5025439453125,0.010384701192378998,-0.01588248461484909,0.002443459117785096
1761333573456243000,4.521242919921875,0.010384701192378998,-0.015271619893610477,0.001221729558892548
1761333573474941700,4.539941650390625,0.009773836471140385,-0.014660755172371864,0.002443459117785096
1761333573493640700,4.558640625,0.010384701192378998,-0.01588248461484909,0.002443459117785096
1761333573512339700,4.577339599609375,0.010995565913617611,-0.01588248461484909,0.002443459117785096
1761333573531038500,4.59603857421875,0.010995565913617611,-0.015271619893610477,0.002443459117785096
1761333573549737500,4.614737548828125,0.010384701192378998,-0.01588248461484909,0.001832594396546483
1761333573568436500,4.6334365234375,0.010384701192378998,-0.014660755172371864,0.001832594396546483
1761333573587135200,4.65213525390625,0.010995565913617611,-0.01588248461484909,0.001832594396546483
1761333573605834200,4.670834228515625,0.010384701192378998,-0.015271619893610477,0.001832594396546483
1761333573624533200,4.689533203125,0.010995565913617611,-0.015271619893610477,0.002443459117785096
1761333573643232000,4.70823193359375,0.010995565913617611,-0.015271619893610477,0.002443459117785096
1761333573661931000,4.726930908203125,0.010384701192378998,-0.015271619893610477,0.001221729558892548
1761333573680630000,4.745630126953125,0.009773836471140385,-0.015271619893610477,0.001221729558892548
1761333573699329000,4.7643291015625,0.009773836471140385,-0.01588248461484909,0.002443459117785096
1761333573718028000,4.783028076171875,0.010384701192378998,-0.014660755172371864,0.002443459117785096
1761333573736726800,4.801726806640625,0.009773836471140385,-0.015271619893610477,0.002443459117785096
1761333573755425800,4.82042578125,0.010995565913617611,-0.015271619893610477,0.001221729558892548
1761333573774124800,4.839124755859375,0.010995565913617611,-0.014660755172371864,0.001832594396546483
1761333573792823600,4.857823486328125,0.010384701192378998,-0.01649334840476513,0.002443459117785096
1761333573811522600,4.8765224609375,0.009773836471140385,-0.014660755172371864,0.002443459117785096
1761333573830221600,4.8952216796875,0.010995565913617611,-0.015271619893610477,0.002443459117785096
1761333573848920600,4.913920654296875,0.010384701192378998,-0.01588248461484909,0.001832594396546483
1761333573867619300,4.932619384765625,0.010995565913617611,-0.01588248461484909,0.002443459117785096
1761333573886318300,4.951318359375,0.010995565913617611,-0.015271619893610477,0.001221729558892548
1761333573905017300,4.970017333984375,0.010995565913617611,-0.015271619893610477,0.002443459117785096
1761333573923716000,4.988716064453125,0.010384701192378998,-0.015271619893610477,0.002443459117785096
1761333573942415000,5.0074150390625,0.010995565913617611,-0.014049889519810677,0.002443459117785096
1761333573961114000,5.026114013671875,0.010384701192378998,-0.015271619893610477,0.001832594396546483
1761333573979813000,5.044813232421875,0.010995565913617611,-0.01649334840476513,0.002443459117785096
1761333573998512000,5.06351220703125,0.010384701192378998,-0.01588248461484909,0.001221729558892548
1761333574017211000,5.0822109375,0.010995565913617611,-0.015271619893610477,0.001832594396546483
1761333574035910000,5.100909912109375,0.009773836471140385,-0.014660755172371864,0.001832594396546483
1761333574054609000,5.11960888671875,0.010995565913617611,-0.01588248461484909,0.002443459117785096
1761333574073307600,5.1383076171875,0.010384701192378998,-0.015271619893610477,0.002443459117785096
1761333574092006700,5.157006591796875,0.009162971749901772,-0.01588248461484909,0.001832594396546483
1761333574110705700,5.17570556640625,0.010995565913617611,-0.015271619893610477,0.001832594396546483
1761333574129404400,5.194404296875,0.010995565913617611,-0.01588248461484909,0.002443459117785096
1761333574148103400,5.213103515625,0.010384701192378998,-0.01588248461484909,0.002443459117785096
1761333574166802400,5.231802490234375,0.010384701192378998,-0.014660755172371864,0.001832594396546483
1761333574185501400,5.25050146484375,0.010384701192378998,-0.01588248461484909,0.002443459117785096
1761333574204200200,5.2692001953125,0.010384701192378998,-0.014660755172371864,0.002443459117785096
1761333574222899200,5.287899169921875,0.009773836471140385,-0.01588248461484909,0.002443459117785096
1761333574241598200,5.30659814453125,0.010384701192378998,-0.014660755172371864,0.001832594396546483
1761333574260297200,5.325297119140625,0.010384701192378998,-0.015271619893610477,0.001832594396546483
1761333574278996000,5.343995849609375,0.009773836471140385,-0.015271619893610477,0.001832594396546483
1761333574297695000,5.362695068359375,0.010995565913617611,-0.015271619893610477,0.001832594396546483
1761333574316394000,5.38139404296875,0.009773836471140385,-0.01588248461484909,0.001832594396546483
1761333574335092700,5.4000927734375,0.009773836471140385,-0.01588248461484909,0.001832594396546483
1761333574353791700,5.418791748046875,0.010384701192378998,-0.01588248461484909,0.002443459117785096
1761333574372490800,5.43749072265625,0.009773836471140385,-0.015271619893610477,0.002443459117785096
1761333574391189800,5.456189697265625,0.010384701192378998,-0.015271619893610477,0.002443459117785096
1761333574409888500,5.474888427734375,0.009773836471140385,-0.015271619893610477,0.001832594396546483
1761333574428587500,5.49358740234375,0.010384701192378998,-0.015271619893610477,0.002443459117785096
1761333574447286500,5.51228662109375,0.010995565913617611,-0.01588248461484909,0.002443459117785096
1761333574465985500,5.530985595703125,0.010995565913617611,-0.015271619893610477,0.001221729558892548
1761333574484684300,5.549684326171875,0.009773836471140385,-0.01588248461484909,0.002443459117785096
1761333574503383300,5.56838330078125,0.010995565913617611,-0.01588248461484909,0.001832594396546483
1761333574522082300,5.587082275390625,0.010995565913617611,-0.015271619893610477,0.001221729558892548
1761333574540781000,5.605781005859375,0.010995565913617611,-0.014660755172371864,0.002443459117785096
1761333574559480000,5.62447998046875,0.010995565913617611,-0.01588248461484909,0.002443459117785096
1761333574578179000,5.643178955078125,0.009773836471140385,-0.014660755172371864,0.001832594396546483
1761333574596878000,5.661878173828125,0.011606430634856224,-0.015271619893610477,0.001832594396546483
1761333574615576800,5.680576904296875,0.009773836471140385,-0.015271619893610477,0.001832594396546483
1761333574634275800,5.69927587890625,0.010384701192378998,-0.014660755172371864,0.002443459117785096
1761333574652974800,5.717974853515625,0.009773836471140385,-0.015271619893610477,0.001832594396546483
1761333574671673600,5.736673583984375,0.010384701192378998,-0.015271619893610477,0.001832594396546483
1761333574690372900,5.755372802734375,0.009773836471140385,-0.015271619893610477,0.002443459117785096
1761333574709071600,5.774071533203125,0.010384701192378998,-0.01588248461484909,0.002443459117785096
1761333574727770600,5.7927705078125,0.009162971749901772,-0.014660755172371864,0.002443459117785096
1761333574746469600,5.8114697265625,0.010995565913617611,-0.015271619893610477,0.002443459117785096
1761333574765168400,5.83016845703125,0.010384701192378998,-0.015271619893610477,0.002443459117785096
1761333574783867400,5.848867431640625,0.010384701192378998,-0.01588248461484909,0.002443459117785096
1761333574802566400,5.86756640625,0.010384701192378998,-0.014660755172371864,0.001221729558892548
1761333574821265400,5.886265380859375,0.010384701192378998,-0.01588248461484909,0.002443459117785096
1761333574839964200,5.904964111328125,0.009773836471140385,-0.01588248461484909,0.001221729558892548
1761333574858663200,5.9236630859375,0.010995565913617611,-0.015271619893610477,0.002443459117785096
1761333574877362200,5.942362060546875,0.010995565913617611,-0.015271619893610477,0.001832594396546483
1761333574896061200,5.961061279296875,0.010384701192378998,-0.014660755172371864,0.001832594396546483
1761333574914760000,5.979760009765625,0.010384701192378998,-0.014660755172371864,0.001832594396546483
1761333574933459000,5.998458984375,0.010384701192378998,-0.01588248461484909,0.001221729558892548
1761333574952158000,6.017157958984375,0.010384701192378998,-0.01588248461484909,0.001832594396546483
1761333574970856700,6.035856689453125,0.009773836471140385,-0.015271619893610477,0.001221729558892548
1761333574989555700,6.0545556640625,0.010995565913617611,-0.01588248461484909,0.002443459117785096
1761333575008254700,6.073254638671875,0.009773836471140385,-0.015271619893610477,0.001221729558892548
1761333575026953700,6.09195361328125,0.009773836471140385,-0.01588248461484909,0.001221729558892548
1761333575045652700,6.11065283203125,0.009773836471140385,-0.014660755172371864,0.002443459117785096
1761333575064351500,6.1293515625,0.010384701192378998,-0.015271619893610477,0.001832594396546483
1761333575083050500,6.148050537109375,0.010995565913617611,-0.014660755172371864,0.002443459117785096
1761333575101749500,6.16674951171875,0.010995565913617611,-0.015271619893610477,0.002443459117785096
1761333575120448300,6.1854482421875,0.010995565913617611,-0.015271619893610477,0.001832594396546483
1761333575139147300,6.204147216796875,0.010384701192378998,-0.015271619893610477,0.002443459117785096
1761333575157846300,6.22284619140625,0.010995565913617611,-0.014660755172371864,0.001221729558892548
1761333575176545300,6.241545166015625,0.009773836471140385,-0.015271619893610477,0.001832594396546483
1761333575195244300,6.260244384765625,0.010995565913617611,-0.014660755172371864,0.002443459117785096
1761333575213943000,6.278943115234375,0.010384701192378998,-0.014660755172371864,0.002443459117785096
1761333575232642000,6.29764208984375,0.009773836471140385,-0.014660755172371864,0.001221729558892548
1761333575251341000,6.316341064453125,0.010995565913617611,-0.015271619893610477,0.002443459117785096
1761333575270039800,6.335039794921875,0.010384701192378998,-0.01588248461484909,0.002443459117785096
1761333575288738800,6.35373876953125,0.009773836471140385,-0.01588248461484909,0.002443459117785096
1761333575307437800,6.372437744140625,0.010384701192378998,-0.01649334840476513,0.002443459117785096
1761333575326136800,6.39113671875,0.010384701192378998,-0.01588248461484909,0.001832594396546483
1761333575344835600,6.409835693359375,0.010995565913617611,-0.014660755172371864,0.002443459117785096
1761333575363534600,6.42853466796875,0.010995565913617611,-0.015271619893610477,0.002443459117785096
1761333575382233600,6.447233642578125,0.010384701192378998,-0.01588248461484909,0.002443459117785096
1761333575400932600,6.4659326171875,0.010995565913617611,-0.01588248461484909,0.002443459117785096
1761333575419631600,6.484631591796875,0.010384701192378998,-0.01588248461484909,0.002443459117785096
1761333575438330400,6.503330322265625,0.009773836471140385,-0.015271619893610477,0.002443459117785096
1761333575457029400,6.522029296875,0.009773836471140385,-0.01588248461484909,0.002443459117785096
1761333575475728400,6.540728271484375,0.010384701192378998,-0.015271619893610477,0.001832594396546483
1761333575494427100,6.55942724609375,0.010384701192378998,-0.01588248461484909,0.002443459117785096
1761333575513126100,6.578126220703125,0.010384701192378998,-0.014660755172371864,0.001832594396546483
1761333575531825200,6.5968251953125,0.010384701192378998,-0.014660755172371864,0.002443459117785096
1761333575550524200,6.615524169921875,0.010995565913617611,-0.01588248461484909,0.002443459117785096
1761333575569223200,6.63422314453125,0.010384701192378998,-0.01588248461484909,0.001832594396546483
1761333575587922000,6.652921875,0.010384701192378998,-0.015271619893610477,0.002443459117785096
1761333575606621000,6.671620849609375,0.010384701192378998,-0.014660755172371864,0.001221729558892548
1761333575625320000,6.69031982421875,0.010995565913617611,-0.014660755172371864,0.001832594396546483
1761333575644018700,6.709018798828125,0.009773836471140385,-0.015271619893610477,0.001221729558892548
1761333575662717700,6.7277177734375,0.010384701192378998,-0.01588248461484909,0.002443459117785096
1761333575681416700,6.746416748046875,0.009773836471140385,-0.01588248461484909,0.002443459117785096
1761333575700115700,6.76511572265625,0.010995565913617611,-0.014660755172371864,0.001832594396546483
1761333575718814700,6.783814697265625,0.009773836471140385,-0.01588248461484909,0.002443459117785096
1761333575737513500,6.802513427734375,0.010384701192378998,-0.01588248461484909,0.001832594396546483
1761333575756212500,6.82121240234375,0.010384701192378998,-0.014660755172371864,0.001832594396546483
1761333575774911500,6.839911376953125,0.009773836471140385,-0.015271619893610477,0.002443459117785096
1761333575793610200,6.8586103515625,0.010384701192378998,-0.01588248461484909,0.002443459117785096
1761333575812309200,6.877309326171875,0.010995565913617611,-0.01588248461484909,0.002443459117785096
1761333575831008300,6.89600830078125,0.010384701192378998,-0.014660755172371864,0.002443459117785096
1761333575849707300,6.914707275390625,0.010995565913617611,-0.015271619893610477,0.002443459117785096
1761333575868406300,6.93340625,0.010384701192378998,-0.014660755172371864,0.001221729558892548
1761333575887105000,6.95210498046875,0.010384701192378998,-0.014660755172371864,0.001832594396546483
1761333575905804000,6.970803955078125,0.009773836471140385,-0.015271619893610477,0.001221729558892548
1761333575924503000,6.9895029296875,0.010384701192378998,-0.01588248461484909,0.002443459117785096
1761333575943201800,7.008201904296875,0.009773836471140385,-0.014660755172371864,0.001832594396546483
1761333575961900800,7.02690087890625,0.010995565913617611,-0.015271619893610477,0.002443459117785096
1761333575980599800,7.045599853515625,0.010995565913617611,-0.015271619893610477,0.002443459117785096
1761333575999298800,7.064298828125,0.010995565913617611,-0.01588248461484909,0.001832594396546483
1761333576017997800,7.082997802734375,0.009773836471140385,-0.01588248461484909,0.001832594396546483
1761333576036696600,7.101696533203125,0.010995565913617611,-0.01588248461484909,0.002443459117785096
1761333576055395600,7.1203955078125,0.009773836471140385,-0.015271619893610477,0.002443459117785096
1761333576074094600,7.139094482421875,0.010384701192378998,-0.01588248461484909,0.001832594396546483
1761333576092793300,7.15779345703125,0.010384701192378998,-0.015271619893610477,0.002443459117785096
1761333576111492400,7.176492431640625,0.010384701192378998,-0.01588248461484909,0.002443459117785096
1761333576130191400,7.19519140625,0.010384701192378998,-0.015271619893610477,0.001832594396546483
1761333576148890400,7.213890380859375,0.010384701192378998,-0.01588248461484909,0.001832594396546483
1761333576167589400,7.23258935546875,0.010384701192378998,-0.015271619893610477,0.001832594396546483
1761333576186288400,7.251288330078125,0.010995565913617611,-0.015271619893610477,0.001221729558892548
1761333576204987100,7.269987060546875,0.010995565913617611,-0.015271619893610477,0.002443459117785096
1761333576223686100,7.28868603515625,0.010384701192378998,-0.014660755172371864,0.001221729558892548
1761333576242385200,7.30738525390625,0.010384701192378998,-0.01588248461484909,0.001832594396546483
1761333576261084000,7.326083984375,0.010384701192378998,-0.01588248461484909,0.002443459117785096
1761333576279783000,7.344782958984375,0.010995565913617611,-0.014660755172371864,0.002443459117785096
1761333576298482000,7.36348193359375,0.009773836471140385,-0.014660755172371864,0.001832594396546483
1761333576317181000,7.382180908203125,0.010995565913617611,-0.014660755172371864,0.001221729558892548
1761333576335880000,7.4008798828125,0.010384701192378998,-0.015271619893610477,0.001221729558892548
1761333576354578700,7.41957861328125,0.010384701192378998,-0.015271619893610477,0.001832594396546483
1761333576373277700,7.438277587890625,0.010995565913617611,-0.014660755172371864,0.002443459117785096
1761333576391976700,7.456976806640625,0.010995565913617611,-0.01588248461484909,0.002443459117785096
1761333576410675500,7.475675537109375,0.010384701192378998,-0.015271619893610477,0.001221729558892548
1761333576429374500,7.49437451171875,0.010995565913617611,-0.015271619893610477,0.002443459117785096
1761333576448073500,7.513073486328125,0.010384701192378998,-0.015271619893610477,0.001221729558892548
1761333576466772500,7.5317724609375,0.009773836471140385,-0.015271619893610477,0.002443459117785096
1761333576485471500,7.550471435546875,0.010995565913617611,-0.015271619893610477,0.001221729558892548
1761333576504170200,7.569170166015625,0.011606430634856224,-0.01588248461484909,0.002443459117785096
1761333576522869200,7.587869140625,0.010995565913617611,-0.015271619893610477,0.001832594396546483
1761333576541568300,7.606568359375,0.010995565913617611,-0.014660755172371864,0.001221729558892548
1761333576560267000,7.62526708984375,0.009773836471140385,-0.015271619893610477,0.002443459117785096
1761333576578966000,7.643966064453125,0.010995565913617611,-0.01588248461484909,0.002443459117785096
1761333576597665000,7.6626650390625,0.010384701192378998,-0.014660755172371864,0.002443459117785096
1761333576616364000,7.681364013671875,0.009773836471140385,-0.015271619893610477,0.002443459117785096
1761333576635063000,7.70006298828125,0.010995565913617611,-0.01649334840476513,0.002443459117785096
1761333576653761800,7.71876171875,0.010995565913617611,-0.015271619893610477,0.002443459117785096
1761333576672460800,7.737460693359375,0.009773836471140385,-0.01588248461484909,0.002443459117785096
1761333576691159800,7.756159912109375,0.010384701192378998,-0.01588248461484909,0.001832594396546483
1761333576709858800,7.77485888671875,0.009773836471140385,-0.015271619893610477,0.001832594396546483
1761333576728557600,7.7935576171875,0.009162971749901772,-0.014660755172371864,0.001221729558892548
1761333576747256600,7.812256591796875,0.010384701192378998,-0.014660755172371864,0.001832594396546483
1761333576765955600,7.83095556640625,0.010384701192378998,-0.015271619893610477,0.002443459117785096
1761333576784654600,7.849654541015625,0.009773836471140385,-0.014660755172371864,0.001832594396546483
1761333576803353300,7.868353271484375,0.010995565913617611,-0.01588248461484909,0.002443459117785096
1761333576822052400,7.88705224609375,0.009773836471140385,-0.014660755172371864,0.001221729558892548
1761333576840751400,7.90575146484375,0.010995565913617611,-0.015271619893610477,0.001832594396546483
1761333576859450400,7.924450439453125,0.010384701192378998,-0.01588248461484909,0.002443459117785096
1761333576878149400,7.9431494140625,0.010384701192378998,-0.015271619893610477,0.001832594396546483
1761333576896848400,7.961848388671875,0.010995565913617611,-0.015271619893610477,0.002443459117785096
1761333576915547100,7.980547119140625,0.010384701192378998,-0.01588248461484909,0.002443459117785096
1761333576934246100,7.99924609375,0.010384701192378998,-0.014660755172371864,0.001832594396546483
1761333576952945200,8.017945068359374,0.010384701192378998,-0.015271619893610477,0.001832594396546483
1761333576971644000,8.036643798828125,0.010384701192378998,-0.01588248461484909,0.002443459117785096
1761333576990343000,8.055343017578124,0.009773836471140385,-0.01588248461484909,0.001221729558892548
1761333577009042000,8.0740419921875,0.010995565913617611,-0.01588248461484909,0.001832594396546483
1761333577027741000,8.092740966796875,0.010384701192378998,-0.015271619893610477,0.002443459117785096
1761333577046440000,8.11143994140625,0.010384701192378998,-0.015271619893610477,0.001221729558892548
1761333577065138700,8.130138671875,0.009773836471140385,-0.014660755172371864,0.001221729558892548
1761333577083837700,8.148837646484376,0.010384701192378998,-0.015271619893610477,0.002443459117785096
1761333577102536700,8.16753662109375,0.010995565913617611,-0.015271619893610477,0.001221729558892548
1761333577121235700,8.186235595703126,0.010384701192378998,-0.015271619893610477,0.001221729558892548
1761333577139934500,8.2049345703125,0.010995565913617611,-0.01588248461484909,0.002443459117785096
1761333577158633500,8.223633544921874,0.010995565913617611,-0.014660755172371864,0.002443459117785096
1761333577177332500,8.24233251953125,0.010384701192378998,-0.015271619893610477,0.002443459117785096
1761333577196031500,8.261031494140624,0.009773836471140385,-0.01588248461484909,0.001832594396546483
1761333577214730200,8.279730224609375,0.010384701192378998,-0.015271619893610477,0.001832594396546483
1761333577233429200,8.29842919921875,0.009773836471140385,-0.015271619893610477,0.001832594396546483
1761333577252128300,8.317128173828126,0.009773836471140385,-0.014660755172371864,0.002443459117785096
1761333577270827000,8.335826904296875,0.010384701192378998,-0.01588248461484909,0.002443459117785096
1761333577289526300,8.3545263671875,0.010384701192378998,-0.01588248461484909,0.001832594396546483
1761333577308225000,8.37322509765625,0.009773836471140385,-0.015271619893610477,0.002443459117785096
1761333577326924000,8.391924072265626,0.010995565913617611,-0.01588248461484909,0.002443459117785096
1761333577345623000,8.410623046875,0.009773836471140385,-0.015271619893610477,0.002443459117785096
1761333577364321800,8.42932177734375,0.010384701192378998,-0.015271619893610477,0.002443459117785096
1761333577383020800,8.448020751953125,0.010995565913617611,-0.015271619893610477,0.002443459117785096
1761333577401719800,8.4667197265625,0.009773836471140385,-0.014660755172371864,0.0030543238390237093
1761333577420418800,8.485418701171875,0.009773836471140385,-0.014660755172371864,0.002443459117785096
1761333577439117800,8.504117919921875,0.010384701192378998,-0.015271619893610477,0.001832594396546483
1761333577457816600,8.522816650390626,0.010995565913617611,-0.014660755172371864,0.001832594396546483
1761333577476515600,8.541515625,0.010995565913617611,-0.014660755172371864,0.002443459117785096
1761333577495214600,8.560214599609376,0.009773836471140385,-0.015271619893610477,0.001832594396546483
1761333577513913600,8.57891357421875,0.009773836471140385,-0.014660755172371864,0.002443459117785096
1761333577532612600,8.597612548828126,0.010384701192378998,-0.01588248461484909,0.002443459117785096
1761333577551311600,8.6163115234375,0.009773836471140385,-0.015271619893610477,0.001832594396546483
1761333577570010400,8.63501025390625,0.010995565913617611,-0.015271619893610477,0.001832594396546483
1761333577588709400,8.65370947265625,0.010995565913617611,-0.015271619893610477,0.002443459117785096
1761333577607408400,8.672408447265624,0.010995565913617611,-0.015271619893610477,0.001832594396546483
1761333577626107100,8.691107177734375,0.010995565913617611,-0.015271619893610477,0.002443459117785096
1761333577644806100,8.70980615234375,0.010384701192378998,-0.01588248461484909,0.002443459117785096
1761333577663505200,8.728505126953126,0.010384701192378998,-0.01588248461484909,0.002443459117785096
1761333577682204200,8.7472041015625,0.010995565913617611,-0.01588248461484909,0.001832594396546483
1761333577700903200,8.765903076171876,0.010384701192378998,-0.014660755172371864,0.001832594396546483
1761333577719602000,8.784601806640625,0.010995565913617611,-0.014660755172371864,0.002443459117785096
1761333577738301000,8.803301025390626,0.010384701192378998,-0.015271619893610477,0.002443459117785096
1761333577757000000,8.822,0.011606430634856224,-0.01588248461484909,0.002443459117785096
1761333577775699000,8.840698974609374,0.010995565913617611,-0.015271619893610477,0.001832594396546483
1761333577794398000,8.85939794921875,0.009162971749901772,-0.015271619893610477,0.001221729558892548
1761333577813096700,8.8780966796875,0.010384701192378998,-0.01588248461484909,0.001832594396546483
1761333577831795700,8.896795654296875,0.009773836471140385,-0.01588248461484909,0.001832594396546483
1761333577850494700,8.91549462890625,0.009773836471140385,-0.014660755172371864,0.001832594396546483
1761333577869193500,8.934193359375,0.010995565913617611,-0.015271619893610477,0.002443459117785096
1761333577887892500,8.952892578125,0.009773836471140385,-0.01588248461484909,0.002443459117785096
1761333577906591500,8.971591552734376,0.010995565913617611,-0.015271619893610477,0.002443459117785096
1761333577925290500,8.99029052734375,0.010384701192378998,-0.015271619893610477,0.001221729558892548
1761333577943989500,9.008989501953126,0.010995565913617611,-0.014660755172371864,0.002443459117785096
1761333577962688300,9.027688232421875,0.010384701192378998,-0.01588248461484909,0.002443459117785096
1761333577981387300,9.04638720703125,0.009773836471140385,-0.015271619893610477,0.002443459117785096
1761333578000086300,9.065086181640625,0.009773836471140385,-0.01588248461484909,0.002443459117785096
1761333578018785300,9.083785400390624,0.010384701192378998,-0.015271619893610477,0.002443459117785096
1761333578037484300,9.102484375,0.010995565913617611,-0.01588248461484909,0.002443459117785096
1761333578056183000,9.12118310546875,0.010995565913617611,-0.01588248461484909,0.001832594396546483
1761333578074882000,9.139882080078126,0.010384701192378998,-0.015271619893610477,0.002443459117785096
1761333578093581000,9.1585810546875,0.010384701192378998,-0.015271619893610477,0.002443459117785096
1761333578112279800,9.17727978515625,0.010384701192378998,-0.014660755172371864,0.002443459117785096
1761333578130978800,9.195978759765625,0.010384701192378998,-0.014660755172371864,0.002443459117785096
1761333578149677800,9.214677734375,0.010995565913617611,-0.015271619893610477,0.001832594396546483
1761333578168376800,9.233376953125,0.009773836471140385,-0.015271619893610477,0.001221729558892548
1761333578187075800,9.252075927734374,0.010384701192378998,-0.015271619893610477,0.002443459117785096
1761333578205774800,9.27077490234375,0.010995565913617611,-0.01588248461484909,0.001832594396546483
1761333578224473600,9.2894736328125,0.011606430634856224,-0.014660755172371864,0.002443459117785096
1761333578243172600,9.308172607421875,0.009773836471140385,-0.015271619893610477,0.002443459117785096
1761333578261871600,9.32687158203125,0.010995565913617611,-0.014660755172371864,0.002443459117785096
1761333578280570600,9.345570556640626,0.010384701192378998,-0.014660755172371864,0.002443459117785096
1761333578299269600,9.36426953125,0.010384701192378998,-0.014660755172371864,0.001221729558892548
1761333578317968400,9.382968505859376,0.010384701192378998,-0.015271619893610477,0.001832594396546483
1761333578336667400,9.40166748046875,0.010384701192378998,-0.015271619893610477,0.001221729558892548
1761333578355366400,9.420366455078126,0.010384701192378998,-0.014660755172371864,0.002443459117785096
1761333578374065200,9.439065185546875,0.010384701192378998,-0.01588248461484909,0.001832594396546483
1761333578392764200,9.45776416015625,0.010384701192378998,-0.014660755172371864,0.001832594396546483
1761333578411463200,9.476463134765625,0.009773836471140385,-0.015271619893610477,0.002443459117785096
1761333578430162200,9.495162109375,0.010995565913617611,-0.015271619893610477,0.002443459117785096
1761333578448861200,9.513861083984375,0.010995565913617611,-0.01588248461484909,0.001832594396546483
1761333578467560000,9.532559814453125,0.011606430634856224,-0.014660755172371864,0.001832594396546483
1761333578486259000,9.551259033203126,0.009773836471140385,-0.01588248461484909,0.002443459117785096
1761333578504958000,9.5699580078125,0.010995565913617611,-0.014660755172371864,0.002443459117785096
1761333578523657000,9.588656982421876,0.010995565913617611,-0.015271619893610477,0.002443459117785096
1761333578542356000,9.60735595703125,0.010384701192378998,-0.01588248461484909,0.002443459117785096
1761333578561054700,9.6260546875,0.010384701192378998,-0.01588248461484909,0.001221729558892548
1761333578579753700,9.644753662109375,0.010995565913617611,-0.015271619893610477,0.001832594396546483
1761333578598452700,9.66345263671875,0.010384701192378998,-0.015271619893610477,0.002443459117785096
1761333578617151500,9.6821513671875,0.010384701192378998,-0.01588248461484909,0.002443459117785096
1761333578635850500,9.7008505859375,0.010995565913617611,-0.01588248461484909,0.002443459117785096
1761333578654549500,9.719549560546875,0.009162971749901772,-0.015271619893610477,0.003665188793092966
1761333578673248500,9.73824853515625,0.009773836471140385,-0.01588248461484909,0.002443459117785096
1761333578691947500,9.756947509765626,0.010384701192378998,-0.01649334840476513,0.001221729558892548
1761333578710646300,9.775646240234375,0.010384701192378998,-0.015271619893610477,0.001221729558892548
1761333578729345300,9.79434521484375,0.010995565913617611,-0.014660755172371864,0.001221729558892548
1761333578748044300,9.813044189453125,0.010995565913617611,-0.014660755172371864,0.002443459117785096
