time,seconds_elapsed,z,y,x
1761315618889888500,0.065888427734375,-0.8600921630859375,-0.502227783203125,0.205169677734375
1761315618899936800,0.075936767578125,-0.85394287109375,-0.5100555419921875,0.1981353759765625
1761315618909984500,0.085984619140625,-0.8593902587890625,-0.5135345458984375,0.1969146728515625
1761315618920031500,0.096031494140625,-0.856536865234375,-0.5131988525390625,0.1927337646484375
1761315618930079700,0.106079833984375,-0.8509674072265625,-0.5123291015625,0.1939849853515625
1761315618940126700,0.116126708984375,-0.8509674072265625,-0.5145416259765625,0.198699951171875
1761315618950174500,0.126174560546875,-0.8504180908203125,-0.52459716796875,0.2083282470703125
1761315618960221400,0.136221435546875,-0.8402862548828125,-0.5347137451171875,0.2123260498046875
1761315618970269700,0.146269775390625,-0.8226470947265625,-0.5416259765625,0.21099853515625
1761315618980316700,0.156316650390625,-0.807952880859375,-0.548858642578125,0.2064056396484375
1761315618990364700,0.16636474609375,-0.79949951171875,-0.5579986572265625,0.2057037353515625
1761315619000412700,0.17641259765625,-0.7930145263671875,-0.57012939453125,0.2071380615234375
1761315619010459600,0.186459716796875,-0.7929840087890625,-0.5825958251953125,0.208953857421875
1761315619020507600,0.196507568359375,-0.8052215576171875,-0.5905914306640625,0.2103271484375
1761315619030554600,0.2065546875,-0.8130340576171875,-0.598419189453125,0.207855224609375
1761315619040602600,0.2166025390625,-0.81866455078125,-0.6024932861328125,0.2087860107421875
1761315619050649600,0.226649658203125,-0.8302764892578125,-0.6036224365234375,0.2048492431640625
1761315619060697600,0.236697509765625,-0.8344879150390625,-0.603271484375,0.1993560791015625
1761315619070744600,0.24674462890625,-0.83941650390625,-0.5890045166015625,0.1866607666015625
1761315619080792600,0.25679248046875,-0.8422088623046875,-0.5717010498046875,0.1768798828125
1761315619090840600,0.266840576171875,-0.8538360595703125,-0.561767578125,0.1714630126953125
1761315619100887600,0.276887451171875,-0.87445068359375,-0.5502166748046875,0.164031982421875
1761315619110935800,0.286935791015625,-0.8753662109375,-0.530853271484375,0.149810791015625
1761315619120982500,0.296982421875,-0.86395263671875,-0.521392822265625,0.13275146484375
1761315619131030500,0.307030517578125,-0.8526763916015625,-0.5182952880859375,0.1148834228515625
1761315619141077500,0.317077392578125,-0.8359222412109375,-0.5103759765625,0.100189208984375
1761315619151125800,0.327125732421875,-0.83062744140625,-0.509796142578125,0.0987548828125
1761315619161172700,0.3371728515625,-0.83221435546875,-0.5152740478515625,0.1006011962890625
1761315619171220500,0.347220458984375,-0.816009521484375,-0.517120361328125,0.0931396484375
1761315619181267500,0.357267333984375,-0.7945556640625,-0.514739990234375,0.0965118408203125
1761315619191315700,0.367315673828125,-0.828643798828125,-0.516357421875,0.111328125
1761315619201363500,0.377363525390625,-0.8582916259765625,-0.51336669921875,0.118194580078125
1761315619211410400,0.387410400390625,-0.851531982421875,-0.4871368408203125,0.1117706298828125
1761315619221458700,0.397458740234375,-0.8305206298828125,-0.4539642333984375,0.1024932861328125
1761315619231505700,0.407505615234375,-0.8113555908203125,-0.43310546875,0.092742919921875
1761315619241553700,0.4175537109375,-0.789459228515625,-0.42071533203125,0.091827392578125
1761315619251600400,0.427600341796875,-0.77001953125,-0.411834716796875,0.0994873046875
1761315619261648600,0.437648681640625,-0.7565460205078125,-0.400115966796875,0.1070556640625
1761315619271695600,0.447695556640625,-0.7494049072265625,-0.3901214599609375,0.11212158203125
1761315619281743600,0.45774365234375,-0.75146484375,-0.385894775390625,0.112884521484375
1761315619291791600,0.46779150390625,-0.7768096923828125,-0.382415771484375,0.1110076904296875
1761315619301838600,0.477838623046875,-0.79443359375,-0.3901519775390625,0.1174468994140625
1761315619311886600,0.487886474609375,-0.7998199462890625,-0.395782470703125,0.123077392578125
1761315619321933600,0.49793359375,-0.7982940673828125,-0.3949737548828125,0.1226654052734375
1761315619331981600,0.507981689453125,-0.8008575439453125,-0.3883819580078125,0.1256866455078125
1761315619342028500,0.518028564453125,-0.793731689453125,-0.378997802734375,0.122406005859375
1761315619352076500,0.52807666015625,-0.78179931640625,-0.3721160888671875,0.116973876953125
1761315619362123500,0.53812353515625,-0.7699737548828125,-0.371307373046875,0.10345458984375
1761315619372171500,0.548171630859375,-0.7544097900390625,-0.3682708740234375,0.077911376953125
1761315619382218500,0.558218505859375,-0.768524169921875,-0.3648834228515625,0.051361083984375
1761315619392266500,0.5682666015625,-0.8272857666015625,-0.3687286376953125,0.056793212890625
1761315619402314800,0.578314697265625,-0.8763275146484375,-0.372772216796875,0.08648681640625
1761315619412361700,0.58836181640625,-0.8563385009765625,-0.37933349609375,0.107269287109375
1761315619422409500,0.598409423828125,-0.839996337890625,-0.3881378173828125,0.135040283203125
1761315619432456400,0.60845654296875,-0.842132568359375,-0.4054107666015625,0.1504364013671875
1761315619442504700,0.618504638671875,-0.865386962890625,-0.4303436279296875,0.2165985107421875
1761315619452551700,0.6285517578125,-0.9353790283203125,-0.4846649169921875,0.3033447265625
1761315619462599400,0.638599365234375,-0.98809814453125,-0.52667236328125,0.333251953125
1761315619472646700,0.648646728515625,-0.9838409423828125,-0.5977020263671875,0.3385162353515625
1761315619482694700,0.658694580078125,-0.9798126220703125,-0.6060028076171875,0.348175048828125
1761315619492741600,0.66874169921875,-1.0068206787109375,-0.5732879638671875,0.35223388671875
1761315619502789400,0.678789306640625,-0.98382568359375,-0.5714569091796875,0.3507080078125
1761315619512837600,0.688837646484375,-0.9733123779296875,-0.606048583984375,0.35052490234375
1761315619522884600,0.698884521484375,-0.9795074462890625,-0.622406005859375,0.32244873046875
1761315619532932600,0.7089326171875,-0.980865478515625,-0.592437744140625,0.2877655029296875
1761315619542979800,0.718979736328125,-0.9600372314453125,-0.559844970703125,0.246612548828125
1761315619553027600,0.729027587890625,-0.9321746826171875,-0.545806884765625,0.209625244140625
1761315619563074600,0.739074462890625,-0.9121246337890625,-0.5354156494140625,0.1916351318359375
1761315619573122600,0.74912255859375,-0.90228271484375,-0.5258941650390625,0.179656982421875
1761315619583169800,0.759169677734375,-0.8862762451171875,-0.5017242431640625,0.1605224609375
1761315619593217500,0.769217529296875,-0.8843994140625,-0.47723388671875,0.147979736328125
1761315619603264500,0.779264404296875,-0.8534088134765625,-0.479461669921875,0.1453399658203125
1761315619613312500,0.7893125,-0.8101043701171875,-0.4873199462890625,0.1528472900390625
1761315619623360500,0.799360595703125,-0.7625579833984375,-0.4778900146484375,0.17791748046875
1761315619633407500,0.809407470703125,-0.829925537109375,-0.5085906982421875,0.217926025390625
1761315619643455500,0.81945556640625,-0.8370819091796875,-0.5210723876953125,0.1875152587890625
1761315619653502700,0.829502685546875,-0.784637451171875,-0.494049072265625,0.1378631591796875
1761315619663550700,0.83955078125,-0.80499267578125,-0.49114990234375,0.1054840087890625
1761315619673597700,0.84959765625,-0.81072998046875,-0.4984588623046875,0.0910797119140625
1761315619683645400,0.8596455078125,-0.82720947265625,-0.4793701171875,0.1062774658203125
1761315619693696300,0.8696962890625,-0.8472747802734375,-0.4430084228515625,0.097137451171875
1761315619703744500,0.87974462890625,-0.8414764404296875,-0.4158172607421875,0.1060638427734375
1761315619713791500,0.88979150390625,-0.838165283203125,-0.4207000732421875,0.1569671630859375
1761315619723839200,0.899839111328125,-0.8667449951171875,-0.4566650390625,0.2159271240234375
1761315619733887500,0.909887451171875,-0.8759918212890625,-0.49493408203125,0.260986328125
1761315619743934500,0.9199345703125,-0.8745269775390625,-0.510223388671875,0.27239990234375
1761315619753982200,0.929982177734375,-0.869720458984375,-0.49993896484375,0.24847412109375
1761315619764029200,0.940029296875,-0.8797760009765625,-0.4902191162109375,0.217620849609375
1761315619774077400,0.950077392578125,-0.9062042236328125,-0.505584716796875,0.1982574462890625
1761315619784124400,0.96012451171875,-0.9205322265625,-0.534515380859375,0.1755523681640625
1761315619794172200,0.970172119140625,-0.93902587890625,-0.550079345703125,0.157470703125
1761315619804219100,0.98021923828125,-0.960540771484375,-0.5518951416015625,0.1438751220703125
1761315619814267400,0.990267333984375,-0.9485015869140625,-0.5485992431640625,0.1349334716796875
1761315619824314400,1.000314453125,-0.9414825439453125,-0.538116455078125,0.131805419921875
1761315619834362400,1.0103623046875,-0.949676513671875,-0.52801513671875,0.1285400390625
1761315619844410400,1.020410400390625,-0.9481048583984375,-0.5217132568359375,0.127960205078125
1761315619854457300,1.030457275390625,-0.919647216796875,-0.516448974609375,0.123992919921875
1761315619864505300,1.04050537109375,-0.917236328125,-0.5036163330078125,0.1202545166015625
1761315619874552300,1.05055224609375,-0.88836669921875,-0.490447998046875,0.1143646240234375
1761315619884600300,1.060600341796875,-0.8734283447265625,-0.463104248046875,0.094757080078125
1761315619894647300,1.070647216796875,-0.8143310546875,-0.470245361328125,0.0874481201171875
1761315619904695300,1.0806953125,-0.7681427001953125,-0.4458465576171875,0.05841064453125
1761315619914742300,1.0907421875,-0.721771240234375,-0.3973236083984375,0.0456695556640625
1761315619924790300,1.100790283203125,-0.624237060546875,-0.3715667724609375,0.0774383544921875
1761315619934837200,1.110837158203125,-0.5441436767578125,-0.3267364501953125,0.0801544189453125
1761315619944885200,1.12088525390625,-0.4832916259765625,-0.2761077880859375,0.0880279541015625
1761315619954933500,1.13093359375,-0.426177978515625,-0.2205657958984375,0.087860107421875
1761315619964980500,1.14098046875,-0.4047088623046875,-0.1744842529296875,0.0968475341796875
1761315619975028200,1.1510283203125,-0.3225860595703125,-0.1390380859375,0.13153076171875
1761315619985075200,1.1610751953125,-0.1058197021484375,-0.141204833984375,0.131591796875
1761315619995123500,1.17112353515625,-0.2655029296875,-0.2303009033203125,0.0885467529296875
1761315620005170400,1.18117041015625,-0.4492950439453125,-0.2274932861328125,0.13128662109375
1761315620015218200,1.19121826171875,-0.4861907958984375,-0.19317626953125,0.1398773193359375
1761315620025265400,1.201265380859375,-0.41754150390625,-0.18389892578125,0.1126251220703125
1761315620035313400,1.2113134765625,-0.5105438232421875,-0.1874237060546875,0.0713348388671875
1761315620045360400,1.2213603515625,-0.5278778076171875,-0.189544677734375,0.067291259765625
1761315620055408000,1.231408203125,-0.593353271484375,-0.1820068359375,0.1118316650390625
1761315620065456400,1.241456298828125,-0.7783050537109375,-0.254119873046875,0.1417083740234375
1761315620075503400,1.25150341796875,-1.027557373046875,-0.43463134765625,0.094573974609375
1761315620085551400,1.26155126953125,-1.370086669921875,-0.6468048095703125,0.0100250244140625
1761315620095598300,1.271598388671875,-1.7483673095703125,-0.76776123046875,-0.05694580078125
1761315620105646300,1.281646240234375,-1.9000244140625,-0.7185211181640625,-0.1873931884765625
1761315620115693300,1.291693359375,-2.1987762451171875,-0.4204254150390625,-0.3389129638671875
1761315620125741300,1.3017412109375,-2.1951446533203125,-0.2024688720703125,-0.5324554443359375
1761315620135788500,1.31178857421875,-2.2594146728515625,-0.187896728515625,-0.5839385986328125
1761315620145836300,1.321836181640625,-2.252777099609375,-0.3197174072265625,-0.50848388671875
1761315620155883300,1.33188330078125,-2.2944793701171875,-0.514984130859375,-0.4199066162109375
1761315620165931500,1.341931640625,-2.312286376953125,-0.7401123046875,-0.3759918212890625
1761315620175979300,1.351979248046875,-2.204681396484375,-0.934478759765625,-0.3924102783203125
1761315620186026200,1.362026123046875,-2.0372467041015625,-1.0385894775390625,-0.3691864013671875
1761315620196074200,1.37207421875,-1.8787841796875,-1.0786590576171875,-0.335479736328125
1761315620206121500,1.38212158203125,-1.6994781494140625,-1.0806884765625,-0.3128662109375
1761315620216169500,1.39216943359375,-1.519622802734375,-1.0081634521484375,-0.312835693359375
1761315620226216200,1.40221630859375,-1.3185272216796875,-0.8465423583984375,-0.252410888671875
1761315620236264400,1.412264404296875,-1.2724609375,-0.662322998046875,-0.136566162109375
1761315620246311400,1.4223115234375,-1.1807861328125,-0.4944000244140625,-0.0615234375
1761315620256359400,1.432359375,-1.086883544921875,-0.3259735107421875,-0.006378173828125
1761315620266406400,1.442406494140625,-0.9592132568359375,-0.17327880859375,0.0460205078125
1761315620276454400,1.452454345703125,-0.7993011474609375,-0.055755615234375,0.0562591552734375
1761315620286502400,1.46250244140625,-0.6815338134765625,-0.0032958984375,0.0754852294921875
1761315620296549400,1.47254931640625,-0.5336761474609375,0.0383453369140625,0.0397796630859375
1761315620306597000,1.48259716796875,-0.3245697021484375,0.05694580078125,-0.053802490234375
1761315620316644400,1.492644287109375,-0.0031585693359375,0.083831787109375,-0.020843505859375
1761315620326692400,1.5026923828125,0.2032928466796875,0.035400390625,0.0441436767578125
1761315620336739300,1.5127392578125,0.082489013671875,-0.0975494384765625,0.041412353515625
1761315620346787300,1.522787353515625,0.1119384765625,-0.213958740234375,0.119049072265625
1761315620356834300,1.532834228515625,0.159576416015625,-0.2496185302734375,0.11773681640625
1761315620366882300,1.54288232421875,0.220947265625,-0.2295379638671875,0.115447998046875
1761315620376929300,1.55292919921875,0.3401336669921875,-0.256500244140625,0.1280059814453125
1761315620386977500,1.5629775390625,0.265411376953125,-0.2684478759765625,0.1050262451171875
1761315620397025300,1.573025390625,0.1952362060546875,-0.233062744140625,0.105010986328125
1761315620407072300,1.583072265625,0.1595306396484375,-0.1965484619140625,0.0493316650390625
1761315620417120500,1.59312060546875,0.22650146484375,-0.1775970458984375,-0.0557708740234375
1761315620427167500,1.60316748046875,0.304840087890625,-0.12811279296875,-0.1870574951171875
1761315620437215200,1.61321533203125,0.3699798583984375,-0.0343475341796875,-0.30035400390625
1761315620447262200,1.62326220703125,0.4192962646484375,0.0710296630859375,-0.3616790771484375
1761315620457310500,1.633310546875,0.4240875244140625,0.17718505859375,-0.39215087890625
1761315620467357400,1.643357421875,0.409637451171875,0.2755126953125,-0.3722381591796875
1761315620477405200,1.6534052734375,0.326629638671875,0.310089111328125,-0.3286285400390625
1761315620487452200,1.6634521484375,0.199188232421875,0.2603912353515625,-0.2325439453125
1761315620497500400,1.67350048828125,0.0949554443359375,0.0907440185546875,-0.113189697265625
1761315620507548400,1.68354833984375,-0.0919647216796875,-0.1814727783203125,-0.014129638671875
1761315620517595400,1.693595458984375,-0.3875274658203125,-0.5458526611328125,0.0500030517578125
1761315620527643400,1.703643310546875,-0.68475341796875,-0.89166259765625,0.060028076171875
1761315620537690400,1.7136904296875,-1.0471038818359375,-1.2581024169921875,0.1913604736328125
1761315620547738400,1.72373828125,-1.0282745361328125,-1.40679931640625,0.05010986328125
1761315620557785300,1.733785400390625,-1.419769287109375,-1.2583160400390625,-0.07879638671875
1761315620567833300,1.743833251953125,-1.662353515625,-0.950286865234375,-0.134979248046875
1761315620577880300,1.75388037109375,-1.9773101806640625,-0.96026611328125,0.08404541015625
1761315620587928300,1.76392822265625,-2.43963623046875,-1.261322021484375,0.3116607666015625
1761315620597975300,1.773975341796875,-2.73876953125,-1.46881103515625,0.4627227783203125
1761315620608023300,1.784023193359375,-2.7696380615234375,-1.5585174560546875,0.5524139404296875
1761315620618071300,1.7940712890625,-2.6392364501953125,-1.65234375,0.458221435546875
1761315620628118300,1.8041181640625,-2.4827880859375,-1.634063720703125,0.224945068359375
1761315620638166500,1.81416650390625,-2.2725067138671875,-1.460968017578125,-0.0673675537109375
1761315620648213500,1.824213623046875,-1.976318359375,-1.20269775390625,-0.35125732421875
1761315620658261200,1.83426123046875,-1.6530303955078125,-0.973541259765625,-0.5283660888671875
1761315620668308200,1.84430810546875,-1.32745361328125,-0.793365478515625,-0.5667724609375
1761315620678356500,1.8543564453125,-1.1038055419921875,-0.6347198486328125,-0.49017333984375
1761315620688399000,1.864399169921875,-1.037200927734375,-0.4910736083984375,-0.3677215576171875
1761315620698447000,1.874447021484375,-1.0438079833984375,-0.3680267333984375,-0.258941650390625
1761315620708493800,1.884493896484375,-0.9821319580078125,-0.2530364990234375,-0.1902313232421875
1761315620718541800,1.894541748046875,-0.8721160888671875,-0.149139404296875,-0.1375885009765625
1761315620728590000,1.904590087890625,-0.784393310546875,-0.0870819091796875,-0.101287841796875
1761315620738637000,1.914636962890625,-0.668701171875,-0.033447265625,-0.1013336181640625
1761315620748684800,1.924684814453125,-0.518035888671875,0.0274658203125,-0.1335906982421875
1761315620758732000,1.93473193359375,-0.357940673828125,0.08367919921875,-0.1619720458984375
1761315620768780000,1.944780029296875,-0.2145233154296875,0.1182708740234375,-0.1504669189453125
1761315620778827000,1.954826904296875,-0.08984375,0.1116790771484375,-0.1219482421875
1761315620788874800,1.964874755859375,-0.0005645751953125,0.06134033203125,-0.066680908203125
1761315620798922000,1.974921875,0.0467987060546875,-0.0114898681640625,0.0037994384765625
1761315620808970000,1.984969970703125,0.0710601806640625,-0.0733489990234375,0.0552825927734375
1761315620819017000,1.995016845703125,0.0843353271484375,-0.097015380859375,0.0814971923828125
1761315620829065000,2.00506494140625,0.0977935791015625,-0.0952606201171875,0.08013916015625
1761315620839112000,2.01511181640625,0.1054840087890625,-0.0865478515625,0.0576171875
1761315620849160000,2.025159912109375,0.131378173828125,-0.0576171875,0.0025482177734375
1761315620859208000,2.0352080078125,0.143157958984375,0.0149993896484375,0.0128173828125
1761315620869255200,2.045255126953125,0.0961761474609375,0.01702880859375,-0.0017547607421875
1761315620879303000,2.055302978515625,0.0022430419921875,-0.0185394287109375,-0.0433502197265625
1761315620889350000,2.065349853515625,-0.054718017578125,-0.020111083984375,-0.0553436279296875
1761315620899398100,2.075398193359375,-0.06744384765625,-0.0252685546875,-0.0774993896484375
1761315620909445000,2.085445068359375,-0.1003570556640625,-0.0789947509765625,-0.064056396484375
1761315620919492900,2.095492919921875,-0.1905517578125,-0.18328857421875,-0.0279388427734375
1761315620929539800,2.105539794921875,-0.2609405517578125,-0.301300048828125,0.016021728515625
1761315620939588000,2.115588134765625,-0.3111724853515625,-0.4069671630859375,0.0349884033203125
1761315620949635000,2.125635009765625,-0.3870086669921875,-0.497100830078125,0.018585205078125
1761315620959682800,2.135682861328125,-0.5072021484375,-0.588531494140625,-0.0241546630859375
1761315620969731000,2.14573095703125,-0.6750335693359375,-0.6634368896484375,-0.0705108642578125
1761315620979778000,2.155778076171875,-0.8760833740234375,-0.7405548095703125,-0.1151885986328125
1761315620989826000,2.165825927734375,-1.1508026123046875,-0.8616180419921875,-0.1215362548828125
1761315620999873000,2.175873046875,-1.5461578369140625,-0.9803924560546875,-0.10321044921875
1761315621009921000,2.185921142578125,-1.9621734619140625,-0.9889373779296875,-0.1444854736328125
1761315621019968000,2.195968017578125,-2.3477630615234375,-0.8994903564453125,-0.232879638671875
1761315621030016000,2.20601611328125,-2.7187042236328125,-0.843109130859375,-0.2767791748046875
1761315621040063000,2.21606298828125,-3.027587890625,-0.7052001953125,-0.341400146484375
1761315621050111000,2.226111083984375,-3.1743316650390625,-0.537200927734375,-0.4287567138671875
1761315621060158000,2.236157958984375,-3.281982421875,-0.487335205078125,-0.493988037109375
1761315621070206000,2.2462060546875,-3.337890625,-0.502105712890625,-0.5190582275390625
1761315621080253000,2.2562529296875,-3.29449462890625,-0.5185394287109375,-0.5535736083984375
1761315621090301000,2.266301025390625,-3.1515045166015625,-0.4975433349609375,-0.6222686767578125
1761315621100349000,2.276348876953125,-2.9359588623046875,-0.4377593994140625,-0.643280029296875
1761315621110396000,2.28639599609375,-2.7048492431640625,-0.3870086669921875,-0.601470947265625
1761315621120444200,2.296444091796875,-2.38714599609375,-0.3394775390625,-0.5515899658203125
1761315621130491100,2.3064912109375,-2.0538787841796875,-0.3291778564453125,-0.4758758544921875
1761315621140539000,2.316538818359375,-1.74334716796875,-0.3586883544921875,-0.3783416748046875
1761315621150585900,2.3265859375,-1.398681640625,-0.3858642578125,-0.2848358154296875
1761315621160634000,2.336634033203125,-1.035064697265625,-0.399505615234375,-0.2170562744140625
1761315621170681000,2.34668115234375,-0.6734466552734375,-0.3910369873046875,-0.1809234619140625
1761315621180728800,2.356728759765625,-0.2959442138671875,-0.32061767578125,-0.16693115234375
1761315621190775800,2.36677587890625,0.0547332763671875,-0.2638397216796875,-0.1392822265625
1761315621200824000,2.376823974609375,0.3429107666015625,-0.212738037109375,-0.118743896484375
1761315621210871800,2.386871826171875,0.5432891845703125,-0.15069580078125,-0.0982666015625
1761315621220918800,2.396918701171875,0.6215057373046875,-0.121185302734375,-0.051544189453125
1761315621230967000,2.406967041015625,0.618438720703125,-0.0058746337890625,-0.0526885986328125
1761315621241014000,2.417013916015625,0.590972900390625,0.1532440185546875,-0.023651123046875
1761315621251062000,2.42706201171875,0.544830322265625,0.22857666015625,0.0463409423828125
1761315621261109000,2.43710888671875,0.5228271484375,0.241851806640625,0.11614990234375
1761315621271157000,2.447156982421875,0.4866485595703125,0.2377471923828125,0.1784210205078125
1761315621281204000,2.457203857421875,0.4426422119140625,0.2252960205078125,0.2166595458984375
1761315621291252000,2.467251953125,0.38739013671875,0.1930084228515625,0.2315216064453125
1761315621301299000,2.477298828125,0.3348846435546875,0.1469268798828125,0.242279052734375
1761315621311347000,2.487346923828125,0.283721923828125,0.1103057861328125,0.262176513671875
1761315621321395000,2.49739501953125,0.3050994873046875,0.1360321044921875,0.2698822021484375
1761315621331442000,2.50744189453125,0.3172760009765625,0.178009033203125,0.281005859375
1761315621341490000,2.517489990234375,0.3302764892578125,0.0970916748046875,0.3244171142578125
1761315621351537000,2.527536865234375,0.3482818603515625,-0.009429931640625,0.342498779296875
1761315621361585000,2.5375849609375,0.3770904541015625,-0.0344085693359375,0.331146240234375
1761315621371631900,2.5476318359375,0.370513916015625,-0.0806732177734375,0.3143157958984375
1761315621381680000,2.55768017578125,0.32366943359375,-0.237548828125,0.264739990234375
1761315621391726800,2.567726806640625,0.2455596923828125,-0.4549407958984375,0.134552001953125
1761315621401774800,2.57777490234375,0.161529541015625,-0.6524505615234375,-0.0205230712890625
1761315621411822000,2.587822021484375,0.03314208984375,-0.799041748046875,-0.2117767333984375
1761315621421870000,2.5978701171875,-0.158447265625,-0.868896484375,-0.444793701171875
1761315621431917800,2.607917724609375,-0.4436187744140625,-0.908111572265625,-0.6911163330078125
1761315621441964800,2.61796484375,-0.8070526123046875,-0.93353271484375,-0.85260009765625
1761315621452013000,2.628012939453125,-1.35235595703125,-1.0270233154296875,-0.8862762451171875
1761315621462060000,2.63806005859375,-1.949432373046875,-1.21990966796875,-0.75653076171875
1761315621472107800,2.648107666015625,-2.54315185546875,-1.3690032958984375,-0.570037841796875
1761315621482155000,2.658155029296875,-3.04083251953125,-1.4565277099609375,-0.365142822265625
1761315621492203000,2.668203125,-3.3868560791015625,-1.47808837890625,-0.2546844482421875
1761315621502250000,2.67825,-3.49603271484375,-1.288330078125,-0.3018341064453125
1761315621512298000,2.688298095703125,-3.4214935302734375,-1.14093017578125,-0.4291534423828125
1761315621522345000,2.698344970703125,-3.2678985595703125,-1.0963134765625,-0.525909423828125
1761315621532393000,2.70839306640625,-3.103668212890625,-1.109344482421875,-0.5830841064453125
1761315621542440000,2.71843994140625,-2.8863525390625,-1.2242279052734375,-0.565826416015625
1761315621552488200,2.72848828125,-2.567626953125,-1.326751708984375,-0.530670166015625
1761315621562536000,2.738535888671875,-2.192626953125,-1.2961273193359375,-0.521453857421875
1761315621572583000,2.7485830078125,-1.7723388671875,-1.153717041015625,-0.5241241455078125
1761315621582631000,2.758630859375,-1.3543853759765625,-0.979736328125,-0.5108795166015625
1761315621592678100,2.76867822265625,-0.976226806640625,-0.8186492919921875,-0.468109130859375
1761315621602726000,2.778725830078125,-0.6739044189453125,-0.6719970703125,-0.379180908203125
1761315621612772900,2.78877294921875,-0.468292236328125,-0.556549072265625,-0.2568206787109375
1761315621622821000,2.798821044921875,-0.336639404296875,-0.48358154296875,-0.11236572265625
1761315621632868000,2.8088681640625,-0.2155914306640625,-0.4153289794921875,0.0162506103515625
1761315621642915800,2.818915771484375,-0.1219940185546875,-0.3272552490234375,0.076812744140625
1761315621652962800,2.828962890625,-0.033416748046875,-0.223052978515625,0.0970611572265625
1761315621663011000,2.839010986328125,0.0526275634765625,-0.137359619140625,0.10577392578125
1761315621673058000,2.84905810546875,0.12188720703125,-0.0578155517578125,0.0988922119140625
1761315621683106000,2.85910595703125,0.1617889404296875,0.005523681640625,0.0841064453125
1761315621693154600,2.869154541015625,0.1801605224609375,0.048004150390625,0.0778350830078125
1761315621703201500,2.879201416015625,0.18365478515625,0.07586669921875,0.0930328369140625
1761315621713249800,2.889249755859375,0.183685302734375,0.073211669921875,0.1249542236328125
1761315621723296800,2.899296875,0.1876983642578125,0.0623626708984375,0.1613311767578125
1761315621733344500,2.909344482421875,0.214935302734375,0.07000732421875,0.19342041015625
1761315621743391500,2.9193916015625,0.2325592041015625,0.1216583251953125,0.16119384765625
1761315621753439700,2.929439697265625,0.2672271728515625,0.1933441162109375,0.204345703125
1761315621763486700,2.93948681640625,0.263153076171875,0.1726837158203125,0.1902923583984375
1761315621773534500,2.949534423828125,0.276214599609375,0.2034759521484375,0.17523193359375
1761315621783581400,2.95958154296875,0.3365020751953125,0.2616729736328125,0.1536407470703125
1761315621793629700,2.969629638671875,0.339080810546875,0.299774169921875,0.1280670166015625
1761315621803676700,2.9796767578125,0.3392791748046875,0.3065338134765625,0.10784912109375
1761315621813724400,2.989724365234375,0.33929443359375,0.3416748046875,0.0967864990234375
1761315621823771600,2.999771728515625,0.3364105224609375,0.365142822265625,0.082244873046875
1761315621833819600,3.009819580078125,0.3289947509765625,0.3583984375,0.07159423828125
1761315621843867600,3.01986767578125,0.3190765380859375,0.2957611083984375,0.077392578125
1761315621853914600,3.02991455078125,0.268463134765625,0.176971435546875,0.1068115234375
1761315621863962600,3.039962646484375,0.1649169921875,-0.0111083984375,0.156646728515625
1761315621874009600,3.050009521484375,0.01788330078125,-0.254180908203125,0.2140350341796875
1761315621884057600,3.0600576171875,-0.159210205078125,-0.4444580078125,0.2572784423828125
1761315621894104600,3.0701044921875,-0.3856201171875,-0.4555206298828125,0.1898956298828125
1761315621904152600,3.080152587890625,-0.61956787109375,-0.459442138671875,0.1209869384765625
1761315621914199600,3.090199462890625,-0.9760284423828125,-0.779205322265625,0.1979827880859375
1761315621924247600,3.10024755859375,-1.416412353515625,-1.0626678466796875,0.1793212890625
1761315621934294800,3.110294677734375,-1.806671142578125,-1.0973052978515625,0.00665283203125
1761315621944342500,3.120342529296875,-2.259674072265625,-1.2902679443359375,-0.2606658935546875
1761315621954389500,3.130389404296875,-2.744232177734375,-1.4483184814453125,-0.762420654296875
1761315621964437500,3.1404375,-3.045623779296875,-1.1517333984375,-1.1790008544921875
1761315621974485800,3.15048583984375,-3.5359954833984375,-0.9076690673828125,-1.4421234130859375
1761315621984532500,3.160532470703125,-4.150360107421875,-0.952850341796875,-1.3999176025390625
1761315621994580500,3.17058056640625,-4.5612335205078125,-0.9291229248046875,-1.085845947265625
1761315622004627700,3.180627685546875,-4.6197052001953125,-0.9275970458984375,-0.838958740234375
1761315622014675700,3.19067578125,-4.3187713623046875,-0.8529510498046875,-0.728179931640625
1761315622024722700,3.20072265625,-3.8089141845703125,-0.7869415283203125,-0.67547607421875
1761315622034770400,3.2107705078125,-3.2199554443359375,-0.776519775390625,-0.611480712890625
1761315622044817700,3.220817626953125,-2.6237945556640625,-0.747955322265625,-0.5347442626953125
1761315622054865700,3.23086572265625,-2.0277099609375,-0.6973876953125,-0.4679412841796875
1761315622064912600,3.24091259765625,-1.45379638671875,-0.6197967529296875,-0.4369354248046875
1761315622074960600,3.250960693359375,-0.9584808349609375,-0.5049591064453125,-0.444366455078125
1761315622085007600,3.261007568359375,-0.6020050048828125,-0.3694000244140625,-0.4298553466796875
1761315622095055600,3.2710556640625,-0.3869171142578125,-0.2314300537109375,-0.41851806640625
1761315622105103600,3.281103515625,-0.29339599609375,-0.0588836669921875,-0.413330078125
1761315622115150600,3.291150634765625,-0.2595062255859375,0.1431884765625,-0.3756256103515625
1761315622125198600,3.301198486328125,-0.238739013671875,0.3165283203125,-0.3275299072265625
1761315622135245600,3.31124560546875,-0.2078857421875,0.4035797119140625,-0.2549591064453125
1761315622145293800,3.3212939453125,-0.1613311767578125,0.39447021484375,-0.1754913330078125
1761315622155340500,3.331340576171875,-0.074371337890625,0.3494110107421875,-0.1135711669921875
1761315622165388500,3.341388427734375,0.05596923828125,0.317108154296875,-0.05902099609375
1761315622175435500,3.351435546875,0.203887939453125,0.26763916015625,-0.0492401123046875
1761315622185483800,3.36148388671875,0.3549041748046875,0.143646240234375,0.06689453125
1761315622195530800,3.37153076171875,0.490264892578125,0.039337158203125,0.086456298828125
1761315622205578500,3.38157861328125,0.5923614501953125,0.1334228515625,0.090301513671875
1761315622215625500,3.39162548828125,0.7268524169921875,0.198028564453125,0.1087646484375
1761315622225673700,3.401673828125,0.766845703125,0.2169952392578125,0.1405181884765625
1761315622235720700,3.411720703125,0.7860870361328125,0.266815185546875,0.169708251953125
1761315622245768400,3.4217685546875,0.7780303955078125,0.330322265625,0.1975250244140625
1761315622255816700,3.431816650390625,0.710601806640625,0.357666015625,0.23577880859375
1761315622265863700,3.44186376953125,0.6045074462890625,0.3459014892578125,0.3111114501953125
1761315622275911700,3.45191162109375,0.50115966796875,0.2729949951171875,0.404754638671875
1761315622285958700,3.461958740234375,0.3957977294921875,0.26849365234375,0.4403228759765625
1761315622296006700,3.472006591796875,0.310577392578125,0.29400634765625,0.4535675048828125
1761315622306053600,3.4820537109375,0.257568359375,0.2457733154296875,0.449249267578125
1761315622316101600,3.4921015625,0.200103759765625,0.17083740234375,0.4439849853515625
1761315622326148600,3.502148681640625,0.1493988037109375,0.06903076171875,0.4440765380859375
1761315622336196600,3.512196533203125,0.0807647705078125,-0.0768585205078125,0.459564208984375
1761315622346243600,3.52224365234375,-0.0189666748046875,-0.277923583984375,0.5030059814453125
1761315622356291600,3.53229150390625,-0.140289306640625,-0.5562744140625,0.58892822265625
1761315622366338600,3.542338623046875,-0.29998779296875,-0.8889312744140625,0.682159423828125
1761315622376386600,3.552386474609375,-0.490203857421875,-1.219482421875,0.7196197509765625
1761315622386433500,3.56243359375,-0.72113037109375,-1.61077880859375,0.7297821044921875
1761315622396481500,3.5724814453125,-0.9978179931640625,-1.9343414306640625,0.61956787109375
1761315622406529800,3.58252978515625,-1.1531829833984375,-1.9228973388671875,0.2664337158203125
1761315622416576500,3.592576416015625,-1.3024139404296875,-1.81744384765625,-0.3109588623046875
1761315622426624500,3.60262451171875,-1.5599212646484375,-1.7011566162109375,-1.0755767822265625
1761315622436671500,3.61267138671875,-1.881439208984375,-1.2928924560546875,-1.6722564697265625
1761315622446719700,3.6227197265625,-2.5077056884765625,-0.7735137939453125,-2.0012054443359375
1761315622456766700,3.6327666015625,-3.4898681640625,-0.4333343505859375,-2.084228515625
1761315622466814500,3.642814453125,-4.39898681640625,-0.2748565673828125,-1.8523712158203125
1761315622476861700,3.65286181640625,-4.861572265625,-0.2952880859375,-1.5609130859375
1761315622486909700,3.66290966796875,-4.7052459716796875,-0.21514892578125,-1.4481964111328125
1761315622496956700,3.672956787109375,-4.0764617919921875,-0.1941070556640625,-1.502593994140625
1761315622507004400,3.68300439453125,-3.2876434326171875,-0.213623046875,-1.5543212890625
1761315622517051600,3.6930517578125,-2.5223846435546875,-0.228057861328125,-1.5206451416015625
1761315622527099600,3.703099609375,-1.9005584716796875,-0.28680419921875,-1.3630218505859375
1761315622537146600,3.713146728515625,-1.412322998046875,-0.385101318359375,-1.1537322998046875
1761315622547194400,3.7231943359375,-1.0093536376953125,-0.427703857421875,-0.945404052734375
1761315622557241600,3.73324169921875,-0.7177276611328125,-0.397369384765625,-0.7483673095703125
1761315622567289600,3.74328955078125,-0.5054931640625,-0.3334197998046875,-0.568328857421875
1761315622577336600,3.753336669921875,-0.34521484375,-0.283111572265625,-0.4102630615234375
1761315622587384600,3.763384521484375,-0.151336669921875,-0.2300567626953125,-0.3019866943359375
1761315622597432600,3.7734326171875,0.1035003662109375,-0.154296875,-0.2576141357421875
1761315622607479600,3.7834794921875,0.3048553466796875,-0.080047607421875,-0.2625579833984375
1761315622617527600,3.793527587890625,0.437225341796875,-0.0096282958984375,-0.273834228515625
1761315622627574800,3.80357470703125,0.50848388671875,0.0390472412109375,-0.2344970703125
1761315622637622500,3.81362255859375,0.4948272705078125,0.1124114990234375,-0.2006988525390625
1761315622647669500,3.82366943359375,0.43377685546875,0.238037109375,-0.1513519287109375
1761315622657717800,3.8337177734375,0.374664306640625,0.328948974609375,-0.06256103515625
1761315622667764700,3.8437646484375,0.3269195556640625,0.380035400390625,0.0525360107421875
1761315622677812500,3.8538125,0.297454833984375,0.4009246826171875,0.1777801513671875
1761315622687859500,3.863859375,0.2651824951171875,0.3808135986328125,0.3079376220703125
1761315622697907500,3.873907470703125,0.2526397705078125,0.3478851318359375,0.414093017578125
1761315622707954400,3.883954345703125,0.2896270751953125,0.33172607421875,0.48944091796875
1761315622718002400,3.89400244140625,0.3622894287109375,0.306732177734375,0.5394134521484375
1761315622728049400,3.90404931640625,0.4265289306640625,0.27984619140625,0.57000732421875
1761315622738097400,3.914097412109375,0.5248260498046875,0.2421417236328125,0.5922088623046875
1761315622748144600,3.92414453125,0.6037750244140625,0.1874542236328125,0.607574462890625
1761315622758192600,3.934192626953125,0.6259765625,0.1330718994140625,0.60333251953125
1761315622768239600,3.944239501953125,0.5947723388671875,0.12353515625,0.5742340087890625
1761315622778287400,3.954287353515625,0.52838134765625,0.165557861328125,0.5206451416015625
1761315622788335600,3.964335693359375,0.424591064453125,0.186126708984375,0.438201904296875
1761315622798382600,3.974382568359375,0.2973175048828125,0.1403350830078125,0.3431854248046875
1761315622808430300,3.984430419921875,0.0883331298828125,0.0725555419921875,0.259368896484375
1761315622818477600,3.9944775390625,-0.1396484375,-0.0130615234375,0.157135009765625
1761315622828525600,4.004525634765625,-0.3645172119140625,-0.07470703125,0.058807373046875
1761315622838572500,4.014572509765625,-0.567291259765625,-0.160491943359375,-0.0242156982421875
1761315622848620300,4.024620361328125,-0.7655181884765625,-0.309295654296875,-0.1133880615234375
1761315622858667500,4.03466748046875,-0.9447479248046875,-0.54052734375,-0.2025299072265625
1761315622868715500,4.044715576171875,-1.116485595703125,-0.7908172607421875,-0.3025665283203125
1761315622878762500,4.054762451171875,-1.3688507080078125,-0.9264678955078125,-0.44989013671875
1761315622888810800,4.064810791015625,-1.7314605712890625,-0.8880615234375,-0.68731689453125
1761315622898857500,4.074857421875,-2.1469573974609375,-0.842376708984375,-0.9193572998046875
1761315622908905500,4.084905517578125,-2.58935546875,-0.82501220703125,-1.1220550537109375
1761315622918952400,4.094952392578125,-2.975433349609375,-0.78948974609375,-1.3047637939453125
1761315622929000700,4.105000732421875,-3.27032470703125,-0.615875244140625,-1.488067626953125
1761315622939047700,4.115047607421875,-3.549530029296875,-0.2723541259765625,-1.6635589599609375
1761315622949095400,4.125095458984375,-3.834320068359375,-0.097381591796875,-1.770416259765625
1761315622959142400,4.135142333984375,-4.0662841796875,-0.0355987548828125,-1.773223876953125
1761315622969190700,4.145190673828125,-4.0951690673828125,0.0029144287109375,-1.71026611328125
1761315622979238400,4.15523828125,-3.885711669921875,0.0253448486328125,-1.61663818359375
1761315622989285400,4.165285400390625,-3.465789794921875,0.004119873046875,-1.5098114013671875
1761315622999333600,4.175333740234375,-2.9448699951171875,-0.058197021484375,-1.3833160400390625
1761315623009380600,4.185380615234375,-2.4290618896484375,-0.1390228271484375,-1.23028564453125
1761315623019428600,4.1954287109375,-1.94915771484375,-0.1909637451171875,-1.065643310546875
1761315623029475300,4.205475341796875,-1.5305328369140625,-0.2264862060546875,-0.908233642578125
1761315623039523600,4.215523681640625,-1.1912841796875,-0.225006103515625,-0.761749267578125
1761315623049570600,4.225570556640625,-0.88671875,-0.188873291015625,-0.6374053955078125
1761315623059618600,4.23561865234375,-0.60394287109375,-0.14288330078125,-0.5402984619140625
1761315623069665500,4.24566552734375,-0.344451904296875,-0.0973358154296875,-0.4462127685546875
1761315623079713500,4.255713623046875,-0.1474151611328125,-0.0491485595703125,-0.3687591552734375
1761315623089760500,4.265760498046875,0.01519775390625,0.032440185546875,-0.3068084716796875
1761315623099808500,4.27580859375,0.1346588134765625,0.196380615234375,-0.272430419921875
1761315623109855500,4.28585546875,0.2191619873046875,0.4676666259765625,-0.218505859375
1761315623119903500,4.295903564453125,0.3221282958984375,0.6309814453125,-0.1704254150390625
1761315623129950500,4.305950439453125,0.3792266845703125,0.5278167724609375,-0.0660552978515625
1761315623139998500,4.31599853515625,0.407562255859375,0.3946990966796875,0.1003265380859375
1761315623150045700,4.326045654296875,0.4162445068359375,0.2255706787109375,0.3662872314453125
1761315623160093400,4.336093505859375,0.4387054443359375,0.0929412841796875,0.5820465087890625
1761315623170140400,4.346140380859375,0.46929931640625,0.144561767578125,0.6627349853515625
1761315623180188400,4.3561884765625,0.57159423828125,0.24700927734375,0.6350555419921875
1761315623190235600,4.366235595703125,0.622344970703125,0.3227081298828125,0.583740234375
1761315623200283600,4.37628369140625,0.6503753662109375,0.3435516357421875,0.5767822265625
1761315623210331400,4.386331298828125,0.66094970703125,0.3282928466796875,0.5814666748046875
1761315623220378400,4.39637841796875,0.6775665283203125,0.3254852294921875,0.5644683837890625
1761315623230426600,4.406426513671875,0.688262939453125,0.3272705078125,0.5130767822265625
1761315623240473600,4.4164736328125,0.6761932373046875,0.316802978515625,0.449737548828125
1761315623250521300,4.426521240234375,0.6229248046875,0.3037872314453125,0.38873291015625
1761315623260568600,4.436568603515625,0.5559539794921875,0.250732421875,0.3361663818359375
1761315623270616600,4.446616455078125,0.4843292236328125,0.1838226318359375,0.2783355712890625
1761315623280663600,4.45666357421875,0.4077911376953125,0.11846923828125,0.2022552490234375
1761315623290711300,4.466711181640625,0.29119873046875,0.0280914306640625,0.113006591796875
1761315623300758500,4.476758544921875,0.1302032470703125,-0.092529296875,0.00439453125
1761315623310806500,4.486806640625,-0.0554351806640625,-0.2083740234375,-0.122802734375
1761315623320853500,4.496853515625,-0.2867279052734375,-0.2804107666015625,-0.289947509765625
1761315623330901500,4.506901611328125,-0.55462646484375,-0.3668670654296875,-0.4977264404296875
1761315623340948500,4.516948486328125,-0.8297882080078125,-0.5419921875,-0.6931610107421875
1761315623350996500,4.52699658203125,-1.1350555419921875,-0.7655792236328125,-0.815643310546875
1761315623361043500,4.53704345703125,-1.53826904296875,-1.112213134765625,-0.886749267578125
1761315623371091700,4.547091796875,-1.939666748046875,-1.449249267578125,-1.0321197509765625
1761315623381138700,4.557138671875,-2.3018951416015625,-1.66839599609375,-1.2873382568359375
1761315623391186400,4.5671865234375,-2.726898193359375,-1.63714599609375,-1.722412109375
1761315623401233400,4.5772333984375,-3.178314208984375,-1.2839202880859375,-2.1156463623046875
1761315623411281700,4.58728173828125,-3.7983856201171875,-0.9098968505859375,-2.3947906494140625
1761315623421328600,4.59732861328125,-4.4041900634765625,-0.62579345703125,-2.5061798095703125
1761315623431376400,4.60737646484375,-4.69482421875,-0.53302001953125,-2.32763671875
1761315623441423400,4.61742333984375,-4.6466827392578125,-0.597015380859375,-2.0384063720703125
1761315623451471600,4.6274716796875,-4.2913665771484375,-0.6099700927734375,-1.761444091796875
1761315623461519400,4.637519287109375,-3.7231903076171875,-0.5908660888671875,-1.521759033203125
1761315623471566300,4.64756640625,-3.0185089111328125,-0.5946197509765625,-1.2784881591796875
1761315623481614600,4.657614501953125,-2.3152923583984375,-0.620269775390625,-1.0392608642578125
1761315623491661600,4.66766162109375,-1.6546478271484375,-0.5948638916015625,-0.827606201171875
1761315623501709600,4.67770947265625,-1.0404815673828125,-0.5200042724609375,-0.6726226806640625
1761315623511756500,4.687756591796875,-0.4866180419921875,-0.41082763671875,-0.5393218994140625
1761315623521804500,4.697804443359375,-0.070465087890625,-0.303863525390625,-0.3720703125
1761315623531851500,4.7078515625,0.197174072265625,-0.2051239013671875,-0.19781494140625
1761315623541899500,4.7178994140625,0.4062652587890625,-0.0878753662109375,-0.028961181640625
1761315623551946500,4.727946533203125,0.586883544921875,-0.0430450439453125,0.1327972412109375
1761315623561994500,4.737994384765625,0.74737548828125,-0.0468902587890625,0.23809814453125
1761315623572041500,4.74804150390625,0.803955078125,-0.0210113525390625,0.2686309814453125
1761315623582089500,4.75808935546875,0.78167724609375,0.0075836181640625,0.2671051025390625
1761315623592136700,4.76813671875,0.6730194091796875,-0.021026611328125,0.268157958984375
1761315623602184400,4.778184326171875,0.5687103271484375,-0.0616455078125,0.24847412109375
1761315623612231400,4.7882314453125,0.49261474609375,-0.0454254150390625,0.21929931640625
1761315623622279400,4.798279541015625,0.4090118408203125,-0.045928955078125,0.2062225341796875
1761315623632326700,4.80832666015625,0.39111328125,-0.0604400634765625,0.1968536376953125
1761315623642374400,4.81837451171875,0.3951416015625,-0.0662078857421875,0.1773529052734375
1761315623652421400,4.82842138671875,0.370941162109375,-0.087310791015625,0.17816162109375
1761315623662469600,4.8384697265625,0.3274383544921875,-0.0530853271484375,0.1678314208984375
1761315623672516600,4.8485166015625,0.2737884521484375,-0.0139617919921875,0.166351318359375
1761315623682564600,4.858564697265625,0.248992919921875,-0.0511474609375,0.1963043212890625
1761315623692611000,4.868611083984375,0.1605682373046875,-0.108734130859375,0.206451416015625
1761315623702658800,4.878658935546875,0.0780029296875,-0.119293212890625,0.1963958740234375
1761315623712704000,4.8887041015625,-0.013702392578125,-0.1075286865234375,0.141021728515625
1761315623722751000,4.8987509765625,-0.04132080078125,-0.1224212646484375,0.0314483642578125
1761315623732799000,4.908799072265625,-0.068206787109375,-0.1302642822265625,-0.0135345458984375
1761315623742846000,4.918845947265625,-0.0971832275390625,-0.1738128662109375,-0.0591583251953125
1761315623752894000,4.92889404296875,-0.1741790771484375,-0.143280029296875,-0.16497802734375
1761315623762941000,4.93894091796875,-0.35638427734375,-0.0773773193359375,-0.2910003662109375
1761315623772989000,4.948989013671875,-0.5516510009765625,-0.1372528076171875,-0.352874755859375
1761315623783036000,4.959035888671875,-0.7206573486328125,-0.2590789794921875,-0.3615570068359375
1761315623793084000,4.969083984375,-0.9277191162109375,-0.3324127197265625,-0.3968963623046875
1761315623803131000,4.979130859375,-1.1313934326171875,-0.3411712646484375,-0.4450531005859375
1761315623813179100,4.98917919921875,-1.3183441162109375,-0.4276123046875,-0.4733734130859375
1761315623823225900,4.999225830078125,-1.4164886474609375,-0.669952392578125,-0.441680908203125
1761315623833273900,5.00927392578125,-1.479217529296875,-0.91546630859375,-0.3576202392578125
1761315623843321000,5.019321044921875,-1.446533203125,-0.95947265625,-0.323455810546875
1761315623853369000,5.029369140625,-1.453948974609375,-0.8535919189453125,-0.3350372314453125
1761315623863416000,5.039416015625,-1.6014404296875,-0.965606689453125,-0.294677734375
1761315623873463800,5.0494638671875,-1.623199462890625,-1.3019561767578125,-0.212890625
1761315623883511000,5.059510986328125,-1.6905975341796875,-1.51568603515625,-0.1971435546875
1761315623893559000,5.06955908203125,-1.7227783203125,-1.532470703125,-0.236236572265625
1761315623903606000,5.07960595703125,-1.7714080810546875,-1.4569091796875,-0.3115386962890625
1761315623913654000,5.089654052734375,-1.8203125,-1.3523712158203125,-0.40087890625
1761315623923701000,5.099700927734375,-1.7917022705078125,-1.252044677734375,-0.4779815673828125
1761315623933749000,5.1097490234375,-1.8361053466796875,-1.1406097412109375,-0.53753662109375
1761315623943796000,5.1197958984375,-1.87579345703125,-0.9695892333984375,-0.62005615234375
1761315623953844000,5.129843994140625,-1.862060546875,-0.7039337158203125,-0.725067138671875
1761315623963891000,5.139890869140625,-1.8294830322265625,-0.405609130859375,-0.730560302734375
1761315623973939000,5.14993896484375,-1.8178558349609375,-0.2109375,-0.6106414794921875
1761315623983986000,5.15998583984375,-1.813812255859375,-0.2043609619140625,-0.4111328125
1761315623994034200,5.1700341796875,-1.7930908203125,-0.3786773681640625,-0.2299041748046875
1761315624004082000,5.18008203125,-1.6332855224609375,-0.5860443115234375,-0.1511688232421875
1761315624014129000,5.19012890625,-1.3787078857421875,-0.594512939453125,-0.1659698486328125
1761315624024177200,5.20017724609375,-1.09906005859375,-0.4688262939453125,-0.2486419677734375
1761315624034224000,5.21022412109375,-0.748138427734375,-0.3580169677734375,-0.30413818359375
1761315624044271900,5.22027197265625,-0.4257354736328125,-0.30780029296875,-0.3406982421875
1761315624054318800,5.23031884765625,-0.200927734375,-0.26519775390625,-0.3328094482421875
1761315624064367000,5.2403671875,-0.0406494140625,-0.2075042724609375,-0.28125
1761315624074414000,5.2504140625,0.0459747314453125,-0.1560516357421875,-0.2155914306640625
1761315624084461800,5.2604619140625,0.098602294921875,-0.1128082275390625,-0.1274871826171875
1761315624094508800,5.2705087890625,0.1065521240234375,-0.077789306640625,-0.010711669921875
1761315624104557000,5.28055712890625,0.1023101806640625,-0.0588226318359375,0.1104583740234375
1761315624114604000,5.29060400390625,0.0841522216796875,-0.0436248779296875,0.19073486328125
1761315624124652000,5.300652099609375,0.033935546875,-0.0435333251953125,0.224334716796875
1761315624134698800,5.31069873046875,-0.013458251953125,-0.0459442138671875,0.22625732421875
1761315624144747000,5.3207470703125,-0.0084381103515625,-0.0442047119140625,0.20648193359375
1761315624154794000,5.3307939453125,0.0076141357421875,-0.0413055419921875,0.191436767578125
1761315624164842000,5.340842041015625,0.00616455078125,-0.0433502197265625,0.16949462890625
1761315624174889000,5.350888916015625,-0.0093536376953125,-0.0569000244140625,0.144500732421875
1761315624184937000,5.36093701171875,-0.0355072021484375,-0.08270263671875,0.1200408935546875
1761315624194984000,5.37098388671875,-0.0749053955078125,-0.1200103759765625,0.0914459228515625
1761315624205032000,5.381031982421875,-0.0802001953125,-0.1693572998046875,0.04180908203125
1761315624215079200,5.3910791015625,-0.0816192626953125,-0.1995086669921875,-0.0235595703125
1761315624225127000,5.401126953125,-0.119110107421875,-0.223297119140625,-0.0724945068359375
1761315624235174000,5.411173828125,-0.163330078125,-0.2992706298828125,-0.105743408203125
1761315624245222100,5.42122216796875,-0.256072998046875,-0.4216766357421875,-0.1035308837890625
1761315624255269000,5.43126904296875,-0.38916015625,-0.5532684326171875,-0.109466552734375
1761315624265316900,5.44131689453125,-0.509521484375,-0.701995849609375,-0.1161651611328125
1761315624275363800,5.45136376953125,-0.58160400390625,-0.87164306640625,-0.1309356689453125
1761315624285412000,5.461412109375,-0.61895751953125,-1.00311279296875,-0.181610107421875
1761315624295459000,5.471458984375,-0.687744140625,-1.1105499267578125,-0.2065887451171875
1761315624305507000,5.481507080078125,-0.863006591796875,-1.3470611572265625,-0.14581298828125
1761315624315553800,5.4915537109375,-1.074371337890625,-1.5943145751953125,-0.0943450927734375
1761315624325602000,5.50160205078125,-1.21240234375,-1.5774688720703125,-0.0934295654296875
1761315624335649000,5.51164892578125,-1.3365478515625,-1.4420013427734375,-0.089599609375
1761315624345699000,5.521698974609375,-1.430267333984375,-1.4945831298828125,0.0210113525390625
1761315624355746000,5.53174609375,-1.51513671875,-1.6910400390625,0.1863861083984375
1761315624365794000,5.5417939453125,-1.609527587890625,-1.7793426513671875,0.274566650390625
1761315624375841000,5.551841064453125,-1.6832122802734375,-1.742950439453125,0.2993316650390625
1761315624385889000,5.561888916015625,-1.664886474609375,-1.6870574951171875,0.2816314697265625
1761315624395936000,5.57193603515625,-1.5792083740234375,-1.578033447265625,0.19488525390625
1761315624405984000,5.58198388671875,-1.4527587890625,-1.4995574951171875,0.06317138671875
1761315624416031000,5.592031005859375,-1.328369140625,-1.3771514892578125,-0.0794830322265625
1761315624426079000,5.602078857421875,-1.201019287109375,-1.16259765625,-0.2139434814453125
1761315624436126000,5.6121259765625,-1.0962677001953125,-0.920928955078125,-0.2941436767578125
1761315624446174000,5.622174072265625,-1.0101470947265625,-0.69000244140625,-0.2857513427734375
1761315624456221000,5.632220947265625,-0.9456634521484375,-0.535858154296875,-0.191009521484375
1761315624466269000,5.64226904296875,-0.8955230712890625,-0.4710540771484375,-0.0623626708984375
1761315624476316000,5.65231591796875,-0.8317108154296875,-0.4488525390625,0.0573272705078125
1761315624486364000,5.662364013671875,-0.746490478515625,-0.4250946044921875,0.1358184814453125
1761315624496411100,5.6724111328125,-0.65380859375,-0.3902130126953125,0.1611480712890625
1761315624506459000,5.682458984375,-0.569061279296875,-0.352569580078125,0.138275146484375
1761315624516505900,5.692505859375,-0.4638824462890625,-0.31988525390625,0.08929443359375
1761315624526553900,5.702553955078125,-0.3602294921875,-0.286285400390625,0.0386962890625
1761315624536601000,5.71260107421875,-0.3146209716796875,-0.2686004638671875,-0.0166778564453125
1761315624546649000,5.722649169921875,-0.305908203125,-0.2516937255859375,-0.047332763671875
1761315624556696000,5.732696044921875,-0.311004638671875,-0.2147674560546875,-0.0712890625
1761315624566744000,5.742744140625,-0.3203582763671875,-0.175567626953125,-0.0767669677734375
1761315624576791000,5.752791015625,-0.3380126953125,-0.1671600341796875,-0.0645599365234375
1761315624586839000,5.762839111328125,-0.346099853515625,-0.1707763671875,-0.0430908203125
1761315624596886000,5.772885986328125,-0.33953857421875,-0.1599884033203125,-0.000885009765625
1761315624606934000,5.78293408203125,-0.3195953369140625,-0.1542510986328125,0.039764404296875
1761315624616981000,5.79298095703125,-0.2666473388671875,-0.1484832763671875,0.06195068359375
1761315624627029000,5.803029052734375,-0.1903533935546875,-0.133392333984375,0.0601348876953125
1761315624637076000,5.813075927734375,-0.1196746826171875,-0.118743896484375,0.04083251953125
1761315624647124000,5.8231240234375,-0.06622314453125,-0.12200927734375,0.00494384765625
1761315624657172000,5.833171875,0.00177001953125,-0.1191253662109375,-0.036895751953125
1761315624667219000,5.843218994140625,0.0402984619140625,-0.108367919921875,-0.0621185302734375
1761315624677266000,5.853265869140625,0.030364990234375,-0.109649658203125,-0.06597900390625
1761315624687314000,5.86331396484375,-0.018280029296875,-0.126922607421875,-0.065399169921875
1761315624697361400,5.873361328125,-0.0714263916015625,-0.1700897216796875,-0.07073974609375
1761315624707409400,5.883409423828125,-0.1175994873046875,-0.2427520751953125,-0.07269287109375
1761315624717457400,5.89345751953125,-0.1905670166015625,-0.3588714599609375,-0.0548248291015625
1761315624727504400,5.90350439453125,-0.3214111328125,-0.5382232666015625,-0.033721923828125
1761315624737552400,5.913552490234375,-0.459686279296875,-0.726531982421875,-0.0104827880859375
1761315624747599400,5.923599365234375,-0.57293701171875,-0.854278564453125,-0.015594482421875
1761315624757647400,5.9336474609375,-0.688507080078125,-0.9178924560546875,-0.0687255859375
1761315624767694600,5.943694580078125,-0.8076324462890625,-0.995758056640625,-0.1153564453125
1761315624777742300,5.953742431640625,-0.997894287109375,-1.13397216796875,-0.157989501953125
1761315624787789300,5.963789306640625,-1.2757720947265625,-1.2757110595703125,-0.181396484375
1761315624797837600,5.973837646484375,-1.5405120849609375,-1.3597869873046875,-0.201141357421875
1761315624807884500,5.983884521484375,-1.75140380859375,-1.40472412109375,-0.1872406005859375
1761315624817932300,5.993932373046875,-1.8521728515625,-1.5326995849609375,-0.0733642578125
1761315624827979300,6.003979248046875,-1.85711669921875,-1.8204498291015625,0.0902252197265625
1761315624838027500,6.014027587890625,-1.79229736328125,-1.9445343017578125,0.119781494140625
1761315624848074500,6.024074462890625,-1.6230010986328125,-1.87396240234375,0.072540283203125
1761315624858122200,6.034122314453125,-1.497344970703125,-1.7924041748046875,-0.0678558349609375
1761315624868169200,6.044169189453125,-1.40118408203125,-1.6541595458984375,-0.2701873779296875
1761315624878217500,6.054217529296875,-1.363983154296875,-1.5472412109375,-0.46978759765625
1761315624888264400,6.064264404296875,-1.3708648681640625,-1.490814208984375,-0.606781005859375
1761315624898312400,6.0743125,-1.37042236328125,-1.3671875,-0.6704864501953125
1761315624908359200,6.084359130859375,-1.324493408203125,-1.1444854736328125,-0.659698486328125
1761315624918407400,6.094407470703125,-1.2511444091796875,-0.8786468505859375,-0.5817413330078125
1761315624928454400,6.104454345703125,-1.1913299560546875,-0.6419677734375,-0.4430389404296875
1761315624938502400,6.11450244140625,-1.11065673828125,-0.46728515625,-0.2966461181640625
1761315624948549600,6.124549560546875,-0.996673583984375,-0.3484649658203125,-0.1712799072265625
1761315624958597400,6.134597412109375,-0.874114990234375,-0.2738189697265625,-0.082977294921875
1761315624968644400,6.144644287109375,-0.7124481201171875,-0.244537353515625,-0.02001953125
1761315624978692400,6.1546923828125,-0.5518646240234375,-0.2709503173828125,0.021484375
1761315624988739600,6.164739501953125,-0.404052734375,-0.2917938232421875,0.0316314697265625
1761315624998787300,6.174787353515625,-0.2862091064453125,-0.2733154296875,0.01605224609375
1761315625008834300,6.184834228515625,-0.22686767578125,-0.2438507080078125,0.0042724609375
1761315625018882300,6.19488232421875,-0.201934814453125,-0.2233123779296875,0.017242431640625
1761315625028929500,6.204929443359375,-0.187103271484375,-0.20855712890625,0.034820556640625
1761315625038977300,6.214977294921875,-0.1837921142578125,-0.176239013671875,0.044219970703125
1761315625049024300,6.225024169921875,-0.187744140625,-0.129180908203125,0.0579681396484375
1761315625059072500,6.235072509765625,-0.20635986328125,-0.098419189453125,0.074554443359375
1761315625069119500,6.245119384765625,-0.2201385498046875,-0.0867767333984375,0.089752197265625
1761315625079167500,6.25516748046875,-0.2211456298828125,-0.0740814208984375,0.093414306640625
1761315625089214200,6.265214111328125,-0.1923065185546875,-0.04010009765625,0.057098388671875
1761315625099262500,6.275262451171875,-0.136749267578125,0.027252197265625,0.0015716552734375
1761315625109309400,6.285309326171875,-0.113677978515625,0.1019287109375,-0.0365142822265625
1761315625119357400,6.295357421875,-0.1197967529296875,0.14910888671875,-0.049102783203125
1761315625129404400,6.305404296875,-0.1340789794921875,0.1300506591796875,-0.035308837890625
1761315625139452400,6.315452392578125,-0.1758270263671875,0.056793212890625,-0.0173187255859375
1761315625149499400,6.32549951171875,-0.1627044677734375,-0.0031585693359375,0.0020294189453125
1761315625159547400,6.33554736328125,-0.1271209716796875,-0.04058837890625,0.0384979248046875
1761315625169594400,6.345594482421875,-0.0984039306640625,-0.1027984619140625,0.077484130859375
1761315625179642400,6.355642333984375,-0.0836181640625,-0.21661376953125,0.1177978515625
1761315625189689300,6.365689453125,-0.105194091796875,-0.3777923583984375,0.14849853515625
1761315625199737300,6.3757373046875,-0.18206787109375,-0.571044921875,0.1715545654296875
1761315625209784600,6.38578466796875,-0.278350830078125,-0.780914306640625,0.1916351318359375
1761315625219832300,6.395832275390625,-0.3739166259765625,-0.968902587890625,0.17840576171875
1761315625229879300,6.40587939453125,-0.469970703125,-1.099700927734375,0.132781982421875
1761315625239927300,6.41592724609375,-0.6122894287109375,-1.266082763671875,0.121826171875
1761315625249974500,6.425974609375,-0.8651885986328125,-1.491058349609375,0.14508056640625
1761315625260022500,6.4360224609375,-1.14569091796875,-1.64703369140625,0.1680450439453125
1761315625270069200,6.4460693359375,-1.380096435546875,-1.7269744873046875,0.2035369873046875
1761315625280117200,6.4561171875,-1.54803466796875,-1.8056488037109375,0.2735748291015625
1761315625290164500,6.46616455078125,-1.6077728271484375,-1.893524169921875,0.3689422607421875
1761315625300212500,6.47621240234375,-1.6319580078125,-1.9742889404296875,0.4373779296875
1761315625310259500,6.486259521484375,-1.59661865234375,-1.9116058349609375,0.4229888916015625
1761315625320307500,6.496307373046875,-1.579681396484375,-1.7870330810546875,0.3670501708984375
1761315625330354400,6.5063544921875,-1.5946044921875,-1.6414947509765625,0.25958251953125
1761315625340402400,6.51640234375,-1.6049346923828125,-1.4938812255859375,0.1495361328125
1761315625350449400,6.526449462890625,-1.6391448974609375,-1.387451171875,0.032867431640625
1761315625360497400,6.536497314453125,-1.6027679443359375,-1.2141571044921875,-0.1093597412109375
1761315625370544400,6.54654443359375,-1.5016937255859375,-0.97564697265625,-0.2447662353515625
1761315625380592400,6.55659228515625,-1.3880462646484375,-0.7540740966796875,-0.329010009765625
1761315625390639400,6.566639404296875,-1.2605743408203125,-0.5714874267578125,-0.3407440185546875
1761315625400687400,6.576687255859375,-1.148712158203125,-0.4454193115234375,-0.307159423828125
1761315625410734300,6.586734375,-1.02374267578125,-0.3595733642578125,-0.262451171875
1761315625420782300,6.5967822265625,-0.8740386962890625,-0.2959747314453125,-0.2049407958984375
1761315625430829300,6.606829345703125,-0.7265167236328125,-0.258697509765625,-0.1606292724609375
1761315625440877300,6.616877197265625,-0.5675506591796875,-0.2346038818359375,-0.1220245361328125
1761315625450924300,6.62692431640625,-0.397857666015625,-0.203369140625,-0.1081390380859375
1761315625460972300,6.63697216796875,-0.251739501953125,-0.1336669921875,-0.112548828125
1761315625471019500,6.64701953125,-0.1324615478515625,-0.0921783447265625,-0.1081695556640625
1761315625481067500,6.657067626953125,-0.033111572265625,-0.1082611083984375,-0.1049652099609375
1761315625491114500,6.667114501953125,0.0052337646484375,-0.1425018310546875,-0.1021881103515625
1761315625501162200,6.677162353515625,0.0255889892578125,-0.1685943603515625,-0.10040283203125
1761315625511209500,6.68720947265625,0.058074951171875,-0.1761322021484375,-0.0802764892578125
1761315625521257500,6.697257568359375,0.0403289794921875,-0.1903076171875,-0.059814453125
1761315625531304400,6.707304443359375,-0.0298309326171875,-0.1920623779296875,-0.0478668212890625
1761315625541352200,6.717352294921875,-0.123626708984375,-0.18975830078125,-0.0438385009765625
1761315625551399400,6.7273994140625,-0.1813812255859375,-0.17327880859375,-0.044586181640625
1761315625561447400,6.737447509765625,-0.2353363037109375,-0.1317596435546875,-0.0404205322265625
1761315625571494400,6.747494384765625,-0.27325439453125,-0.1060943603515625,-0.026458740234375
1761315625581542400,6.75754248046875,-0.280303955078125,-0.106689453125,-0.00506591796875
1761315625591589400,6.76758935546875,-0.2636260986328125,-0.1084442138671875,0.0219573974609375
1761315625601637400,6.777637451171875,-0.241973876953125,-0.096527099609375,0.0442352294921875
1761315625611684400,6.787684326171875,-0.2173004150390625,-0.0836639404296875,0.049346923828125
1761315625621732400,6.797732421875,-0.2050933837890625,-0.0908660888671875,0.0336761474609375
1761315625631779300,6.807779296875,-0.205780029296875,-0.081695556640625,0.0074462890625
1761315625641827300,6.817827392578125,-0.1992645263671875,-0.074676513671875,-0.024261474609375
1761315625651874300,6.827874267578125,-0.1730194091796875,-0.117401123046875,-0.0157928466796875
1761315625661922600,6.837922607421875,-0.2014617919921875,-0.2424468994140625,0.07373046875
1761315625671969500,6.847969482421875,-0.271820068359375,-0.482025146484375,0.20501708984375
1761315625682017300,6.858017333984375,-0.3880157470703125,-0.80499267578125,0.3432464599609375
1761315625692064300,6.868064208984375,-0.5032958984375,-1.06768798828125,0.4071807861328125
1761315625702116400,6.878116455078125,-0.636871337890625,-1.2281036376953125,0.3218994140625
1761315625712163300,6.888163330078125,-0.7502593994140625,-1.2246856689453125,0.0877838134765625
1761315625722211000,6.898211181640625,-0.7598114013671875,-1.174224853515625,-0.0723724365234375
1761315625732258300,6.90825830078125,-0.9521026611328125,-1.28997802734375,-0.1938323974609375
1761315625742306300,6.918306396484375,-1.2172393798828125,-1.4854736328125,-0.2926177978515625
1761315625752353300,6.928353271484375,-1.4152984619140625,-1.53460693359375,-0.3679046630859375
1761315625762401300,6.9384013671875,-1.6228790283203125,-1.494232177734375,-0.3493804931640625
1761315625772448300,6.9484482421875,-1.764068603515625,-1.5102996826171875,-0.196685791015625
1761315625782496300,6.958496337890625,-1.8755340576171875,-1.5567474365234375,-0.027740478515625
1761315625792543200,6.968543212890625,-1.917938232421875,-1.553985595703125,0.1036376953125
1761315625802591200,6.97859130859375,-1.88885498046875,-1.4749755859375,0.1199493408203125
1761315625812638200,6.98863818359375,-1.8451385498046875,-1.3710784912109375,0.025634765625
1761315625822686200,6.998686279296875,-1.8090972900390625,-1.1746978759765625,-0.2283935546875
1761315625832733200,7.008733154296875,-1.7579345703125,-0.9092559814453125,-0.487274169921875
1761315625842781200,7.01878125,-1.716522216796875,-0.676177978515625,-0.67852783203125
1761315625852828200,7.028828125,-1.6960601806640625,-0.5187530517578125,-0.74755859375
1761315625862876200,7.038876220703125,-1.719482421875,-0.4921722412109375,-0.6837615966796875
1761315625872923100,7.048923095703125,-1.768829345703125,-0.602386474609375,-0.5468902587890625
1761315625882971400,7.058971435546875,-1.7616424560546875,-0.7164306640625,-0.419891357421875
1761315625893018400,7.069018310546875,-1.6946868896484375,-0.7291259765625,-0.3583984375
1761315625903066000,7.079066162109375,-1.5271759033203125,-0.6450958251953125,-0.3578948974609375
1761315625913113000,7.089113037109375,-1.3066558837890625,-0.5159149169921875,-0.3739471435546875
1761315625923161300,7.099161376953125,-1.0914306640625,-0.3909912109375,-0.3852691650390625
1761315625933208300,7.109208251953125,-0.904296875,-0.2904052734375,-0.3701934814453125
1761315625943256000,7.119256103515625,-0.7736358642578125,-0.2185516357421875,-0.3109130859375
1761315625953303300,7.12930322265625,-0.67584228515625,-0.15380859375,-0.235870361328125
1761315625963351300,7.139351318359375,-0.6158599853515625,-0.0993194580078125,-0.1514739990234375
1761315625973398300,7.149398193359375,-0.5628204345703125,-0.0577392578125,-0.0522918701171875
1761315625983446000,7.159446044921875,-0.474578857421875,-0.05291748046875,0.0313873291015625
1761315625993493200,7.1694931640625,-0.367950439453125,-0.0762481689453125,0.0906829833984375
1761315626003541200,7.179541259765625,-0.258148193359375,-0.082916259765625,0.133026123046875
1761315626013588200,7.189588134765625,-0.1492919921875,-0.0523834228515625,0.16436767578125
1761315626023636200,7.19963623046875,-0.021270751953125,-0.039642333984375,0.1576385498046875
1761315626033683200,7.20968310546875,0.0865478515625,-0.058624267578125,0.1163482666015625
1761315626043731200,7.219731201171875,0.2037353515625,-0.054168701171875,0.06854248046875
1761315626053778200,7.229778076171875,0.24658203125,-0.01776123046875,0.0344085693359375
1761315626063826400,7.239826416015625,0.2451324462890625,-0.0041656494140625,0.0171356201171875
1761315626073873400,7.249873291015625,0.2260589599609375,-0.023406982421875,0.025482177734375
1761315626083921200,7.259921142578125,0.1808319091796875,-0.0676727294921875,0.0583648681640625
1761315626093968100,7.269968017578125,0.1697845458984375,-0.1407318115234375,0.06231689453125
1761315626104016400,7.280016357421875,0.16241455078125,-0.18603515625,0.042449951171875
1761315626114063400,7.2900634765625,0.1895599365234375,-0.221038818359375,0.023895263671875
1761315626124110300,7.3001103515625,0.235107421875,-0.313720703125,-0.0086212158203125
1761315626134158000,7.310157958984375,0.2351531982421875,-0.4581451416015625,-0.015045166015625
1761315626144206300,7.320206298828125,0.1684722900390625,-0.6303863525390625,0.0195770263671875
1761315626154253300,7.33025341796875,0.044525146484375,-0.8166351318359375,0.1060791015625
1761315626164300300,7.34030029296875,-0.101593017578125,-1.09136962890625,0.230255126953125
1761315626174348000,7.35034814453125,-0.2521820068359375,-1.4004058837890625,0.2864227294921875
1761315626184395300,7.360395263671875,-0.3537750244140625,-1.530120849609375,0.1706085205078125
1761315626194443300,7.370443359375,-0.42974853515625,-1.46649169921875,-0.016632080078125
1761315626204490200,7.380490234375,-0.5726776123046875,-1.318756103515625,-0.2520599365234375
1761315626214538200,7.390538330078125,-0.8166046142578125,-1.1391143798828125,-0.4461212158203125
1761315626224585200,7.400585205078125,-1.1348114013671875,-1.1002044677734375,-0.4681243896484375
1761315626234633200,7.41063330078125,-1.451446533203125,-1.2824249267578125,-0.251068115234375
1761315626244680200,7.42068017578125,-1.6631317138671875,-1.6053466796875,0.0383148193359375
1761315626254728200,7.430728271484375,-1.6714019775390625,-1.7417144775390625,0.197021484375
1761315626264775200,7.440775146484375,-1.47174072265625,-1.6768951416015625,0.2445068359375
1761315626274823200,7.4508232421875,-1.28411865234375,-1.753448486328125,0.22784423828125
1761315626284870100,7.4608701171875,-1.128509521484375,-1.871856689453125,0.123626708984375
1761315626294918400,7.47091845703125,-0.984375,-1.7587738037109375,-0.111297607421875
1761315626304965400,7.48096533203125,-0.94110107421875,-1.47552490234375,-0.397308349609375
1761315626315013000,7.49101318359375,-0.99554443359375,-1.1208343505859375,-0.547760009765625
1761315626325060000,7.50106005859375,-1.1320037841796875,-0.788543701171875,-0.5485076904296875
1761315626335108400,7.5111083984375,-1.2826690673828125,-0.4987945556640625,-0.4255523681640625
1761315626345155300,7.5211552734375,-1.3973541259765625,-0.327545166015625,-0.2640838623046875
1761315626355203000,7.531203125,-1.459136962890625,-0.2981719970703125,-0.1441650390625
1761315626365250000,7.54125,-1.4274749755859375,-0.34222412109375,-0.0504150390625
1761315626375298300,7.55129833984375,-1.272796630859375,-0.38330078125,-0.0367584228515625
1761315626385345300,7.56134521484375,-1.0574951171875,-0.3480377197265625,-0.086578369140625
1761315626395393000,7.57139306640625,-0.80963134765625,-0.2822113037109375,-0.148284912109375
1761315626405440300,7.581440185546875,-0.530731201171875,-0.2340087890625,-0.1718292236328125
1761315626415488300,7.59148828125,-0.3279876708984375,-0.2292938232421875,-0.1844940185546875
1761315626425535200,7.60153515625,-0.2010650634765625,-0.226287841796875,-0.196533203125
1761315626435583200,7.611583251953125,-0.136138916015625,-0.2040863037109375,-0.177978515625
1761315626445630200,7.621630126953125,-0.0753936767578125,-0.1920928955078125,-0.129974365234375
1761315626455678200,7.63167822265625,-0.0064849853515625,-0.193603515625,-0.0802154541015625
1761315626465725200,7.64172509765625,0.02740478515625,-0.1887359619140625,-0.0406646728515625
1761315626475773400,7.6517734375,0.051483154296875,-0.173583984375,-0.0082855224609375
1761315626485820400,7.6618203125,0.07489013671875,-0.1767730712890625,0.0052490234375
1761315626495868200,7.6718681640625,0.0693817138671875,-0.203094482421875,-0.0010528564453125
1761315626505915100,7.6819150390625,0.060516357421875,-0.2169342041015625,-0.018402099609375
1761315626515963400,7.69196337890625,0.047882080078125,-0.1736297607421875,-0.014190673828125
1761315626526010400,7.70201025390625,0.01409912109375,-0.1226654052734375,-0.0162506103515625
1761315626536058000,7.71205810546875,-0.01025390625,-0.1076812744140625,-0.0198974609375
1761315626546105000,7.72210498046875,-0.0471038818359375,-0.106781005859375,-0.0008544921875
1761315626556153300,7.7321533203125,-0.0790252685546875,-0.1169586181640625,0.0185394287109375
1761315626566200300,7.742200439453125,-0.1047210693359375,-0.1550750732421875,0.0281982421875
1761315626576248000,7.752248046875,-0.119598388671875,-0.2186279296875,0.0452728271484375
1761315626586295000,7.762294921875,-0.114471435546875,-0.297027587890625,0.071533203125
1761315626596343300,7.77234326171875,-0.1516876220703125,-0.3944244384765625,0.094696044921875
1761315626606390300,7.782390380859375,-0.1935272216796875,-0.50909423828125,0.0978546142578125
1761315626616438300,7.792438232421875,-0.227325439453125,-0.6113433837890625,0.0885467529296875
1761315626626485000,7.802485107421875,-0.319610595703125,-0.7292633056640625,0.065765380859375
1761315626636533200,7.812533203125,-0.425079345703125,-0.8810272216796875,0.0767822265625
1761315626646580200,7.822580322265625,-0.5075531005859375,-1.043182373046875,0.150390625
1761315626656628200,7.832628173828125,-0.6629180908203125,-1.21435546875,0.2496185302734375
1761315626666675500,7.842675537109375,-0.8473358154296875,-1.356903076171875,0.3055267333984375
1761315626676723200,7.85272314453125,-0.9882659912109375,-1.4446258544921875,0.3227081298828125
1761315626686770200,7.862770263671875,-1.1851348876953125,-1.5161895751953125,0.32806396484375
1761315626696814000,7.87281396484375,-1.3664398193359375,-1.5584869384765625,0.3038787841796875
1761315626706861000,7.882861083984375,-1.4808502197265625,-1.5558624267578125,0.2320098876953125
1761315626716908300,7.892908203125,-1.533416748046875,-1.5453033447265625,0.1619873046875
1761315626726956000,7.9029560546875,-1.6166839599609375,-1.566741943359375,0.1217041015625
1761315626737003000,7.9130029296875,-1.732635498046875,-1.5970306396484375,0.0688323974609375
1761315626747051000,7.923051025390625,-1.8081207275390625,-1.50189208984375,-0.0381927490234375
1761315626757098200,7.93309814453125,-1.8589019775390625,-1.291259765625,-0.1528167724609375
1761315626767146000,7.94314599609375,-1.861297607421875,-1.109771728515625,-0.227386474609375
1761315626777193000,7.95319287109375,-1.8085174560546875,-0.8960113525390625,-0.2409515380859375
1761315626787241000,7.963240966796875,-1.735626220703125,-0.7064361572265625,-0.1909637451171875
1761315626797288200,7.9732880859375,-1.6376800537109375,-0.6443328857421875,-0.119232177734375
1761315626807336200,7.983336181640625,-1.5191192626953125,-0.659515380859375,-0.0904693603515625
1761315626817383200,7.993383056640625,-1.3889617919921875,-0.6982574462890625,-0.12939453125
1761315626827431200,8.00343115234375,-1.2794647216796875,-0.7350006103515625,-0.1937408447265625
1761315626837478100,8.01347802734375,-1.1189117431640625,-0.707977294921875,-0.2900238037109375
1761315626847526100,8.023526123046874,-0.938568115234375,-0.5586090087890625,-0.3472137451171875
1761315626857573000,8.033572998046875,-0.7962799072265625,-0.363037109375,-0.34063720703125
1761315626867621000,8.04362109375,-0.676544189453125,-0.1964569091796875,-0.27801513671875
1761315626877668000,8.053668212890624,-0.571380615234375,-0.076904296875,-0.16571044921875
1761315626887716000,8.063716064453125,-0.4947357177734375,-0.02423095703125,-0.0522918701171875
1761315626897763000,8.07376318359375,-0.44354248046875,-0.0244598388671875,0.0446624755859375
1761315626907811000,8.08381103515625,-0.3783416748046875,-0.0376739501953125,0.1273193359375
1761315626917858000,8.093858154296875,-0.2999267578125,-0.0587310791015625,0.1761932373046875
1761315626927906000,8.103906005859375,-0.2455902099609375,-0.0850677490234375,0.1961517333984375
1761315626937953000,8.113953125,-0.2295074462890625,-0.1334228515625,0.1951751708984375
1761315626948001000,8.1240009765625,-0.2243194580078125,-0.2118072509765625,0.1533660888671875
1761315626958048000,8.134048095703125,-0.178802490234375,-0.2722320556640625,0.0740509033203125
1761315626968096000,8.144095947265624,-0.1367034912109375,-0.273162841796875,-0.023834228515625
1761315626978143200,8.154143310546875,-0.161376953125,-0.22314453125,-0.080902099609375
1761315626988191200,8.164191162109375,-0.187286376953125,-0.1661376953125,-0.102752685546875
1761315626998238200,8.17423828125,-0.201568603515625,-0.129638671875,-0.1157684326171875
1761315627008286000,8.184285888671875,-0.233245849609375,-0.109222412109375,-0.1109466552734375
1761315627018333200,8.194333251953125,-0.2978363037109375,-0.077606201171875,-0.0886993408203125
1761315627028381200,8.204381103515624,-0.3668670654296875,-0.0430908203125,-0.06280517578125
1761315627038428200,8.21442822265625,-0.3938751220703125,-0.0168609619140625,-0.0349884033203125
1761315627048476000,8.224475830078125,-0.3912353515625,-0.0120697021484375,-0.0090484619140625
1761315627058523100,8.234523193359376,-0.3863983154296875,-0.0306243896484375,0.0032806396484375
1761315627068570000,8.244570068359375,-0.361083984375,-0.0695648193359375,0.009185791015625
1761315627078618000,8.2546181640625,-0.32733154296875,-0.143402099609375,0.04022216796875
1761315627088665000,8.2646650390625,-0.3196563720703125,-0.2787933349609375,0.07965087890625
1761315627098713000,8.274713134765625,-0.3484649658203125,-0.463409423828125,0.1085968017578125
1761315627108760000,8.284760009765625,-0.4430694580078125,-0.651123046875,0.130584716796875
1761315627118808000,8.29480810546875,-0.5484619140625,-0.8047637939453125,0.13519287109375
1761315627128855000,8.30485498046875,-0.6224517822265625,-0.890533447265625,0.1237335205078125
1761315627138903000,8.314903076171875,-0.728546142578125,-0.941375732421875,0.138702392578125
1761315627148950000,8.324949951171876,-0.9042205810546875,-1.0627288818359375,0.168304443359375
1761315627158998000,8.334998046875,-1.086273193359375,-1.240234375,0.2188262939453125
1761315627169045200,8.345045166015625,-1.2203521728515625,-1.352386474609375,0.224456787109375
1761315627179093200,8.35509326171875,-1.321075439453125,-1.34954833984375,0.208984375
1761315627189140000,8.365139892578124,-1.41802978515625,-1.4794158935546875,0.304534912109375
1761315627199188000,8.37518798828125,-1.5301513671875,-1.738983154296875,0.38031005859375
1761315627209235200,8.385235107421876,-1.5484619140625,-1.847442626953125,0.3748779296875
1761315627219283200,8.395283203125,-1.489837646484375,-1.842864990234375,0.3181915283203125
1761315627229330200,8.405330078125,-1.4486236572265625,-1.821929931640625,0.22998046875
1761315627239378200,8.415378173828126,-1.4180755615234375,-1.7583160400390625,0.0907745361328125
1761315627249425200,8.425425048828124,-1.3537139892578125,-1.620391845703125,-0.0825653076171875
1761315627259473200,8.43547314453125,-1.279815673828125,-1.4416046142578125,-0.2308197021484375
1761315627269520100,8.44552001953125,-1.2113800048828125,-1.2538604736328125,-0.300262451171875
1761315627279568100,8.455568115234374,-1.143829345703125,-1.048614501953125,-0.2803955078125
1761315627289615000,8.465614990234375,-1.066162109375,-0.858612060546875,-0.2125091552734375
1761315627299663000,8.4756630859375,-0.99755859375,-0.7211761474609375,-0.1264801025390625
1761315627309710000,8.4857099609375,-0.9396820068359375,-0.625732421875,-0.056793212890625
1761315627319758000,8.495758056640625,-0.8735198974609375,-0.5329742431640625,-0.0377349853515625
1761315627329805000,8.50580517578125,-0.796661376953125,-0.449981689453125,-0.0584869384765625
1761315627339853000,8.51585302734375,-0.7253875732421875,-0.3824310302734375,-0.09429931640625
1761315627349900000,8.525900146484375,-0.6532135009765625,-0.3001708984375,-0.1318817138671875
1761315627359947300,8.535947265625,-0.5843658447265625,-0.2009735107421875,-0.142486572265625
1761315627369995000,8.5459951171875,-0.525634765625,-0.1072998046875,-0.133636474609375
1761315627380042000,8.5560419921875,-0.4951629638671875,-0.048004150390625,-0.08489990234375
1761315627390090000,8.566090087890625,-0.4925384521484375,-0.0411529541015625,-0.0173187255859375
1761315627400137200,8.57613720703125,-0.4733428955078125,-0.042999267578125,0.05322265625
1761315627410185200,8.586185302734375,-0.4028778076171875,-0.03216552734375,0.1225433349609375
1761315627420232000,8.59623193359375,-0.30377197265625,-0.03839111328125,0.1620941162109375
1761315627430280200,8.6062802734375,-0.1715087890625,-0.0723419189453125,0.1700439453125
1761315627440327200,8.6163271484375,-0.057098388671875,-0.103668212890625,0.1512603759765625
1761315627450375200,8.626375244140625,0.02764892578125,-0.119171142578125,0.11376953125
1761315627460422100,8.636422119140626,0.082763671875,-0.119049072265625,0.0771331787109375
1761315627470470100,8.64647021484375,0.0915985107421875,-0.11517333984375,0.0586090087890625
1761315627480517000,8.65651708984375,0.0667266845703125,-0.1272430419921875,0.0572052001953125
1761315627490565000,8.666565185546874,0.00518798828125,-0.1507110595703125,0.07391357421875
1761315627500612000,8.676612060546875,-0.072845458984375,-0.1595611572265625,0.113983154296875
1761315627510660000,8.68666015625,-0.1109161376953125,-0.1490631103515625,0.1259307861328125
1761315627520707000,8.69670703125,-0.14593505859375,-0.103363037109375,0.1328277587890625
1761315627530755000,8.706755126953125,-0.192901611328125,-0.0514984130859375,0.12762451171875
1761315627540802000,8.716802001953125,-0.2275543212890625,-0.0261993408203125,0.113189697265625
1761315627550850000,8.72685009765625,-0.2565765380859375,-0.067840576171875,0.13092041015625
1761315627560897000,8.73689697265625,-0.308349609375,-0.235687255859375,0.197998046875
1761315627570945000,8.746945068359375,-0.375701904296875,-0.53314208984375,0.2988739013671875
1761315627580992000,8.756991943359376,-0.4686126708984375,-0.83612060546875,0.379364013671875
1761315627591040300,8.767040283203125,-0.5503997802734375,-1.0177459716796875,0.3946533203125
1761315627601087000,8.7770869140625,-0.648101806640625,-1.0884246826171875,0.31890869140625
1761315627611135000,8.787135009765626,-0.7633819580078125,-1.135284423828125,0.1994781494140625
1761315627621182200,8.79718212890625,-0.9171295166015625,-1.1936187744140625,0.1083831787109375
1761315627631229200,8.807229248046875,-1.0824432373046875,-1.291473388671875,0.092559814453125
1761315627641277200,8.817277099609376,-1.2633209228515625,-1.40447998046875,0.1791229248046875
1761315627651324200,8.82732421875,-1.4201812744140625,-1.6269073486328125,0.3321533203125
1761315627661372200,8.8373720703125,-1.5738525390625,-1.8641357421875,0.456146240234375
1761315627671419100,8.847419189453126,-1.6336822509765625,-1.922393798828125,0.4833984375
1761315627681467100,8.857467041015624,-1.5804901123046875,-1.8969573974609375,0.421722412109375
1761315627691514000,8.86751416015625,-1.491485595703125,-1.809906005859375,0.225067138671875
1761315627701562400,8.877562255859376,-1.414337158203125,-1.6399078369140625,-0.0526885986328125
1761315627711607600,8.887607666015626,-1.402587890625,-1.5478973388671875,-0.2726898193359375
1761315627721655300,8.8976552734375,-1.454681396484375,-1.423370361328125,-0.39752197265625
1761315627731702300,8.907702392578125,-1.568359375,-1.1351470947265625,-0.42816162109375
1761315627741750300,8.917750244140626,-1.6505584716796875,-0.824005126953125,-0.3272552490234375
1761315627751797500,8.927797607421875,-1.6964263916015625,-0.60174560546875,-0.14300537109375
1761315627761845200,8.93784521484375,-1.6573028564453125,-0.44488525390625,0.017822265625
1761315627771892200,8.947892333984376,-1.4860687255859375,-0.3643646240234375,0.109161376953125
1761315627781940500,8.9579404296875,-1.254058837890625,-0.3473358154296875,0.129852294921875
1761315627791987500,8.967987548828125,-1.0174102783203125,-0.3812255859375,0.1065216064453125
1761315627802035500,8.978035400390626,-0.8052520751953125,-0.4100494384765625,0.076080322265625
1761315627812082200,8.988082275390624,-0.5848846435546875,-0.380462646484375,0.0607147216796875
1761315627822130400,8.99813037109375,-0.3195648193359375,-0.297210693359375,0.042022705078125
1761315627832177400,9.008177490234376,-0.114501953125,-0.22259521484375,-0.0323638916015625
1761315627842225400,9.018225341796875,-0.0009765625,-0.1668701171875,-0.04876708984375
1761315627852272400,9.0282724609375,0.0379180908203125,-0.158233642578125,-0.0199127197265625
1761315627862320400,9.0383203125,0.0059814453125,-0.1903839111328125,0.0299835205078125
1761315627872367400,9.048367431640624,-0.057586669921875,-0.2281951904296875,0.098175048828125
1761315627882415400,9.058415283203125,-0.1158447265625,-0.2481689453125,0.1199188232421875
1761315627892462300,9.06846240234375,-0.184600830078125,-0.216888427734375,0.102325439453125
1761315627902510300,9.07851025390625,-0.24981689453125,-0.1698760986328125,0.0656585693359375
1761315627912557300,9.088557373046875,-0.2606353759765625,-0.1710357666015625,0.0360260009765625
1761315627922604300,9.098604248046875,-0.244720458984375,-0.1808624267578125,0.0020294189453125
1761315627932652300,9.10865234375,-0.231658935546875,-0.1614532470703125,-0.026824951171875
1761315627942699500,9.118699462890625,-0.2210540771484375,-0.13482666015625,-0.028900146484375
1761315627952747300,9.128747314453125,-0.2379608154296875,-0.1417083740234375,0.002349853515625
1761315627962794200,9.138794189453124,-0.260650634765625,-0.1798248291015625,0.043365478515625
1761315627972842500,9.148842529296875,-0.304779052734375,-0.229034423828125,0.04718017578125
1761315627982889500,9.158889404296875,-0.3546905517578125,-0.2371673583984375,0.0282440185546875
1761315627992937200,9.168937255859374,-0.3625030517578125,-0.1850433349609375,0.008331298828125
1761315628002984200,9.178984130859375,-0.368865966796875,-0.131072998046875,-0.024322509765625
1761315628013032400,9.189032470703125,-0.3921966552734375,-0.1159515380859375,-0.05133056640625
1761315628023079400,9.199079345703124,-0.4347076416015625,-0.135986328125,-0.052825927734375
1761315628033127400,9.20912744140625,-0.49737548828125,-0.214111328125,-0.0233917236328125
1761315628043174100,9.219174072265625,-0.5399932861328125,-0.369110107421875,0.01898193359375
1761315628053222400,9.229222412109374,-0.6010284423828125,-0.511260986328125,0.050689697265625
1761315628063269400,9.239269287109375,-0.7159271240234375,-0.524932861328125,0.0569305419921875
1761315628073317400,9.2493173828125,-0.830841064453125,-0.4555816650390625,0.02813720703125
1761315628083364400,9.2593642578125,-0.9689483642578125,-0.4269256591796875,-0.00921630859375
1761315628093412400,9.269412353515625,-1.09796142578125,-0.4723968505859375,-0.061004638671875
1761315628103459300,9.279459228515625,-1.1677093505859375,-0.5758056640625,-0.101409912109375
1761315628113507300,9.28950732421875,-1.2510833740234375,-0.72906494140625,-0.0972137451171875
1761315628123554600,9.299554443359375,-1.3967437744140625,-0.8487548828125,-0.0557861328125
1761315628133601500,9.3096015625,-1.5069580078125,-0.863739013671875,-0.0229339599609375
1761315628143649300,9.319649169921876,-1.5272064208984375,-0.8656158447265625,0.041748046875
1761315628153696300,9.3296962890625,-1.5411529541015625,-0.9882659912109375,0.1525421142578125
1761315628163744500,9.33974462890625,-1.6023101806640625,-1.1512298583984375,0.2375030517578125
1761315628173791500,9.34979150390625,-1.644195556640625,-1.1945648193359375,0.241790771484375
1761315628183839200,9.359839111328125,-1.614959716796875,-1.1470489501953125,0.185028076171875
1761315628193886200,9.36988623046875,-1.664886474609375,-1.0620269775390625,0.155120849609375
1761315628203934500,9.3799345703125,-1.74249267578125,-1.0104827880859375,0.151641845703125
1761315628213981400,9.3899814453125,-1.8361358642578125,-1.0200347900390625,0.1752166748046875
1761315628224029200,9.400029296875,-1.9266510009765625,-1.1105804443359375,0.1866302490234375
1761315628234076200,9.410076171875,-1.9222259521484375,-1.130584716796875,0.1214752197265625
1761315628244124400,9.42012451171875,-1.81500244140625,-0.988555908203125,0.037200927734375
1761315628254171400,9.43017138671875,-1.68218994140625,-0.8443145751953125,-0.0352020263671875
1761315628264219400,9.440219482421876,-1.5343170166015625,-0.7631378173828125,-0.072509765625
1761315628274266400,9.450266357421874,-1.3497467041015625,-0.6886444091796875,-0.065338134765625
1761315628284314400,9.460314453125,-1.1623077392578125,-0.60968017578125,-0.0280914306640625
1761315628294361300,9.470361328125,-1.01141357421875,-0.539520263671875,0.02056884765625
1761315628304409300,9.480409423828124,-0.8822174072265625,-0.4755859375,0.0619049072265625
1761315628314456600,9.49045654296875,-0.7716827392578125,-0.40277099609375,0.0726470947265625
1761315628324503300,9.50050341796875,-0.6982421875,-0.30926513671875,0.0637664794921875
1761315628334551300,9.51055126953125,-0.663909912109375,-0.224365234375,0.0484161376953125
1761315628344599300,9.520599365234375,-0.65496826171875,-0.185394287109375,0.0273895263671875
1761315628354647300,9.530647216796876,-0.64910888671875,-0.1632537841796875,0.007965087890625
1761315628364694300,9.5406943359375,-0.6425628662109375,-0.12835693359375,-0.0014190673828125
1761315628374742300,9.5507421875,-0.62811279296875,-0.1031646728515625,0.00042724609375
1761315628384789500,9.56078955078125,-0.5965728759765625,-0.097198486328125,0.00335693359375
1761315628394837500,9.57083740234375,-0.539703369140625,-0.1012420654296875,0.0009613037109375
1761315628404884200,9.58088427734375,-0.4626312255859375,-0.10540771484375,-0.019561767578125
1761315628414932200,9.59093212890625,-0.3926239013671875,-0.1030120849609375,-0.043548583984375
1761315628424979500,9.6009794921875,-0.3316650390625,-0.1105499267578125,-0.0455169677734375
1761315628435027500,9.61102734375,-0.273834228515625,-0.1417083740234375,-0.04052734375
1761315628445074400,9.621074462890626,-0.2218170166015625,-0.170074462890625,-0.02874755859375
1761315628455122200,9.6311220703125,-0.203643798828125,-0.1517333984375,-0.011871337890625
1761315628465169400,9.64116943359375,-0.234161376953125,-0.0922393798828125,0.0062408447265625
1761315628475217400,9.651217529296876,-0.3001251220703125,-0.0625762939453125,0.0292510986328125
1761315628485264400,9.661264404296874,-0.31610107421875,-0.08282470703125,0.06494140625
1761315628495312400,9.6713125,-0.33770751953125,-0.0912628173828125,0.0973052978515625
1761315628505359400,9.681359375,-0.35211181640625,-0.0904388427734375,0.1180419921875
1761315628515406300,9.69140625,-0.3051300048828125,-0.08563232421875,0.1293792724609375
1761315628525454300,9.701454345703125,-0.25,-0.0795135498046875,0.1260833740234375
1761315628535501300,9.711501220703125,-0.2139739990234375,-0.098907470703125,0.1048736572265625
1761315628545549300,9.72154931640625,-0.183441162109375,-0.0904388427734375,0.0962066650390625
1761315628555596300,9.73159619140625,-0.2100372314453125,-0.047454833984375,0.12152099609375
1761315628565644300,9.741644287109375,-0.31976318359375,-0.0811920166015625,0.175537109375
1761315628575691500,9.75169140625,-0.402130126953125,-0.1847686767578125,0.244140625
1761315628585739300,9.7617392578125,-0.4637603759765625,-0.28680419921875,0.273406982421875
1761315628595786200,9.7717861328125,-0.5277557373046875,-0.389434814453125,0.277374267578125
1761315628605834200,9.781834228515624,-0.534820556640625,-0.5242767333984375,0.2710113525390625
1761315628615881500,9.791881591796875,-0.543914794921875,-0.640960693359375,0.2583465576171875
1761315628625929500,9.801929443359375,-0.5882415771484375,-0.7524871826171875,0.2434844970703125
1761315628635976200,9.81197607421875,-0.7100982666015625,-0.8048248291015625,0.1748809814453125
1761315628646024400,9.8220244140625,-0.85198974609375,-0.86279296875,0.07086181640625
1761315628656071400,9.832071533203125,-1.0087127685546875,-0.864837646484375,0.0001068115234375
1761315628666119400,9.842119384765626,-1.234710693359375,-0.8424224853515625,-0.03057861328125
1761315628676166400,9.85216650390625,-1.4393310546875,-0.777496337890625,-0.01580810546875
1761315628686213400,9.86221337890625,-1.6401519775390625,-0.7311553955078125,0.0106658935546875
1761315628696264400,9.872264404296875,-1.840179443359375,-0.6921234130859375,0.0232391357421875
