time,seconds_elapsed,z,y,x
1761315618889888500,0.065888427734375,0.3412625193595886,-0.17731831967830658,0.3625164031982422
1761315618899936800,0.075936767578125,0.33452606201171875,-0.14117789268493652,0.35463079810142517
1761315618909984500,0.085984619140625,0.3261954188346863,-0.12525831162929535,0.3542906939983368
1761315618920031500,0.096031494140625,0.3210776150226593,-0.13224458694458008,0.3519899845123291
1761315618930079700,0.106079833984375,0.33563685417175293,-0.16613037884235382,0.34724849462509155
1761315618940126700,0.116126708984375,0.36354678869247437,-0.22158512473106384,0.33809414505958557
1761315618950174500,0.126174560546875,0.3896785080432892,-0.27030420303344727,0.3351532220840454
1761315618960221400,0.136221435546875,0.42307430505752563,-0.28261491656303406,0.3294101357460022
1761315618970269700,0.146269775390625,0.45299917459487915,-0.26091575622558594,0.2996397018432617
1761315618980316700,0.156316650390625,0.47726351022720337,-0.219743549823761,0.2522045373916626
1761315618990364700,0.16636474609375,0.49831923842430115,-0.16966946423053741,0.19164159893989563
1761315619000412700,0.17641259765625,0.5067777037620544,-0.11395000666379929,0.12461170554161072
1761315619010459600,0.186459716796875,0.5058118104934692,-0.06960757076740265,0.04911907762289047
1761315619020507600,0.196507568359375,0.5099061131477356,-0.038548458367586136,-0.014118748717010021
1761315619030554600,0.2065546875,0.5081303119659424,-0.0029028456192463636,-0.07498103380203247
1761315619040602600,0.2166025390625,0.510765016078949,0.00926114246249199,-0.14593669772148132
1761315619050649600,0.226649658203125,0.5071132779121399,0.0004242415598127991,-0.22750133275985718
1761315619060697600,0.236697509765625,0.49280810356140137,-0.023801203817129135,-0.3202456533908844
1761315619070744600,0.24674462890625,0.479755163192749,-0.07597039639949799,-0.41935253143310547
1761315619080792600,0.25679248046875,0.47322481870651245,-0.14582830667495728,-0.514572262763977
1761315619090840600,0.266840576171875,0.47054994106292725,-0.23126117885112762,-0.5719359517097473
1761315619100887600,0.276887451171875,0.4678651988506317,-0.29337063431739807,-0.5868483185768127
1761315619110935800,0.286935791015625,0.47808587551116943,-0.2906568646430969,-0.5527292490005493
1761315619120982500,0.296982421875,0.49102750420570374,-0.216608464717865,-0.47570180892944336
1761315619131030500,0.307030517578125,0.4958275854587555,-0.08949819207191467,-0.38545316457748413
1761315619141077500,0.317077392578125,0.49282461404800415,0.03412920981645584,-0.32468754053115845
1761315619151125800,0.327125732421875,0.46908146142959595,0.09488549828529358,-0.3097669184207916
1761315619161172700,0.3371728515625,0.42052990198135376,0.10207922756671906,-0.33296704292297363
1761315619171220500,0.347220458984375,0.3486487865447998,0.11885873973369598,-0.39128705859184265
1761315619181267500,0.357267333984375,0.2693566381931305,0.09112990647554398,-0.48300474882125854
1761315619191315700,0.367315673828125,0.19950298964977264,-0.00478277076035738,-0.5673118829727173
1761315619201363500,0.377363525390625,0.13893285393714905,-0.06484770774841309,-0.5940383076667786
1761315619211410400,0.387410400390625,0.08736952394247055,-0.033368077129125595,-0.5711671113967896
1761315619221458700,0.397458740234375,0.06013764068484306,0.07347235083580017,-0.5137722492218018
1761315619231505700,0.407505615234375,0.07015165686607361,0.21630407869815826,-0.46741166710853577
1761315619241553700,0.4175537109375,0.09377602487802505,0.3675021231174469,-0.42505115270614624
1761315619251600400,0.427600341796875,0.12771481275558472,0.4968779385089874,-0.38165760040283203
1761315619261648600,0.437648681640625,0.16481371223926544,0.5794132947921753,-0.34599336981773376
1761315619271695600,0.447695556640625,0.19286346435546875,0.6527426242828369,-0.30754342675209045
1761315619281743600,0.45774365234375,0.20118317008018494,0.6822310090065002,-0.2703199088573456
1761315619291791600,0.46779150390625,0.16629469394683838,0.6683069467544556,-0.2281024158000946
1761315619301838600,0.477838623046875,0.11059682071208954,0.6426918506622314,-0.1599997878074646
1761315619311886600,0.487886474609375,0.051790494471788406,0.6031913161277771,-0.08031214773654938
1761315619321933600,0.49793359375,0.002237321576103568,0.5535318851470947,0.01261060032993555
1761315619331981600,0.507981689453125,-0.04256051033735275,0.49263498187065125,0.0777754858136177
1761315619342028500,0.518028564453125,-0.08538733422756195,0.45701441168785095,0.12037860602140427
1761315619352076500,0.52807666015625,-0.12125558406114578,0.45630520582199097,0.1301843672990799
1761315619362123500,0.53812353515625,-0.13283607363700867,0.5395026206970215,0.12632997334003448
1761315619372171500,0.548171630859375,-0.1395440399646759,0.7318078875541687,0.12225800007581711
1761315619382218500,0.558218505859375,-0.15328596532344818,0.9266543388366699,0.14846298098564148
1761315619392266500,0.5682666015625,-0.18821437656879425,1.0053249597549438,0.24988865852355957
1761315619402314800,0.578314697265625,-0.16430452466011047,1.1057652235031128,0.444793164730072
1761315619412361700,0.58836181640625,-0.09370944648981094,1.295654535293579,0.6643401980400085
1761315619422409500,0.598409423828125,-0.02696610428392887,1.453328013420105,0.8756915926933289
1761315619432456400,0.60845654296875,0.003960120491683483,1.4973775148391724,1.007999300956726
1761315619442504700,0.618504638671875,-0.01991911232471466,1.3834307193756104,0.9548420310020447
1761315619452551700,0.6285517578125,-0.043420977890491486,1.084079384803772,0.7625138759613037
1761315619462599400,0.638599365234375,0.025772474706172943,0.7839707136154175,0.5755797028541565
1761315619472646700,0.648646728515625,0.18926259875297546,0.5557343363761902,0.44323310256004333
1761315619482694700,0.658694580078125,0.32298338413238525,0.3156261444091797,0.3207378089427948
1761315619492741600,0.66874169921875,0.3702755272388458,0.06634306907653809,0.2140268087387085
1761315619502789400,0.678789306640625,0.3746689558029175,-0.09230729192495346,0.1439015120267868
1761315619512837600,0.688837646484375,0.3755240738391876,-0.20398162305355072,0.09729485958814621
1761315619522884600,0.698884521484375,0.3335531949996948,-0.2726890444755554,0.05440545082092285
1761315619532932600,0.7089326171875,0.25621819496154785,-0.2832130789756775,0.003910053055733442
1761315619542979800,0.718979736328125,0.19489412009716034,-0.22243760526180267,-0.03680967912077904
1761315619553027600,0.729027587890625,0.15384815633296967,-0.1310187429189682,-0.09371264278888702
1761315619563074600,0.739074462890625,0.1329258233308792,-0.0952969565987587,-0.16059421002864838
1761315619573122600,0.74912255859375,0.11690931022167206,-0.08725261688232422,-0.21909266710281372
1761315619583169800,0.759169677734375,0.0981777012348175,-0.11556600779294968,-0.25606560707092285
1761315619593217500,0.769217529296875,0.08745208382606506,-0.0873386338353157,-0.27281102538108826
1761315619603264500,0.779264404296875,0.09763867408037186,0.07580181956291199,-0.2687619626522064
1761315619613312500,0.7893125,0.14013579487800598,0.27291595935821533,-0.2768595516681671
1761315619623360500,0.799360595703125,0.20194271206855774,0.29054662585258484,-0.2983941435813904
1761315619633407500,0.809407470703125,0.31792816519737244,0.03868374601006508,-0.40020012855529785
1761315619643455500,0.81945556640625,0.4115039110183716,-0.07096472382545471,-0.4691581726074219
1761315619653502700,0.829502685546875,0.4079930782318115,-0.06173287332057953,-0.4913838505744934
1761315619663550700,0.83955078125,0.27588245272636414,0.10715308785438538,-0.418415904045105
1761315619673597700,0.84959765625,0.04743329435586929,0.3445485830307007,-0.24866174161434174
1761315619683645400,0.8596455078125,-0.1705498993396759,0.47229617834091187,-0.03370949253439903
1761315619693696300,0.8696962890625,-0.3257208466529846,0.4629705846309662,0.1902061551809311
1761315619703744500,0.87974462890625,-0.385090172290802,0.3287312686443329,0.3711157441139221
1761315619713791500,0.88979150390625,-0.3413868844509125,-0.04323988035321236,0.4529421925544739
1761315619723839200,0.899839111328125,-0.20732416212558746,-0.5485150218009949,0.4349972605705261
1761315619733887500,0.909887451171875,-0.03598276898264885,-0.9947303533554077,0.3913845419883728
1761315619743934500,0.9199345703125,0.14888988435268402,-1.2596187591552734,0.36514946818351746
1761315619753982200,0.929982177734375,0.29439008235931396,-1.325707197189331,0.368801474571228
1761315619764029200,0.940029296875,0.38092684745788574,-1.2357051372528076,0.36591407656669617
1761315619774077400,0.950077392578125,0.41938263177871704,-1.003151535987854,0.3370448648929596
1761315619784124400,0.96012451171875,0.4054875671863556,-0.6835527420043945,0.27275216579437256
1761315619794172200,0.970172119140625,0.31535181403160095,-0.37161722779273987,0.16679750382900238
1761315619804219100,0.98021923828125,0.2026662975549698,-0.11137446016073227,0.05632852017879486
1761315619814267400,0.990267333984375,0.08744888752698898,0.10428379476070404,-0.06304341554641724
1761315619824314400,1.000314453125,-0.0248467605561018,0.19106343388557434,-0.19451995193958282
1761315619834362400,1.0103623046875,-0.12938141822814941,0.15489131212234497,-0.31527432799339294
1761315619844410400,1.020410400390625,-0.23886796832084656,0.10435836017131805,-0.40366384387016296
1761315619854457300,1.030457275390625,-0.3614482283592224,0.021686652675271034,-0.4669181704521179
1761315619864505300,1.04050537109375,-0.48697471618652344,-0.13136841356754303,-0.49547046422958374
1761315619874552300,1.05055224609375,-0.6171047687530518,-0.3595919907093048,-0.5191203951835632
1761315619884600300,1.060600341796875,-0.7037781476974487,-0.5896273255348206,-0.49185842275619507
1761315619894647300,1.070647216796875,-0.7096538543701172,-0.7338396310806274,-0.37340155243873596
1761315619904695300,1.0806953125,-0.6130735278129578,-0.9231570959091187,-0.25352469086647034
1761315619914742300,1.0907421875,-0.5486199855804443,-0.9756037592887878,-0.1453651785850525
1761315619924790300,1.100790283203125,-0.5181736350059509,-1.0099271535873413,-0.07719998061656952
1761315619934837200,1.110837158203125,-0.5069428086280823,-1.1680611371994019,-0.06471215188503265
1761315619944885200,1.12088525390625,-0.524142861366272,-1.4372462034225464,-0.08226025104522705
1761315619954933500,1.13093359375,-0.5609131455421448,-1.7816115617752075,-0.09946400672197342
1761315619964980500,1.14098046875,-0.5832956433296204,-2.0866360664367676,-0.11385253071784973
1761315619975028200,1.1510283203125,-0.5579772591590881,-1.1587072610855103,-0.5025342106819153
1761315619985075200,1.1610751953125,-0.3141787052154541,-0.5114797949790955,-0.6620394587516785
1761315619995123500,1.17112353515625,-0.1390143483877182,-0.0548669770359993,-0.7328776717185974
1761315620005170400,1.18117041015625,-0.050206977874040604,0.0933549776673317,-0.840339720249176
1761315620015218200,1.19121826171875,0.003270095447078347,0.4181378483772278,-0.8671334981918335
1761315620025265400,1.201265380859375,0.09603305906057358,0.5790745615959167,-0.831448495388031
1761315620035313400,1.2113134765625,0.28847041726112366,0.4896136522293091,-0.7982980012893677
1761315620045360400,1.2213603515625,0.5223928689956665,0.24620898067951202,-0.8346325755119324
1761315620055408000,1.231408203125,0.7327829003334045,-0.2507328987121582,-0.9069834351539612
1761315620065456400,1.241456298828125,0.9666622281074524,-1.0362721681594849,-0.8972237706184387
1761315620075503400,1.25150341796875,1.2359567880630493,-1.998680591583252,-0.8302755951881409
1761315620085551400,1.26155126953125,1.4432135820388794,-3.1386423110961914,-0.7379515171051025
1761315620095598300,1.271598388671875,1.438531756401062,-3.3134243488311768,-0.6583020091056824
1761315620105646300,1.281646240234375,0.9438186883926392,-3.3044681549072266,-0.6829069256782532
1761315620115693300,1.291693359375,0.281126469373703,-3.0563321113586426,-0.5215950012207031
1761315620125741300,1.3017412109375,-0.2875438928604126,-2.554103374481201,-0.125396266579628
1761315620135788500,1.31178857421875,-0.5927274823188782,-1.9873743057250977,0.4499666392803192
1761315620145836300,1.321836181640625,-0.662219762802124,-1.5823043584823608,0.9351522326469421
1761315620155883300,1.33188330078125,-0.6081666350364685,-1.3472521305084229,1.1311742067337036
1761315620165931500,1.341931640625,-0.49182459712028503,-1.2957639694213867,1.2267241477966309
1761315620175979300,1.351979248046875,-0.47819268703460693,-1.1675961017608643,1.2666409015655518
1761315620186026200,1.362026123046875,-0.6416388750076294,-0.9543179273605347,1.1384302377700806
1761315620196074200,1.37207421875,-0.8645102977752686,-0.7653104662895203,0.7948371767997742
1761315620206121500,1.38212158203125,-0.9866593480110168,-0.6136330366134644,0.2177610844373703
1761315620216169500,1.39216943359375,-1.0246360301971436,-0.34024733304977417,-0.3911786675453186
1761315620226216200,1.40221630859375,-1.0857199430465698,-0.31410521268844604,-0.9178991913795471
1761315620236264400,1.412264404296875,-1.0955730676651,-0.6329372525215149,-1.2650099992752075
1761315620246311400,1.4223115234375,-0.9645415544509888,-1.0874544382095337,-1.3153434991836548
1761315620256359400,1.432359375,-0.8428660035133362,-1.8453091382980347,-1.0755977630615234
1761315620266406400,1.442406494140625,-0.7085779309272766,-2.638282537460327,-0.5040727257728577
1761315620276454400,1.452454345703125,-0.7275543212890625,-3.252979040145874,0.17700514197349548
1761315620286502400,1.46250244140625,-0.8749541640281677,-3.747313976287842,0.8518552184104919
1761315620296549400,1.47254931640625,-0.9378910064697266,-3.944704294204712,1.5101401805877686
1761315620306597000,1.48259716796875,-0.9904711246490479,-3.667174816131592,2.2856409549713135
1761315620316644400,1.492644287109375,-1.191659927368164,-2.7149746417999268,3.1981890201568604
1761315620326692400,1.5026923828125,-1.2537739276885986,-2.021395683288574,3.8798561096191406
1761315620336739300,1.5127392578125,-1.1513018608093262,-1.667916178703308,4.173859119415283
1761315620346787300,1.522787353515625,-0.9849911332130432,-1.4012038707733154,4.189687252044678
1761315620356834300,1.532834228515625,-0.8894923329353333,-1.243971824645996,4.077528476715088
1761315620366882300,1.54288232421875,-0.7210018634796143,-0.7538799047470093,3.8727712631225586
1761315620376929300,1.55292919921875,-0.38568857312202454,-0.3770892322063446,3.5472028255462646
1761315620386977500,1.5629775390625,-0.1448916792869568,-0.4185807406902313,3.079029083251953
1761315620397025300,1.573025390625,-0.026096049696207047,-0.6034419536590576,2.3629653453826904
1761315620407072300,1.583072265625,-0.023122629150748253,-0.6745904088020325,1.5853036642074585
1761315620417120500,1.59312060546875,-0.11125648021697998,-0.4711557924747467,0.993442952632904
1761315620427167500,1.60316748046875,-0.2782902121543884,0.027043335139751434,0.5795016884803772
1761315620437215200,1.61321533203125,-0.5355172157287598,0.7784507870674133,0.28922247886657715
1761315620447262200,1.62326220703125,-0.8744720816612244,1.612332820892334,0.08003304898738861
1761315620457310500,1.633310546875,-1.2821943759918213,2.4065358638763428,-0.09118077903985977
1761315620467357400,1.643357421875,-1.7166064977645874,3.0306313037872314,-0.2788657248020172
1761315620477405200,1.6534052734375,-2.168795108795166,3.3332414627075195,-0.5570981502532959
1761315620487452200,1.6634521484375,-2.6619482040405273,3.4681296348571777,-0.8661444187164307
1761315620497500400,1.67350048828125,-3.0272955894470215,3.2925949096679688,-1.1448436975479126
1761315620507548400,1.68354833984375,-3.064157247543335,2.4707531929016113,-1.5404727458953857
1761315620517595400,1.693595458984375,-2.651214361190796,1.0341869592666626,-2.3578386306762695
1761315620527643400,1.703643310546875,-1.8905831575393677,-0.14603815972805023,-3.2134552001953125
1761315620537690400,1.7136904296875,-1.338950276374817,-0.3745698630809784,-3.758493185043335
1761315620547738400,1.72373828125,-1.0905280113220215,0.09382343292236328,-3.939911127090454
1761315620557785300,1.733785400390625,-1.0667821168899536,0.8965598344802856,-3.9006450176239014
1761315620567833300,1.743833251953125,-1.1207830905914307,1.8699760437011719,-3.351593255996704
1761315620577880300,1.75388037109375,-0.805069088935852,2.10945200920105,-2.4219648838043213
1761315620587928300,1.76392822265625,0.05421823263168335,1.1395295858383179,-1.7389848232269287
1761315620597975300,1.773975341796875,0.9639159440994263,-0.536687970161438,-1.4907747507095337
1761315620608023300,1.784023193359375,1.7075061798095703,-2.054574966430664,-1.4112812280654907
1761315620618071300,1.7940712890625,2.32062029838562,-3.0744011402130127,-1.3925069570541382
1761315620628118300,1.8041181640625,2.673919916152954,-3.4970650672912598,-1.4700204133987427
1761315620638166500,1.81416650390625,2.7315125465393066,-3.3023040294647217,-1.643420934677124
1761315620648213500,1.824213623046875,2.619582176208496,-2.6609597206115723,-1.9565988779067993
1761315620658261200,1.83426123046875,2.406512975692749,-1.7203037738800049,-2.3838460445404053
1761315620668308200,1.84430810546875,2.1411116123199463,-0.6401919722557068,-2.8085169792175293
1761315620678356500,1.8543564453125,1.846701979637146,0.3550606369972229,-3.1109824180603027
1761315620688399000,1.864399169921875,1.502028226852417,1.1025716066360474,-3.144355297088623
1761315620698447000,1.874447021484375,1.1839593648910522,1.561742901802063,-2.7699146270751953
1761315620708493800,1.884493896484375,0.9524675607681274,1.7608048915863037,-2.0066020488739014
1761315620718541800,1.894541748046875,0.7640689015388489,1.623514175415039,-1.1300541162490845
1761315620728590000,1.904590087890625,0.5741199851036072,1.1319761276245117,-0.3260417580604553
1761315620738637000,1.914636962890625,0.35379454493522644,0.4590299129486084,0.3315659463405609
1761315620748684800,1.924684814453125,0.09312568604946136,-0.2031874656677246,0.8691703081130981
1761315620758732000,1.93473193359375,-0.20747409760951996,-0.6952823996543884,1.320839524269104
1761315620768780000,1.944780029296875,-0.49594396352767944,-0.9508547782897949,1.688255786895752
1761315620778827000,1.954826904296875,-0.7112901210784912,-0.9818680882453918,1.9860033988952637
1761315620788874800,1.964874755859375,-0.846925675868988,-0.8672184348106384,2.221341371536255
1761315620798922000,1.974921875,-0.8752609491348267,-0.7072650194168091,2.3344953060150146
1761315620808970000,1.984969970703125,-0.8044509291648865,-0.6070752739906311,2.28210186958313
1761315620819017000,1.995016845703125,-0.6714761257171631,-0.5361542701721191,2.033855676651001
1761315620829065000,2.00506494140625,-0.5425085425376892,-0.5076647996902466,1.645217776298523
1761315620839112000,2.01511181640625,-0.4709416925907135,-0.4361080825328827,1.2171045541763306
1761315620849160000,2.025159912109375,-0.4326680600643158,-0.23712439835071564,0.7815216779708862
1761315620859208000,2.0352080078125,-0.3634176254272461,0.1151907742023468,0.3495952785015106
1761315620869255200,2.045255126953125,-0.3202533721923828,0.45628178119659424,-0.08755967766046524
1761315620879303000,2.055302978515625,-0.36807122826576233,0.7849925756454468,-0.404674768447876
1761315620889350000,2.065349853515625,-0.43206432461738586,1.2155168056488037,-0.5372240543365479
1761315620899398100,2.075398193359375,-0.4360950291156769,1.652215838432312,-0.5219454765319824
1761315620909445000,2.085445068359375,-0.3907134234905243,1.8890608549118042,-0.5034365057945251
1761315620919492900,2.095492919921875,-0.345264196395874,1.8492891788482666,-0.5741857886314392
1761315620929539800,2.105539794921875,-0.3158453106880188,1.6678309440612793,-0.691813051700592
1761315620939588000,2.115588134765625,-0.2737681567668915,1.388927698135376,-0.816205620765686
1761315620949635000,2.125635009765625,-0.17983287572860718,1.053962230682373,-0.9035714268684387
1761315620959682800,2.135682861328125,-0.06751006841659546,0.6978976130485535,-1.0337672233581543
1761315620969731000,2.14573095703125,-0.03158482536673546,0.3389498293399811,-1.2324062585830688
1761315620979778000,2.155778076171875,-0.07813102006912231,0.05381156504154205,-1.4401054382324219
1761315620989826000,2.165825927734375,-0.1835048496723175,-0.18614697456359863,-1.612410545349121
1761315620999873000,2.175873046875,-0.29134637117385864,-0.4319074749946594,-1.631150484085083
1761315621009921000,2.185921142578125,-0.32406461238861084,-0.6935704946517944,-1.414243459701538
1761315621019968000,2.195968017578125,-0.2700256109237671,-0.9918336272239685,-1.069487452507019
1761315621030016000,2.20601611328125,-0.23520027101039886,-1.4023146629333496,-0.8490309119224548
1761315621040063000,2.21606298828125,-0.21661460399627686,-1.7246003150939941,-0.8646866083145142
1761315621050111000,2.226111083984375,0.04164944216609001,-1.8366484642028809,-1.0105551481246948
1761315621060158000,2.236157958984375,0.5492239594459534,-1.7698286771774292,-1.2589340209960938
1761315621070206000,2.2462060546875,1.0387872457504272,-1.3431642055511475,-1.436277151107788
1761315621080253000,2.2562529296875,1.3907407522201538,-0.6241810321807861,-1.3203544616699219
1761315621090301000,2.266301025390625,1.5915952920913696,0.15362843871116638,-0.9288405179977417
1761315621100349000,2.276348876953125,1.5320590734481812,0.687995195388794,-0.4167625904083252
1761315621110396000,2.28639599609375,1.286998987197876,0.9998446702957153,0.22133265435695648
1761315621120444200,2.296444091796875,0.9763246774673462,1.2372814416885376,1.0019965171813965
1761315621130491100,2.3064912109375,0.6831521987915039,1.2146289348602295,1.8364369869232178
1761315621140539000,2.316538818359375,0.4727070927619934,0.9010137319564819,2.6203746795654297
1761315621150585900,2.3265859375,0.33895036578178406,0.45995694398880005,3.2758593559265137
1761315621160634000,2.336634033203125,0.2576139569282532,-0.03617211803793907,3.7807962894439697
1761315621170681000,2.34668115234375,0.19436974823474884,-0.4242601990699768,4.081621170043945
1761315621180728800,2.356728759765625,0.12089419364929199,-0.5269756317138672,4.168020248413086
1761315621190775800,2.36677587890625,0.02101180888712406,-0.27490028738975525,4.022304058074951
1761315621200824000,2.376823974609375,-0.12569481134414673,0.2869257926940918,3.700592517852783
1761315621210871800,2.386871826171875,-0.2806660234928131,0.9733097553253174,3.302987575531006
1761315621220918800,2.396918701171875,-0.40379488468170166,1.494938611984253,2.935495615005493
1761315621230967000,2.406967041015625,-0.6004437804222107,1.692958116531372,2.630636692047119
1761315621241014000,2.417013916015625,-0.8112169504165649,1.5472174882888794,2.3595404624938965
1761315621251062000,2.42706201171875,-0.9647812247276306,1.1406114101409912,2.095858573913574
1761315621261109000,2.43710888671875,-1.0859731435775757,0.6310786008834839,1.8609915971755981
1761315621271157000,2.447156982421875,-1.1959131956100464,0.1925305724143982,1.7069405317306519
1761315621281204000,2.457203857421875,-1.2855275869369507,-0.020135894417762756,1.6909102201461792
1761315621291252000,2.467251953125,-1.322503685951233,0.13385367393493652,1.8423991203308105
1761315621301299000,2.477298828125,-1.2884104251861572,0.4220596253871918,2.1040570735931396
1761315621311347000,2.487346923828125,-1.157462477684021,0.4981759786605835,2.3166863918304443
1761315621321395000,2.49739501953125,-0.9958691000938416,0.3468266725540161,2.319692611694336
1761315621331442000,2.50744189453125,-0.7919910550117493,-0.012618856504559517,2.2335457801818848
1761315621341490000,2.517489990234375,-0.4361594617366791,-0.5046653151512146,2.044639825820923
1761315621351537000,2.527536865234375,0.04096581041812897,-0.9918389320373535,1.7148752212524414
1761315621361585000,2.5375849609375,0.5882366299629211,-1.3466641902923584,1.214840054512024
1761315621371631900,2.5476318359375,1.0954188108444214,-1.4760884046554565,0.593407928943634
1761315621381680000,2.55768017578125,1.5998591184616089,-1.376501441001892,-0.044858817011117935
1761315621391726800,2.567726806640625,2.0414774417877197,-1.1052731275558472,-0.6767705082893372
1761315621401774800,2.57777490234375,2.318687677383423,-0.8112241625785828,-1.4165470600128174
1761315621411822000,2.587822021484375,2.316727638244629,-0.6441888213157654,-2.437124252319336
1761315621421870000,2.5978701171875,1.8785037994384766,-0.43510833382606506,-3.538390636444092
1761315621431917800,2.607917724609375,1.1671314239501953,0.09664664417505264,-4.429672718048096
1761315621441964800,2.61796484375,0.4801684617996216,0.8523851633071899,-4.8786725997924805
1761315621452013000,2.628012939453125,0.01281752809882164,1.5665498971939087,-4.815132141113281
1761315621462060000,2.63806005859375,-0.1509583592414856,2.060513496398926,-4.399533271789551
1761315621472107800,2.648107666015625,-0.11089669167995453,2.3295626640319824,-3.5138306617736816
1761315621482155000,2.658155029296875,0.1057642474770546,2.1742706298828125,-2.2793359756469727
1761315621492203000,2.668203125,0.377765417098999,1.4104119539260864,-1.190157413482666
1761315621502250000,2.67825,0.4843459129333496,0.2224956601858139,-0.48016873002052307
1761315621512298000,2.688298095703125,0.38644543290138245,-0.8873037695884705,-0.11217420548200607
1761315621522345000,2.698344970703125,0.22687575221061707,-1.6955333948135376,0.12273337692022324
1761315621532393000,2.70839306640625,0.14669756591320038,-2.0588266849517822,0.4590701162815094
1761315621542440000,2.71843994140625,0.18400046229362488,-1.9788964986801147,0.9603704810142517
1761315621552488200,2.72848828125,0.22694766521453857,-1.6040165424346924,1.4568710327148438
1761315621562536000,2.738535888671875,0.17050036787986755,-1.1917318105697632,1.803070068359375
1761315621572583000,2.7485830078125,0.043785031884908676,-0.9167673587799072,1.8769876956939697
1761315621582631000,2.758630859375,-0.16535113751888275,-0.736866295337677,1.722914218902588
1761315621592678100,2.76867822265625,-0.4488891065120697,-0.5968785881996155,1.4455766677856445
1761315621602726000,2.778725830078125,-0.7339661121368408,-0.42184072732925415,1.1688400506973267
1761315621612772900,2.78877294921875,-0.9079821109771729,-0.26819655299186707,0.9918022155761719
1761315621622821000,2.798821044921875,-0.9160600304603577,-0.12274349480867386,0.893234372138977
1761315621632868000,2.8088681640625,-0.7985483407974243,0.01540532149374485,0.776540219783783
1761315621642915800,2.818915771484375,-0.5833255052566528,0.09711083769798279,0.563817024230957
1761315621652962800,2.828962890625,-0.3409101963043213,0.2541041672229767,0.2896709740161896
1761315621663011000,2.839010986328125,-0.154403954744339,0.4915825128555298,0.02028103731572628
1761315621673058000,2.84905810546875,-0.07430432736873627,0.8625379204750061,-0.1712236851453781
1761315621683106000,2.85910595703125,-0.10258123278617859,1.3479655981063843,-0.2452925741672516
1761315621693154600,2.869154541015625,-0.25290337204933167,1.9075112342834473,-0.1460466831922531
1761315621703201500,2.879201416015625,-0.44472259283065796,2.3934097290039062,0.06654653698205948
1761315621713249800,2.889249755859375,-0.6057578325271606,2.5474634170532227,0.3314937651157379
1761315621723296800,2.899296875,-0.7508407235145569,2.3892247676849365,0.5231795907020569
1761315621733344500,2.909344482421875,-0.9246646761894226,2.0271987915039062,0.6454018950462341
1761315621743391500,2.9193916015625,-1.098720669746399,1.6005070209503174,0.7750600576400757
1761315621753439700,2.929439697265625,-1.1394009590148926,1.1811540126800537,0.7982543110847473
1761315621763486700,2.93948681640625,-1.1469025611877441,0.6098601818084717,0.745084822177887
1761315621773534500,2.949534423828125,-1.1016037464141846,0.2281586080789566,0.6223517060279846
1761315621783581400,2.95958154296875,-1.0047435760498047,0.05632239580154419,0.4531802535057068
1761315621793629700,2.969629638671875,-0.8697566986083984,0.004321777727454901,0.258409708738327
1761315621803676700,2.9796767578125,-0.680755615234375,0.03539900481700897,0.04011759161949158
1761315621813724400,2.989724365234375,-0.4101142883300781,0.09718646854162216,-0.2352231740951538
1761315621823771600,2.999771728515625,-0.09738301485776901,0.15788470208644867,-0.5756702423095703
1761315621833819600,3.009819580078125,0.22667495906352997,0.22690372169017792,-0.945318877696991
1761315621843867600,3.01986767578125,0.5647670030593872,0.2714666724205017,-1.3380725383758545
1761315621853914600,3.02991455078125,0.8457671999931335,0.2651091516017914,-1.7384473085403442
1761315621863962600,3.039962646484375,1.002942681312561,0.19602251052856445,-2.0856621265411377
1761315621874009600,3.050009521484375,1.0895931720733643,0.041057687252759933,-2.3772776126861572
1761315621884057600,3.0600576171875,1.0989760160446167,-0.2835656702518463,-2.6148123741149902
1761315621894104600,3.0701044921875,0.9964736700057983,-0.6997660994529724,-2.7253665924072266
1761315621904152600,3.080152587890625,0.8921480178833008,-1.05783212184906,-2.6802868843078613
1761315621914199600,3.090199462890625,0.9703310132026672,-1.641602635383606,-2.6399645805358887
1761315621924247600,3.10024755859375,1.2808302640914917,-2.214369773864746,-2.658205509185791
1761315621934294800,3.110294677734375,1.8650617599487305,-2.5186688899993896,-2.6471948623657227
1761315621944342500,3.120342529296875,2.9634459018707275,-2.802003860473633,-2.752946615219116
1761315621954389500,3.130389404296875,3.3901898860931396,-2.3910839557647705,-3.3595457077026367
1761315621964437500,3.1404375,2.430535078048706,-1.0304210186004639,-4.047458648681641
1761315621974485800,3.15048583984375,1.4204577207565308,0.21507155895233154,-4.117542266845703
1761315621984532500,3.160532470703125,0.7937530279159546,0.6653923988342285,-3.467148542404175
1761315621994580500,3.17058056640625,0.5425809621810913,0.404035359621048,-2.2227773666381836
1761315622004627700,3.180627685546875,0.3656426966190338,-0.10623376071453094,-0.6892135739326477
1761315622014675700,3.19067578125,0.03132915869355202,-0.634430468082428,0.6725406050682068
1761315622024722700,3.20072265625,-0.3820168673992157,-1.147583246231079,1.7153489589691162
1761315622034770400,3.2107705078125,-0.7540873885154724,-1.5793613195419312,2.46360445022583
1761315622044817700,3.220817626953125,-1.0247931480407715,-1.7997277975082397,2.944042444229126
1761315622054865700,3.23086572265625,-1.1448644399642944,-1.7095164060592651,3.126466751098633
1761315622064912600,3.24091259765625,-1.165087103843689,-1.2784658670425415,3.0308525562286377
1761315622074960600,3.250960693359375,-1.149368166923523,-0.6517226696014404,2.7121074199676514
1761315622085007600,3.261007568359375,-1.0904715061187744,0.002653573639690876,2.2949717044830322
1761315622095055600,3.2710556640625,-0.9990257620811462,0.5637571215629578,1.945331335067749
1761315622105103600,3.281103515625,-0.8923613429069519,0.9243730902671814,1.7786978483200073
1761315622115150600,3.291150634765625,-0.7904195189476013,1.0455474853515625,1.833801031112671
1761315622125198600,3.301198486328125,-0.709821879863739,1.0170356035232544,2.1209537982940674
1761315622135245600,3.31124560546875,-0.6637707948684692,0.940248966217041,2.5631537437438965
1761315622145293800,3.3212939453125,-0.6511769890785217,0.7622931003570557,3.0430757999420166
1761315622155340500,3.331340576171875,-0.700397789478302,0.42620405554771423,3.424736976623535
1761315622165388500,3.341388427734375,-0.8647158741950989,0.05230741202831268,3.633086919784546
1761315622175435500,3.351435546875,-1.1080933809280396,-0.2681209444999695,3.7300052642822266
1761315622185483800,3.36148388671875,-1.2095882892608643,-0.47120827436447144,3.5855846405029297
1761315622195530800,3.37153076171875,-1.3505902290344238,-0.7755676507949829,3.228161573410034
1761315622205578500,3.38157861328125,-1.4669228792190552,-0.8462673425674438,2.705899238586426
1761315622215625500,3.39162548828125,-1.5443114042282104,-0.8187372088432312,2.03950834274292
1761315622225673700,3.401673828125,-1.6367864608764648,-0.7133641839027405,1.2239174842834473
1761315622235720700,3.411720703125,-1.7504621744155884,-0.4514830410480499,0.3421240448951721
1761315622245768400,3.4217685546875,-1.8066014051437378,-0.06136695295572281,-0.46402066946029663
1761315622255816700,3.431816650390625,-1.7721863985061646,0.35013964772224426,-1.1083223819732666
1761315622265863700,3.44186376953125,-1.558302879333496,0.7720767855644226,-1.5080485343933105
1761315622275911700,3.45191162109375,-1.1769076585769653,1.0494476556777954,-1.7340502738952637
1761315622285958700,3.461958740234375,-0.760557234287262,1.0759330987930298,-1.8655121326446533
1761315622296006700,3.472006591796875,-0.3408539891242981,0.972070038318634,-1.9189130067825317
1761315622306053600,3.4820537109375,0.0233487319201231,0.7547627687454224,-1.9344624280929565
1761315622316101600,3.4921015625,0.3193838596343994,0.48108166456222534,-1.951446771621704
1761315622326148600,3.502148681640625,0.5184362530708313,0.20076586306095123,-1.960866093635559
1761315622336196600,3.512196533203125,0.633976936340332,-0.1226620003581047,-1.954243540763855
1761315622346243600,3.52224365234375,0.6936341524124146,-0.5512580871582031,-1.9560757875442505
1761315622356291600,3.53229150390625,0.7586600184440613,-1.0971430540084839,-2.0151889324188232
1761315622366338600,3.542338623046875,0.843556821346283,-1.725059151649475,-2.1158318519592285
1761315622376386600,3.552386474609375,1.0154081583023071,-2.2901957035064697,-2.1461172103881836
1761315622386433500,3.56243359375,1.4134575128555298,-3.1311280727386475,-2.206596612930298
1761315622396481500,3.5724814453125,1.909413456916809,-4.139373302459717,-2.471769332885742
1761315622406529800,3.58252978515625,2.271268844604492,-4.647185325622559,-2.9188272953033447
1761315622416576500,3.592576416015625,2.83554744720459,-4.3992533683776855,-3.4767956733703613
1761315622426624500,3.60262451171875,3.319169759750366,-3.3400018215179443,-4.41662073135376
1761315622436671500,3.61267138671875,2.8419442176818848,-1.577662706375122,-5.484734058380127
1761315622446719700,3.6227197265625,1.7724056243896484,-0.038492798805236816,-5.736711025238037
1761315622456766700,3.6327666015625,0.8973039388656616,0.5065598487854004,-4.6700239181518555
1761315622466814500,3.642814453125,0.5927879810333252,-0.20897026360034943,-2.432032823562622
1761315622476861700,3.65286181640625,0.6501146554946899,-1.4861434698104858,0.26039910316467285
1761315622486909700,3.66290966796875,0.5913456082344055,-2.4017295837402344,2.3927886486053467
1761315622496956700,3.672956787109375,0.25799986720085144,-2.487746477127075,3.6656787395477295
1761315622507004400,3.68300439453125,-0.1974685937166214,-2.031254291534424,4.19520378112793
1761315622517051600,3.6930517578125,-0.5993928909301758,-1.3952553272247314,4.165273189544678
1761315622527099600,3.703099609375,-0.8860275745391846,-0.7755199670791626,3.8921663761138916
1761315622537146600,3.713146728515625,-1.0118975639343262,-0.16076624393463135,3.5804288387298584
1761315622547194400,3.7231943359375,-1.076218843460083,0.3482660949230194,3.2683265209198
1761315622557241600,3.73324169921875,-1.1262362003326416,0.5520924925804138,3.016662359237671
1761315622567289600,3.74328955078125,-1.1414891481399536,0.39823099970817566,2.8381707668304443
1761315622577336600,3.753336669921875,-1.0948904752731323,0.017051154747605324,2.684288740158081
1761315622587384600,3.763384521484375,-0.960344672203064,-0.12022893875837326,2.429426431655884
1761315622597432600,3.7734326171875,-0.7493448257446289,0.1731555312871933,2.018693685531616
1761315622607479600,3.7834794921875,-0.509800136089325,0.7437623143196106,1.4967519044876099
1761315622617527600,3.793527587890625,-0.3027960956096649,1.5161501169204712,0.92657071352005
1761315622627574800,3.80357470703125,-0.17190705239772797,2.277509927749634,0.4014874994754791
1761315622637622500,3.81362255859375,-0.2716086208820343,2.782656669616699,0.022373216226696968
1761315622647669500,3.82366943359375,-0.546262800693512,2.9560208320617676,-0.18516533076763153
1761315622657717800,3.8337177734375,-0.9025724530220032,2.885852098464966,-0.27543798089027405
1761315622667764700,3.8437646484375,-1.2564027309417725,2.6064772605895996,-0.2288994938135147
1761315622677812500,3.8538125,-1.55934739112854,2.1260647773742676,-0.038111165165901184
1761315622687859500,3.863859375,-1.7934024333953857,1.4128961563110352,0.22291989624500275
1761315622697907500,3.873907470703125,-1.9571256637573242,0.5852778553962708,0.48779577016830444
1761315622707954400,3.883954345703125,-2.0194008350372314,-0.14936845004558563,0.6879115700721741
1761315622718002400,3.89400244140625,-1.9488288164138794,-0.7608880400657654,0.7781519889831543
1761315622728049400,3.90404931640625,-1.7593715190887451,-1.111195683479309,0.6916778087615967
1761315622738097400,3.914097412109375,-1.4442192316055298,-1.1041899919509888,0.40825140476226807
1761315622748144600,3.92414453125,-0.9984614253044128,-0.8312152028083801,-0.0355428121984005
1761315622758192600,3.934192626953125,-0.47928377985954285,-0.4911811649799347,-0.5995880961418152
1761315622768239600,3.944239501953125,0.04019535705447197,-0.2050410360097885,-1.2204772233963013
1761315622778287400,3.954287353515625,0.5093479156494141,-0.01811428926885128,-1.8482178449630737
1761315622788335600,3.964335693359375,0.9290003180503845,0.16303952038288116,-2.393038034439087
1761315622798382600,3.974382568359375,1.2349541187286377,0.26810067892074585,-2.8003673553466797
1761315622808430300,3.984430419921875,1.4522686004638672,0.2633695900440216,-2.982043981552124
1761315622818477600,3.9944775390625,1.6160708665847778,0.09737582504749298,-2.959303140640259
1761315622828525600,4.004525634765625,1.7785156965255737,-0.23602983355522156,-2.869441032409668
1761315622838572500,4.014572509765625,1.9374395608901978,-0.6909816265106201,-2.80928373336792
1761315622848620300,4.024620361328125,2.1015820503234863,-1.1393901109695435,-2.8240201473236084
1761315622858667500,4.03466748046875,2.290170907974243,-1.4285733699798584,-2.954416275024414
1761315622868715500,4.044715576171875,2.4917032718658447,-1.4820624589920044,-3.2311267852783203
1761315622878762500,4.054762451171875,2.5613131523132324,-1.4107565879821777,-3.5432024002075195
1761315622888810800,4.064810791015625,2.496922016143799,-1.2920820713043213,-3.724987268447876
1761315622898857500,4.074857421875,2.4372689723968506,-1.164910912513733,-3.668111562728882
1761315622908905500,4.084905517578125,2.4619672298431396,-1.1483163833618164,-3.4946072101593018
1761315622918952400,4.094952392578125,2.5084750652313232,-1.12031090259552,-3.3781442642211914
1761315622929000700,4.105000732421875,2.3123037815093994,-0.9466840028762817,-3.26713228225708
1761315622939047700,4.115047607421875,1.951238989830017,-0.7329099178314209,-2.9509685039520264
1761315622949095400,4.125095458984375,1.5837589502334595,-0.615827739238739,-2.2686803340911865
1761315622959142400,4.135142333984375,1.2127686738967896,-0.6508997082710266,-1.2467548847198486
1761315622969190700,4.145190673828125,0.8590598702430725,-0.7394591569900513,0.00675191218033433
1761315622979238400,4.15523828125,0.563287079334259,-0.7569771409034729,1.1865359544754028
1761315622989285400,4.165285400390625,0.3467494249343872,-0.5595402717590332,2.0825462341308594
1761315622999333600,4.175333740234375,0.2188817411661148,-0.16053615510463715,2.698319911956787
1761315623009380600,4.185380615234375,0.17049424350261688,0.29583752155303955,3.0796728134155273
1761315623019428600,4.1954287109375,0.1157953068614006,0.7490276098251343,3.3102571964263916
1761315623029475300,4.205475341796875,0.05699830502271652,1.0435010194778442,3.497218608856201
1761315623039523600,4.215523681640625,-0.05007568374276161,1.1511266231536865,3.6583433151245117
1761315623049570600,4.225570556640625,-0.20086225867271423,1.1225337982177734,3.802403211593628
1761315623059618600,4.23561865234375,-0.37798964977264404,1.0189698934555054,3.898638963699341
1761315623069665500,4.24566552734375,-0.5447897911071777,0.8550142645835876,3.960676670074463
1761315623079713500,4.255713623046875,-0.6454610228538513,0.6133291721343994,3.9643354415893555
1761315623089760500,4.265760498046875,-0.629784345626831,0.2718842327594757,3.8804101943969727
1761315623099808500,4.27580859375,-0.6595733761787415,-0.14563842117786407,3.5976102352142334
1761315623109855500,4.28585546875,-0.9048947095870972,-0.495038777589798,3.077751636505127
1761315623119903500,4.295903564453125,-1.2395308017730713,-0.34541359543800354,2.502573013305664
1761315623129950500,4.305950439453125,-1.507733941078186,0.1235903799533844,2.1706125736236572
1761315623139998500,4.31599853515625,-1.6365156173706055,0.5654450058937073,2.0316128730773926
1761315623150045700,4.326045654296875,-1.399019718170166,0.8349204659461975,2.0207653045654297
1761315623160093400,4.336093505859375,-1.0136041641235352,0.7702250480651855,2.01676607131958
1761315623170140400,4.346140380859375,-0.7188153862953186,0.7210455536842346,1.9445723295211792
1761315623180188400,4.3561884765625,-0.5631089210510254,0.7723638415336609,1.7900404930114746
1761315623190235600,4.366235595703125,-0.44103944301605225,0.7491117715835571,1.55583655834198
1761315623200283600,4.37628369140625,-0.2575282156467438,0.5898593068122864,1.200402855873108
1761315623210331400,4.386331298828125,-0.005050418432801962,0.3334677219390869,0.7521193027496338
1761315623220378400,4.39637841796875,0.23178476095199585,0.14647439122200012,0.2090861052274704
1761315623230426600,4.406426513671875,0.4072362184524536,0.1096668392419815,-0.36816471815109253
1761315623240473600,4.4164736328125,0.5557942390441895,0.21918880939483643,-0.8767855763435364
1761315623250521300,4.426521240234375,0.762789249420166,0.4012419581413269,-1.2430176734924316
1761315623260568600,4.436568603515625,1.0656335353851318,0.5859212875366211,-1.4886382818222046
1761315623270616600,4.446616455078125,1.3551055192947388,0.7272946238517761,-1.6985750198364258
1761315623280663600,4.45666357421875,1.5646992921829224,0.7473021745681763,-1.922707200050354
1761315623290711300,4.466711181640625,1.6585352420806885,0.5882848501205444,-2.149031162261963
1761315623300758500,4.476758544921875,1.6945973634719849,0.32704657316207886,-2.279477834701538
1761315623310806500,4.486806640625,1.6855181455612183,-0.057734403759241104,-2.3657379150390625
1761315623320853500,4.496853515625,1.5991723537445068,-0.5227002501487732,-2.3855056762695312
1761315623330901500,4.506901611328125,1.47146737575531,-0.8291736245155334,-2.266695022583008
1761315623340948500,4.516948486328125,1.3737578392028809,-0.8449099659919739,-2.059360980987549
1761315623350996500,4.52699658203125,1.3663203716278076,-0.7649064660072327,-1.8548128604888916
1761315623361043500,4.53704345703125,1.5492944717407227,-0.8530930280685425,-1.733667254447937
1761315623371091700,4.547091796875,1.8968333005905151,-0.9306783676147461,-1.7954877614974976
1761315623381138700,4.557138671875,2.2713942527770996,-1.077635645866394,-2.172982931137085
1761315623391186400,4.5671865234375,2.2743661403656006,-1.098874807357788,-2.948171615600586
1761315623401233400,4.5772333984375,1.4692766666412354,-0.8506285548210144,-3.6015923023223877
1761315623411281700,4.58728173828125,0.4501056373119354,-0.6434372663497925,-3.377199411392212
1761315623421328600,4.59732861328125,-0.16445977985858917,-0.4467647075653076,-2.2513489723205566
1761315623431376400,4.60737646484375,-0.33549463748931885,-0.22961987555027008,-0.6208627223968506
1761315623441423400,4.61742333984375,-0.4103046953678131,0.04786286503076553,1.128070592880249
1761315623451471600,4.6274716796875,-0.629485011100769,0.2191014587879181,2.6048502922058105
1761315623461519400,4.637519287109375,-0.9337913393974304,0.27411144971847534,3.6286776065826416
1761315623471566300,4.64756640625,-1.2035112380981445,0.22332896292209625,4.237714767456055
1761315623481614600,4.657614501953125,-1.4004954099655151,0.09861179441213608,4.548259258270264
1761315623491661600,4.66766162109375,-1.561297059059143,0.01890471577644348,4.628231048583984
1761315623501709600,4.67770947265625,-1.7533059120178223,0.1027522087097168,4.4404730796813965
1761315623511756500,4.687756591796875,-1.9183180332183838,0.3775358498096466,4.029177665710449
1761315623521804500,4.697804443359375,-1.9781635999679565,0.6580793261528015,3.5309362411499023
1761315623531851500,4.7078515625,-1.9222110509872437,0.766981303691864,3.0283727645874023
1761315623541899500,4.7178994140625,-1.7701152563095093,0.7403582334518433,2.4557459354400635
1761315623551946500,4.727946533203125,-1.4771811962127686,0.7364862561225891,1.760789155960083
1761315623561994500,4.737994384765625,-1.112475037574768,0.8904646635055542,1.0706664323806763
1761315623572041500,4.74804150390625,-0.7655000686645508,1.1174874305725098,0.5896496772766113
1761315623582089500,4.75808935546875,-0.47250524163246155,1.3017163276672363,0.3765597939491272
1761315623592136700,4.76813671875,-0.24826467037200928,1.282230019569397,0.43297111988067627
1761315623602184400,4.778184326171875,-0.16869208216667175,1.183505892753601,0.661090612411499
1761315623612231400,4.7882314453125,-0.24217508733272552,0.8871117234230042,0.9219826459884644
1761315623622279400,4.798279541015625,-0.3854489028453827,0.43341293931007385,1.0954082012176514
1761315623632326700,4.80832666015625,-0.60020911693573,0.013277988880872726,1.0950497388839722
1761315623642374400,4.81837451171875,-0.8155001401901245,-0.26454484462738037,0.9797223806381226
1761315623652421400,4.82842138671875,-1.0019358396530151,-0.5223801136016846,0.7773019075393677
1761315623662469600,4.8384697265625,-1.172898530960083,-0.841611385345459,0.5299027562141418
1761315623672516600,4.8485166015625,-1.2256008386611938,-1.0280078649520874,0.3314133584499359
1761315623682564600,4.858564697265625,-1.1471859216690063,-1.0732733011245728,0.2078770250082016
1761315623692611000,4.868611083984375,-0.9671937823295593,-1.0664011240005493,0.16278518736362457
1761315623702658800,4.878658935546875,-0.7794206738471985,-0.9819096326828003,0.23325322568416595
1761315623712704000,4.8887041015625,-0.5051590204238892,-0.8081705570220947,0.32821089029312134
1761315623722751000,4.8987509765625,-0.22176115214824677,-0.6018951535224915,0.28471827507019043
1761315623732799000,4.908799072265625,0.06925656646490097,-0.4123534858226776,0.020131632685661316
1761315623742846000,4.918845947265625,0.3089735507965088,-0.2039339542388916,-0.3667532205581665
1761315623752894000,4.92889404296875,0.3886582553386688,-0.07674484699964523,-0.8012397289276123
1761315623762941000,4.93894091796875,0.32396262884140015,0.035103391855955124,-1.1097307205200195
1761315623772989000,4.948989013671875,0.26918700337409973,0.24395513534545898,-1.2384390830993652
1761315623783036000,4.959035888671875,0.25596094131469727,0.42301037907600403,-1.284403920173645
1761315623793084000,4.969083984375,0.2886773347854614,0.6185857653617859,-1.2062723636627197
1761315623803131000,4.979130859375,0.309326171875,0.7619990706443787,-1.0241748094558716
1761315623813179100,4.98917919921875,0.3517899811267853,0.8899911642074585,-0.7608970999717712
1761315623823225900,4.999225830078125,0.3676166236400604,1.0385459661483765,-0.5455461740493774
1761315623833273900,5.00927392578125,0.30816343426704407,1.1687582731246948,-0.45378533005714417
1761315623843321000,5.019321044921875,0.09424474090337753,1.2799149751663208,-0.5464513301849365
1761315623853369000,5.029369140625,-0.011967979371547699,0.9946160912513733,-0.8799792528152466
1761315623863416000,5.039416015625,0.10551044344902039,0.7777114510536194,-1.1091439723968506
1761315623873463800,5.0494638671875,0.4205368459224701,0.7361685633659363,-1.198621153831482
1761315623883511000,5.059510986328125,0.7688604593276978,0.7856404781341553,-1.2747609615325928
1761315623893559000,5.06955908203125,1.0033427476882935,0.9759995341300964,-1.3485381603240967
1761315623903606000,5.07960595703125,1.121721625328064,1.2182968854904175,-1.43668532371521
1761315623913654000,5.089654052734375,1.1778682470321655,1.6318111419677734,-1.5034921169281006
1761315623923701000,5.099700927734375,1.215714693069458,2.002559185028076,-1.5693297386169434
1761315623933749000,5.1097490234375,1.2114509344100952,2.1362974643707275,-1.6619209051132202
1761315623943796000,5.1197958984375,1.1426963806152344,2.2232322692871094,-1.7151122093200684
1761315623953844000,5.129843994140625,0.8516994118690491,2.4233484268188477,-1.5862053632736206
1761315623963891000,5.139890869140625,0.3836219608783722,2.4985239505767822,-1.2213038206100464
1761315623973939000,5.14993896484375,-0.03392334654927254,2.2392795085906982,-0.6456048488616943
1761315623983986000,5.15998583984375,-0.20019914209842682,1.4672802686691284,0.14308232069015503
1761315623994034200,5.1700341796875,0.006101568229496479,0.3020176589488983,1.069506049156189
1761315624004082000,5.18008203125,0.3080267906188965,-0.8760359287261963,2.0091910362243652
1761315624014129000,5.19012890625,0.40542152523994446,-2.0900461673736572,2.8299524784088135
1761315624024177200,5.20017724609375,0.2455948442220688,-2.923616647720337,3.3982434272766113
1761315624034224000,5.21022412109375,-0.04579358547925949,-3.1626057624816895,3.695901393890381
1761315624044271900,5.22027197265625,-0.3710899353027344,-2.8927197456359863,3.724951982498169
1761315624054318800,5.23031884765625,-0.6449686288833618,-2.2806625366210938,3.5120978355407715
1761315624064367000,5.2403671875,-0.8245559334754944,-1.495483160018921,3.1261003017425537
1761315624074414000,5.2504140625,-0.9042382836341858,-0.7386186718940735,2.6287338733673096
1761315624084461800,5.2604619140625,-0.8761203289031982,-0.16740630567073822,2.130260944366455
1761315624094508800,5.2705087890625,-0.7685086727142334,0.13958346843719482,1.620476484298706
1761315624104557000,5.28055712890625,-0.6364012360572815,0.31536486744880676,1.1415964365005493
1761315624114604000,5.29060400390625,-0.47871625423431396,0.3605371415615082,0.7649240493774414
1761315624124652000,5.300652099609375,-0.3502424359321594,0.3045079708099365,0.5104827284812927
1761315624134698800,5.31069873046875,-0.2455892562866211,0.23601998388767242,0.34272700548171997
1761315624144747000,5.3207470703125,-0.20415286719799042,0.2445245236158371,0.19837833940982819
1761315624154794000,5.3307939453125,-0.18446572124958038,0.30484405159950256,0.04584525153040886
1761315624164842000,5.340842041015625,-0.1818462312221527,0.40353867411613464,-0.0717996209859848
1761315624174889000,5.350888916015625,-0.18948763608932495,0.5285496115684509,-0.12171045690774918
1761315624184937000,5.36093701171875,-0.1983242779970169,0.6299062967300415,-0.11415107548236847
1761315624194984000,5.37098388671875,-0.22954504191875458,0.6616882085800171,-0.06259067356586456
1761315624205032000,5.381031982421875,-0.2773306667804718,0.7080690264701843,-0.0028605014085769653
1761315624215079200,5.3910791015625,-0.35685160756111145,0.7123854756355286,0.020048808306455612
1761315624225127000,5.401126953125,-0.46189653873443604,0.6224297285079956,-0.024108532816171646
1761315624235174000,5.411173828125,-0.6089640259742737,0.4883718192577362,-0.10088586807250977
1761315624245222100,5.42122216796875,-0.7626771330833435,0.2858610451221466,-0.0649060308933258
1761315624255269000,5.43126904296875,-0.8473957777023315,0.013010340742766857,0.1426793932914734
1761315624265316900,5.44131689453125,-0.8610129952430725,-0.19734503328800201,0.34919580817222595
1761315624275363800,5.45136376953125,-0.8270134925842285,-0.2813994586467743,0.36482563614845276
1761315624285412000,5.461412109375,-0.8162793517112732,-0.12801149487495422,0.15062838792800903
1761315624295459000,5.471458984375,-0.9452594518661499,0.1907699555158615,-0.10107788443565369
1761315624305507000,5.481507080078125,-1.0327235460281372,0.3795616924762726,-0.291776180267334
1761315624315553800,5.4915537109375,-1.076516032218933,0.49200570583343506,-0.36531513929367065
1761315624325602000,5.50160205078125,-1.1844557523727417,0.5446292161941528,-0.3544699251651764
1761315624335649000,5.51164892578125,-1.3209166526794434,0.4233584403991699,-0.468515545129776
1761315624345699000,5.521698974609375,-1.3280858993530273,0.23007315397262573,-0.778484582901001
1761315624355746000,5.53174609375,-1.1445642709732056,0.03129267692565918,-1.0674649477005005
1761315624365794000,5.5417939453125,-0.8792410492897034,-0.17405621707439423,-1.1362568140029907
1761315624375841000,5.551841064453125,-0.5781434774398804,-0.4490635395050049,-1.1152026653289795
1761315624385889000,5.561888916015625,-0.2427271604537964,-0.7066564559936523,-1.1905120611190796
1761315624395936000,5.57193603515625,0.13027065992355347,-0.8587027192115784,-1.3252986669540405
1761315624405984000,5.58198388671875,0.43938109278678894,-0.8421538472175598,-1.383249282836914
1761315624416031000,5.592031005859375,0.4979296326637268,-0.709893524646759,-1.3857239484786987
1761315624426079000,5.602078857421875,0.24721165001392365,-0.4999687969684601,-1.3613461256027222
1761315624436126000,5.6121259765625,-0.19258728623390198,-0.30379238724708557,-1.2833772897720337
1761315624446174000,5.622174072265625,-0.6222015023231506,-0.2317088544368744,-1.1858718395233154
1761315624456221000,5.632220947265625,-0.8981577157974243,-0.32509687542915344,-1.0516737699508667
1761315624466269000,5.64226904296875,-0.9519692659378052,-0.600652277469635,-0.8806408047676086
1761315624476316000,5.65231591796875,-0.7566202878952026,-0.9291942119598389,-0.6626360416412354
1761315624486364000,5.662364013671875,-0.4166904389858246,-1.1946501731872559,-0.40390005707740784
1761315624496411100,5.6724111328125,-0.050524160265922546,-1.3611797094345093,-0.14782434701919556
1761315624506459000,5.682458984375,0.27571573853492737,-1.3625528812408447,0.043958667665719986
1761315624516505900,5.692505859375,0.49433594942092896,-1.097233772277832,0.14912210404872894
1761315624526553900,5.702553955078125,0.6243107318878174,-0.6600698232650757,0.17566317319869995
1761315624536601000,5.71260107421875,0.6673343777656555,-0.23253124952316284,0.14943236112594604
1761315624546649000,5.722649169921875,0.6050534248352051,0.035885028541088104,0.10252823680639267
1761315624556696000,5.732696044921875,0.44058671593666077,0.1713576316833496,0.04442978277802467
1761315624566744000,5.742744140625,0.2078820914030075,0.20471692085266113,0.06114671006798744
1761315624576791000,5.752791015625,-0.009243565611541271,0.20640669763088226,0.18860799074172974
1761315624586839000,5.762839111328125,-0.16180674731731415,0.19992695748806,0.4166150689125061
1761315624596886000,5.772885986328125,-0.24753442406654358,0.12030989676713943,0.6833783388137817
1761315624606934000,5.78293408203125,-0.2799656093120575,-0.012249741703271866,0.9148852825164795
1761315624616981000,5.79298095703125,-0.26798856258392334,-0.11219098418951035,1.07892644405365
1761315624627029000,5.803029052734375,-0.23434965312480927,-0.17135949432849884,1.1438883543014526
1761315624637076000,5.813075927734375,-0.2184087634086609,-0.1759185642004013,1.1032003164291382
1761315624647124000,5.8231240234375,-0.24027332663536072,-0.11970509588718414,0.9768157601356506
1761315624657172000,5.833171875,-0.31921419501304626,0.04376132786273956,0.7930698990821838
1761315624667219000,5.843218994140625,-0.4145266115665436,0.23323911428451538,0.5683380365371704
1761315624677266000,5.853265869140625,-0.49038541316986084,0.3891485631465912,0.3747919797897339
1761315624687314000,5.86331396484375,-0.4956696629524231,0.5121002793312073,0.2903362214565277
1761315624697361400,5.873361328125,-0.4449646770954132,0.6815897226333618,0.28491827845573425
1761315624707409400,5.883409423828125,-0.41147568821907043,0.9153574705123901,0.31889355182647705
1761315624717457400,5.89345751953125,-0.34792521595954895,1.049947738647461,0.36991921067237854
1761315624727504400,5.90350439453125,-0.1651546061038971,0.9345183968544006,0.3900196850299835
1761315624737552400,5.913552490234375,0.0971667617559433,0.6477705240249634,0.3155275881290436
1761315624747599400,5.923599365234375,0.3358760178089142,0.2626097798347473,0.09043429046869278
1761315624757647400,5.9336474609375,0.43365371227264404,-0.06377311795949936,-0.24510696530342102
1761315624767694600,5.943694580078125,0.4035338759422302,-0.1894114762544632,-0.47532498836517334
1761315624777742300,5.953742431640625,0.3270534873008728,-0.36882758140563965,-0.5611565113067627
1761315624787789300,5.963789306640625,0.21016202867031097,-0.6579696536064148,-0.43938562273979187
1761315624797837600,5.973837646484375,-0.004546815063804388,-1.0066032409667969,-0.10195352882146835
1761315624807884500,5.983884521484375,-0.27981141209602356,-1.384514570236206,0.3082912564277649
1761315624817932300,5.993932373046875,-0.4467404782772064,-1.6379234790802002,0.644819974899292
1761315624827979300,6.003979248046875,-0.2398541420698166,-1.8826035261154175,0.7103137969970703
1761315624838027500,6.014027587890625,0.1178257018327713,-1.9386433362960815,0.45600348711013794
1761315624848074500,6.024074462890625,0.5388813018798828,-1.876681923866272,-0.10313144326210022
1761315624858122200,6.034122314453125,1.0077744722366333,-1.6078259944915771,-0.8912960886955261
1761315624868169200,6.044169189453125,1.363667368888855,-1.0317248106002808,-1.6337672472000122
1761315624878217500,6.054217529296875,1.502108097076416,-0.24084989726543427,-2.1605584621429443
1761315624888264400,6.064264404296875,1.3808703422546387,0.6055631637573242,-2.4415111541748047
1761315624898312400,6.0743125,1.0052748918533325,1.291947603225708,-2.4919333457946777
1761315624908359200,6.084359130859375,0.5206184387207031,1.6341595649719238,-2.3494484424591064
1761315624918407400,6.094407470703125,-0.019842147827148438,1.5569851398468018,-2.034585475921631
1761315624928454400,6.104454345703125,-0.4840124845504761,1.0237572193145752,-1.5737407207489014
1761315624938502400,6.11450244140625,-0.8141738772392273,0.26248833537101746,-1.032155156135559
1761315624948549600,6.124549560546875,-1.0231369733810425,-0.5899953842163086,-0.467922180891037
1761315624958597400,6.134597412109375,-1.1254159212112427,-1.3520323038101196,0.034865837544202805
1761315624968644400,6.144644287109375,-1.0655277967453003,-1.8349595069885254,0.38993844389915466
1761315624978692400,6.1546923828125,-0.9158312678337097,-1.9509245157241821,0.5627357959747314
1761315624988739600,6.164739501953125,-0.7561180591583252,-1.6817198991775513,0.6541661024093628
1761315624998787300,6.174787353515625,-0.6126189231872559,-1.1544995307922363,0.7097198963165283
1761315625008834300,6.184834228515625,-0.48616164922714233,-0.5589303970336914,0.7229411602020264
1761315625018882300,6.19488232421875,-0.3802488148212433,-0.040654219686985016,0.6847511529922485
1761315625028929500,6.204929443359375,-0.2864093780517578,0.358791708946228,0.6337276697158813
1761315625038977300,6.214977294921875,-0.2598600685596466,0.6196669936180115,0.6028363108634949
1761315625049024300,6.225024169921875,-0.3020099103450775,0.7130872011184692,0.6438037157058716
1761315625059072500,6.235072509765625,-0.36665603518486023,0.6395179033279419,0.7394636869430542
1761315625069119500,6.245119384765625,-0.4752107262611389,0.43454161286354065,0.8767610788345337
1761315625079167500,6.25516748046875,-0.6249203085899353,0.16345736384391785,1.0120419263839722
1761315625089214200,6.265214111328125,-0.8762883543968201,-0.06095416471362114,1.1129920482635498
1761315625099262500,6.275262451171875,-1.2162549495697021,-0.2218834012746811,1.1597554683685303
1761315625109309400,6.285309326171875,-1.587890863418579,-0.3480170965194702,1.1212525367736816
1761315625119357400,6.295357421875,-1.90132474899292,-0.3438788056373596,1.093034267425537
1761315625129404400,6.305404296875,-2.056443691253662,-0.22574125230312347,1.147498607635498
1761315625139452400,6.315452392578125,-2.0299007892608643,0.04405028373003006,1.2785309553146362
1761315625149499400,6.32549951171875,-1.8627983331680298,0.44075581431388855,1.4006026983261108
1761315625159547400,6.33554736328125,-1.5843653678894043,0.8154956102371216,1.3970741033554077
1761315625169594400,6.345594482421875,-1.2618533372879028,1.1146730184555054,1.2287074327468872
1761315625179642400,6.355642333984375,-0.9325103759765625,1.2592823505401611,0.9191418290138245
1761315625189689300,6.365689453125,-0.6506344676017761,1.2218987941741943,0.5811001658439636
1761315625199737300,6.3757373046875,-0.4046556055545807,0.992103636264801,0.272266685962677
1761315625209784600,6.38578466796875,-0.1515764743089676,0.747621476650238,-0.02660071849822998
1761315625219832300,6.395832275390625,0.15128086507320404,0.6693397164344788,-0.32127735018730164
1761315625229879300,6.40587939453125,0.36748212575912476,0.8208760023117065,-0.5526482462882996
1761315625239927300,6.41592724609375,0.4638693928718567,0.9661325216293335,-0.793950617313385
1761315625249974500,6.425974609375,0.4168017506599426,1.0026159286499023,-1.0042743682861328
1761315625260022500,6.4360224609375,0.22844035923480988,0.9054798483848572,-1.061805248260498
1761315625270069200,6.4460693359375,0.0159430131316185,0.6223844885826111,-1.0244618654251099
1761315625280117200,6.4561171875,-0.05058754235506058,0.2695896625518799,-0.9354158639907837
1761315625290164500,6.46616455078125,0.1159479096531868,-0.12401542067527771,-0.9291089773178101
1761315625300212500,6.47621240234375,0.41053879261016846,-0.5022684335708618,-1.0567373037338257
1761315625310259500,6.486259521484375,0.7182369828224182,-0.8170229196548462,-1.2994334697723389
1761315625320307500,6.496307373046875,1.038642168045044,-1.1659332513809204,-1.6100279092788696
1761315625330354400,6.5063544921875,1.3178186416625977,-1.4125778675079346,-1.8387644290924072
1761315625340402400,6.51640234375,1.4824464321136475,-1.5789769887924194,-1.9095344543457031
1761315625350449400,6.526449462890625,1.5515917539596558,-1.6925318241119385,-1.8956124782562256
1761315625360497400,6.536497314453125,1.488647699356079,-1.5863566398620605,-1.7675272226333618
1761315625370544400,6.54654443359375,1.3274779319763184,-1.3214781284332275,-1.5041600465774536
1761315625380592400,6.55659228515625,1.15057373046875,-0.9936219453811646,-1.0996508598327637
1761315625390639400,6.566639404296875,1.0141503810882568,-0.7357344627380371,-0.5958569645881653
1761315625400687400,6.576687255859375,0.9418247938156128,-0.6270516514778137,-0.014417288824915886
1761315625410734300,6.586734375,0.9219895601272583,-0.6353873610496521,0.5848336219787598
1761315625420782300,6.5967822265625,0.9427134990692139,-0.7242019176483154,1.1508725881576538
1761315625430829300,6.606829345703125,0.99516361951828,-0.7848010659217834,1.623232364654541
1761315625440877300,6.616877197265625,1.067054033279419,-0.7059304714202881,1.9363553524017334
1761315625450924300,6.62692431640625,1.092579960823059,-0.43208351731300354,2.107377767562866
1761315625460972300,6.63697216796875,1.0628715753555298,-0.003412308171391487,2.112941265106201
1761315625471019500,6.64701953125,1.043187141418457,0.6080694198608398,1.9660155773162842
1761315625481067500,6.657067626953125,1.0239758491516113,1.210292935371399,1.7026376724243164
1761315625491114500,6.667114501953125,0.9782994389533997,1.5830549001693726,1.3127367496490479
1761315625501162200,6.677162353515625,0.8853908181190491,1.7761998176574707,0.7858967185020447
1761315625511209500,6.68720947265625,0.7417033910751343,1.8582842350006104,0.19476228952407837
1761315625521257500,6.697257568359375,0.5852800011634827,1.8183581829071045,-0.3273123502731323
1761315625531304400,6.707304443359375,0.4105060398578644,1.680784821510315,-0.6969100832939148
1761315625541352200,6.717352294921875,0.21290108561515808,1.5494968891143799,-0.8355166912078857
1761315625551399400,6.7273994140625,0.022362830117344856,1.459310531616211,-0.7617967128753662
1761315625561447400,6.737447509765625,-0.13498418033123016,1.3557641506195068,-0.5800431370735168
1761315625571494400,6.747494384765625,-0.21730728447437286,1.2299140691757202,-0.31571081280708313
1761315625581542400,6.75754248046875,-0.25123754143714905,1.0921837091445923,-0.029936593025922775
1761315625591589400,6.76758935546875,-0.2565958499908447,0.9235597848892212,0.2159717082977295
1761315625601637400,6.777637451171875,-0.26439037919044495,0.7421960830688477,0.42378801107406616
1761315625611684400,6.787684326171875,-0.2599703371524811,0.5389148592948914,0.6061554551124573
1761315625621732400,6.797732421875,-0.25748133659362793,0.30037474632263184,0.7581020593643188
1761315625631779300,6.807779296875,-0.303424596786499,0.12100525200366974,0.8879951238632202
1761315625641827300,6.817827392578125,-0.372729629278183,0.14905285835266113,1.0289386510849
1761315625651874300,6.827874267578125,-0.4757992923259735,0.4046502709388733,1.2160078287124634
1761315625661922600,6.837922607421875,-0.5163208842277527,0.6608580946922302,1.474644422531128
1761315625671969500,6.847969482421875,-0.39751487970352173,0.7208276987075806,1.8150444030761719
1761315625682017300,6.858017333984375,-0.06524771451950073,0.4627455472946167,2.1321237087249756
1761315625692064300,6.868064208984375,0.3834022581577301,-0.14702753722667694,2.172031879425049
1761315625702116400,6.878116455078125,0.8487635254859924,-1.124265432357788,1.6578236818313599
1761315625712163300,6.888163330078125,1.035858392715454,-1.778121829032898,0.6715280413627625
1761315625722211000,6.898211181640625,0.8648658394813538,-1.9887034893035889,-0.537822425365448
1761315625732258300,6.90825830078125,0.5520368218421936,-2.0483484268188477,-1.7840689420700073
1761315625742306300,6.918306396484375,0.23960086703300476,-1.5786031484603882,-2.6660492420196533
1761315625752353300,6.928353271484375,0.018088988959789276,-0.7018933892250061,-3.0535504817962646
1761315625762401300,6.9384013671875,-0.017522534355521202,0.3292958736419678,-3.046229839324951
1761315625772448300,6.9484482421875,0.2287580817937851,1.272063136100769,-2.872086524963379
1761315625782496300,6.958496337890625,0.7178215384483337,1.9157350063323975,-2.602281093597412
1761315625792543200,6.968543212890625,1.3786636590957642,2.1963558197021484,-2.297288179397583
1761315625802591200,6.97859130859375,2.0951807498931885,2.0934605598449707,-2.043008804321289
1761315625812638200,6.98863818359375,2.662184476852417,1.5824683904647827,-2.028437852859497
1761315625822686200,6.998686279296875,2.7184407711029053,0.9237592220306396,-2.3049285411834717
1761315625832733200,7.008733154296875,2.219285249710083,0.31273260712623596,-2.6397511959075928
1761315625842781200,7.01878125,1.4049173593521118,-0.08327464759349823,-2.855106830596924
1761315625852828200,7.028828125,0.6064132452011108,-0.2500084936618805,-2.895505666732788
1761315625862876200,7.038876220703125,0.12747007608413696,-0.3744889199733734,-2.7147867679595947
1761315625872923100,7.048923095703125,0.02075241692364216,-0.39286500215530396,-2.2844390869140625
1761315625882971400,7.058971435546875,0.07796110957860947,-0.40500688552856445,-1.5637969970703125
1761315625893018400,7.069018310546875,0.12823307514190674,-0.3911174237728119,-0.6931191086769104
1761315625903066000,7.079066162109375,0.08218488097190857,-0.320989191532135,0.16888248920440674
1761315625913113000,7.089113037109375,-0.05185573920607567,-0.31526127457618713,0.8403423428535461
1761315625923161300,7.099161376953125,-0.20351023972034454,-0.31866639852523804,1.2069225311279297
1761315625933208300,7.109208251953125,-0.41777247190475464,-0.19687683880329132,1.3051958084106445
1761315625943256000,7.119256103515625,-0.7407289743423462,0.07572485506534576,1.3459581136703491
1761315625953303300,7.12930322265625,-1.0854469537734985,0.34800803661346436,1.4710679054260254
1761315625963351300,7.139351318359375,-1.3436691761016846,0.38222381472587585,1.702265977859497
1761315625973398300,7.149398193359375,-1.4603006839752197,0.23119433224201202,2.000694990158081
1761315625983446000,7.159446044921875,-1.4408646821975708,-0.002448244020342827,2.2993016242980957
1761315625993493200,7.1694931640625,-1.3006601333618164,-0.2192079871892929,2.558568239212036
1761315626003541200,7.179541259765625,-1.0631885528564453,-0.49195775389671326,2.754303455352783
1761315626013588200,7.189588134765625,-0.7849614024162292,-0.6417089104652405,2.82055926322937
1761315626023636200,7.19963623046875,-0.5237018465995789,-0.5650948286056519,2.7052500247955322
1761315626033683200,7.20968310546875,-0.32911503314971924,-0.1700659990310669,2.536133050918579
1761315626043731200,7.219731201171875,-0.2742041349411011,0.42121621966362,2.3882269859313965
1761315626053778200,7.229778076171875,-0.29560261964797974,0.9175007939338684,2.2608320713043213
1761315626063826400,7.239826416015625,-0.3084920644760132,1.1931238174438477,2.1997318267822266
1761315626073873400,7.249873291015625,-0.3259035348892212,1.104083776473999,2.174208641052246
1761315626083921200,7.259921142578125,-0.3029590845108032,0.7342281937599182,2.148481845855713
1761315626093968100,7.269968017578125,-0.2298600971698761,0.21806389093399048,2.1473305225372314
1761315626104016400,7.280016357421875,-0.18109069764614105,-0.3485771715641022,2.098165273666382
1761315626114063400,7.2900634765625,-0.12869486212730408,-0.8336833715438843,1.9572795629501343
1761315626124110300,7.3001103515625,-0.13199052214622498,-1.0787357091903687,1.6402027606964111
1761315626134158000,7.310157958984375,-0.2692176103591919,-1.0279301404953003,1.202368974685669
1761315626144206300,7.320206298828125,-0.4866572618484497,-0.8892475962638855,0.7978149056434631
1761315626154253300,7.33025341796875,-0.5519196391105652,-0.8607475161552429,0.49499455094337463
1761315626164300300,7.34030029296875,-0.39776813983917236,-1.0740318298339844,0.235788032412529
1761315626174348000,7.35034814453125,0.012978648766875267,-1.3008027076721191,-0.046130478382110596
1761315626184395300,7.360395263671875,0.44110921025276184,-1.2134068012237549,-0.4106253385543823
1761315626194443300,7.370443359375,0.6741579174995422,-0.6815303564071655,-0.9309068918228149
1761315626204490200,7.380490234375,0.6755155920982361,0.25579634308815,-1.4686683416366577
1761315626214538200,7.390538330078125,0.4268850088119507,1.3359358310699463,-1.6348626613616943
1761315626224585200,7.400585205078125,0.1843155175447464,2.092167615890503,-1.2987898588180542
1761315626234633200,7.41063330078125,0.20192725956439972,2.0557138919830322,-0.7404868602752686
1761315626244680200,7.42068017578125,0.5004364848136902,1.287078857421875,-0.22146475315093994
1761315626254728200,7.430728271484375,0.7874272465705872,0.29978007078170776,0.11923451721668243
1761315626264775200,7.440775146484375,1.0440163612365723,-0.5137568116188049,0.17929919064044952
1761315626274823200,7.4508232421875,1.4112173318862915,-1.0424443483352661,-0.24899516999721527
1761315626284870100,7.4608701171875,1.7380836009979248,-0.905581533908844,-0.9911704659461975
1761315626294918400,7.47091845703125,1.8263734579086304,-0.13220064342021942,-1.7517248392105103
1761315626304965400,7.48096533203125,1.5245510339736938,1.0116952657699585,-2.3962135314941406
1761315626315013000,7.49101318359375,0.9592759609222412,2.0056140422821045,-2.8316004276275635
1761315626325060000,7.50106005859375,0.36532843112945557,2.624166250228882,-2.966684103012085
1761315626335108400,7.5111083984375,-0.1576056033372879,2.5895836353302,-2.6853692531585693
1761315626345155300,7.5211552734375,-0.34499627351760864,1.9807939529418945,-2.0147905349731445
1761315626355203000,7.531203125,-0.19078566133975983,0.9324120879173279,-1.1109716892242432
1761315626365250000,7.54125,0.13898904621601105,-0.15032638609409332,-0.10695414990186691
1761315626375298300,7.55129833984375,0.4112253487110138,-0.952049732208252,0.8843851685523987
1761315626385345300,7.56134521484375,0.49747130274772644,-1.4805636405944824,1.7668944597244263
1761315626395393000,7.57139306640625,0.4221467077732086,-1.6542555093765259,2.427173376083374
1761315626405440300,7.581440185546875,0.24785667657852173,-1.4985582828521729,2.77838134765625
1761315626415488300,7.59148828125,0.014215953648090363,-1.2147088050842285,2.8288652896881104
1761315626425535200,7.60153515625,-0.2408594787120819,-0.9395877122879028,2.6471495628356934
1761315626435583200,7.611583251953125,-0.48496562242507935,-0.8034464120864868,2.290621280670166
1761315626445630200,7.621630126953125,-0.6768218874931335,-0.6893168687820435,1.8864389657974243
1761315626455678200,7.63167822265625,-0.8005573749542236,-0.5888760685920715,1.4968796968460083
1761315626465725200,7.64172509765625,-0.8689718842506409,-0.4243784546852112,1.1014094352722168
1761315626475773400,7.6517734375,-0.8592833280563354,-0.1456778347492218,0.7161125540733337
1761315626485820400,7.6618203125,-0.7785442471504211,0.18757468461990356,0.41430744528770447
1761315626495868200,7.6718681640625,-0.630533754825592,0.5319006443023682,0.18841518461704254
1761315626505915100,7.6819150390625,-0.5119740962982178,0.9207320213317871,0.019521502777934074
1761315626515963400,7.69196337890625,-0.4502345323562622,1.2262351512908936,-0.0851961225271225
1761315626526010400,7.70201025390625,-0.37737685441970825,1.458335280418396,-0.06842033565044403
1761315626536058000,7.71205810546875,-0.3402057886123657,1.5835672616958618,0.05125493183732033
1761315626546105000,7.72210498046875,-0.3574787676334381,1.554105520248413,0.1822635531425476
1761315626556153300,7.7321533203125,-0.3676520586013794,1.403355360031128,0.29421350359916687
1761315626566200300,7.742200439453125,-0.3318314552307129,1.1868067979812622,0.4159921407699585
1761315626576248000,7.752248046875,-0.32141023874282837,1.0155799388885498,0.5439237356185913
1761315626586295000,7.762294921875,-0.3823143541812897,0.8481893539428711,0.5892893671989441
1761315626596343300,7.77234326171875,-0.4809514284133911,0.6116690039634705,0.4701922833919525
1761315626606390300,7.782390380859375,-0.5371803641319275,0.5793454051017761,0.17513400316238403
1761315626616438300,7.792438232421875,-0.554405689239502,0.4865797758102417,-0.20023483037948608
1761315626626485000,7.802485107421875,-0.5967427492141724,0.3124662935733795,-0.6018730998039246
1761315626636533200,7.812533203125,-0.57248854637146,0.35710832476615906,-1.026534914970398
1761315626646580200,7.822580322265625,-0.4796915054321289,0.6642277836799622,-1.4343303442001343
1761315626656628200,7.832628173828125,-0.26405107975006104,0.7948113679885864,-1.7846417427062988
1761315626666675500,7.842675537109375,0.12851482629776,0.7621466517448425,-2.0771572589874268
1761315626676723200,7.85272314453125,0.5744883418083191,0.6707200407981873,-2.35298752784729
1761315626686770200,7.862770263671875,0.9648906588554382,0.4745121896266937,-2.517911911010742
1761315626696814000,7.87281396484375,1.2939554452896118,0.23929408192634583,-2.5986742973327637
1761315626706861000,7.882861083984375,1.4988946914672852,0.12425670027732849,-2.708101749420166
1761315626716908300,7.892908203125,1.5561063289642334,0.17013764381408691,-2.9081530570983887
1761315626726956000,7.9029560546875,1.5011093616485596,0.2069270759820938,-3.1399433612823486
1761315626737003000,7.9130029296875,1.4311646223068237,0.2063092291355133,-3.3299548625946045
1761315626747051000,7.923051025390625,1.2971259355545044,0.1594008356332779,-3.476191997528076
1761315626757098200,7.93309814453125,1.0265990495681763,0.17903925478458405,-3.404141902923584
1761315626767146000,7.94314599609375,0.6347708106040955,0.232222318649292,-2.918830156326294
1761315626777193000,7.95319287109375,0.22613832354545593,0.019529493525624275,-2.248866319656372
1761315626787241000,7.963240966796875,-0.06837745755910873,-0.4987703859806061,-1.684127688407898
1761315626797288200,7.9732880859375,-0.25805097818374634,-1.1770282983779907,-1.3744715452194214
1761315626807336200,7.983336181640625,-0.2852136194705963,-1.744206190109253,-1.2699624300003052
1761315626817383200,7.993383056640625,-0.17460402846336365,-2.0520811080932617,-1.2215126752853394
1761315626827431200,8.00343115234375,-0.03321760892868042,-1.9494067430496216,-1.0510737895965576
1761315626837478100,8.01347802734375,0.044253479689359665,-1.4004535675048828,-0.7504167556762695
1761315626847526100,8.023526123046874,-0.07610622048377991,-0.7085624933242798,-0.3461243808269501
1761315626857573000,8.033572998046875,-0.36395132541656494,-0.14277978241443634,0.12869752943515778
1761315626867621000,8.04362109375,-0.7330132722854614,0.168450266122818,0.6048254370689392
1761315626877668000,8.053668212890624,-1.0861585140228271,0.2303498536348343,0.9996246695518494
1761315626887716000,8.063716064453125,-1.341851830482483,0.06655292958021164,1.2933883666992188
1761315626897763000,8.07376318359375,-1.4658927917480469,-0.21901623904705048,1.5093936920166016
1761315626907811000,8.08381103515625,-1.449574589729309,-0.47863849997520447,1.6396137475967407
1761315626917858000,8.093858154296875,-1.2742061614990234,-0.6482563018798828,1.64348304271698
1761315626927906000,8.103906005859375,-0.9464877247810364,-0.7269958257675171,1.4932770729064941
1761315626937953000,8.113953125,-0.5343526005744934,-0.7536985278129578,1.2544233798980713
1761315626948001000,8.1240009765625,-0.09152884781360626,-0.5853108763694763,0.9952794909477234
1761315626958048000,8.134048095703125,0.2946161925792694,-0.10417274385690689,0.8081053495407104
1761315626968096000,8.144095947265624,0.4962824583053589,0.4588080644607544,0.6900431513786316
1761315626978143200,8.154143310546875,0.47999829053878784,0.9012206196784973,0.6166669130325317
1761315626988191200,8.164191162109375,0.36355823278427124,1.1943368911743164,0.5656008124351501
1761315626998238200,8.17423828125,0.16662439703941345,1.351209044456482,0.5546706914901733
1761315627008286000,8.184285888671875,-0.11531540751457214,1.3248493671417236,0.5897396802902222
1761315627018333200,8.194333251953125,-0.42711111903190613,1.0996372699737549,0.6887994408607483
1761315627028381200,8.204381103515624,-0.6991708874702454,0.7403483986854553,0.8975265622138977
1761315627038428200,8.21442822265625,-0.9200137853622437,0.36612898111343384,1.2182997465133667
1761315627048476000,8.224475830078125,-1.0686575174331665,0.031064974144101143,1.5794081687927246
1761315627058523100,8.234523193359376,-1.1289616823196411,-0.2211398333311081,1.879083275794983
1761315627068570000,8.244570068359375,-1.1217466592788696,-0.2984021306037903,2.0563292503356934
1761315627078618000,8.2546181640625,-1.0972963571548462,-0.22046153247356415,2.1130855083465576
1761315627088665000,8.2646650390625,-1.0358798503875732,-0.05084799975156784,2.0297296047210693
1761315627098713000,8.274713134765625,-0.9208755493164062,0.1419728547334671,1.7744871377944946
1761315627108760000,8.284760009765625,-0.7700521945953369,0.22831839323043823,1.4254199266433716
1761315627118808000,8.29480810546875,-0.5922659635543823,0.2510093152523041,1.1078894138336182
1761315627128855000,8.30485498046875,-0.45771774649620056,0.32264649868011475,0.8442838191986084
1761315627138903000,8.314903076171875,-0.3515055775642395,0.27968278527259827,0.6846199035644531
1761315627148950000,8.324949951171876,-0.27321264147758484,0.16248798370361328,0.5478599071502686
1761315627158998000,8.334998046875,-0.23735688626766205,0.11103837192058563,0.4254165589809418
1761315627169045200,8.345045166015625,-0.21190986037254333,0.01161697506904602,0.2957584261894226
1761315627179093200,8.35509326171875,-0.2466670423746109,-0.09477284550666809,0.10097242146730423
1761315627189140000,8.365139892578124,-0.1697365641593933,-0.22449861466884613,-0.09161940217018127
1761315627199188000,8.37518798828125,0.13412265479564667,-0.42107054591178894,-0.308773010969162
1761315627209235200,8.385235107421876,0.5051600933074951,-0.5253468751907349,-0.5115786194801331
1761315627219283200,8.395283203125,0.8502693176269531,-0.566125750541687,-0.7011618614196777
1761315627229330200,8.405330078125,1.118962287902832,-0.6383352279663086,-0.9393376708030701
1761315627239378200,8.415378173828126,1.1795297861099243,-0.6110111474990845,-1.1725794076919556
1761315627249425200,8.425425048828124,1.0287927389144897,-0.523842990398407,-1.3313935995101929
1761315627259473200,8.43547314453125,0.7290459275245667,-0.5244467258453369,-1.4324195384979248
1761315627269520100,8.44552001953125,0.29168379306793213,-0.6687072515487671,-1.4775712490081787
1761315627279568100,8.455568115234374,-0.16676262021064758,-0.9427171945571899,-1.4827287197113037
1761315627289615000,8.465614990234375,-0.5362969636917114,-1.2924020290374756,-1.4687341451644897
1761315627299663000,8.4756630859375,-0.7373720407485962,-1.6321136951446533,-1.4659525156021118
1761315627309710000,8.4857099609375,-0.7472065687179565,-1.8295269012451172,-1.4882348775863647
1761315627319758000,8.495758056640625,-0.5729833841323853,-1.7928751707077026,-1.4626368284225464
1761315627329805000,8.50580517578125,-0.29788336157798767,-1.4886548519134521,-1.3377628326416016
1761315627339853000,8.51585302734375,-0.057678744196891785,-0.9579651355743408,-1.1078853607177734
1761315627349900000,8.525900146484375,0.025836391374468803,-0.3131163716316223,-0.7643333673477173
1761315627359947300,8.535947265625,-0.0471307598054409,0.32316821813583374,-0.27661561965942383
1761315627369995000,8.5459951171875,-0.22933146357536316,0.7755638957023621,0.29514801502227783
1761315627380042000,8.5560419921875,-0.46686679124832153,0.8844267129898071,0.8744332194328308
1761315627390090000,8.566090087890625,-0.6780394911766052,0.5384072661399841,1.4083690643310547
1761315627400137200,8.57613720703125,-0.8503923416137695,-0.12016182392835617,1.8338409662246704
1761315627410185200,8.586185302734375,-0.9644216895103455,-0.8602689504623413,2.0641391277313232
1761315627420232000,8.59623193359375,-0.9897691607475281,-1.3775674104690552,2.082390785217285
1761315627430280200,8.6062802734375,-0.9028206467628479,-1.5223419666290283,1.9431573152542114
1761315627440327200,8.6163271484375,-0.7521118521690369,-1.3396621942520142,1.7158914804458618
1761315627450375200,8.626375244140625,-0.6105283498764038,-0.9070566892623901,1.4339900016784668
1761315627460422100,8.636422119140626,-0.5284622311592102,-0.34326493740081787,1.1157289743423462
1761315627470470100,8.64647021484375,-0.5193776488304138,0.2250424325466156,0.797001302242279
1761315627480517000,8.65651708984375,-0.568233072757721,0.6566846370697021,0.5420987010002136
1761315627490565000,8.666565185546874,-0.6391893029212952,0.7553440928459167,0.3802946209907532
1761315627500612000,8.676612060546875,-0.7342188358306885,0.6247730851173401,0.2425045222043991
1761315627510660000,8.68666015625,-0.8794684410095215,0.33803290128707886,0.06975431740283966
1761315627520707000,8.69670703125,-1.0754611492156982,0.11278726905584335,-0.10866549611091614
1761315627530755000,8.706755126953125,-1.2649210691452026,0.053395844995975494,-0.15950630605220795
1761315627540802000,8.716802001953125,-1.368689775466919,0.1961364895105362,-0.05847981944680214
1761315627550850000,8.72685009765625,-1.328314185142517,0.4820217788219452,0.10390562564134598
1761315627560897000,8.73689697265625,-1.0842101573944092,0.8074563145637512,0.23589028418064117
1761315627570945000,8.746945068359375,-0.5978104472160339,0.984619677066803,0.27694079279899597
1761315627580992000,8.756991943359376,0.021864285692572594,1.0021193027496338,0.05892856419086456
1761315627591040300,8.767040283203125,0.5386261940002441,1.0246871709823608,-0.4167013466358185
1761315627601087000,8.7770869140625,0.8051226139068604,1.2377368211746216,-0.9030347466468811
1761315627611135000,8.787135009765626,0.8278579711914062,1.6131671667099,-1.218882441520691
1761315627621182200,8.79718212890625,0.7010574340820312,1.9891165494918823,-1.3224477767944336
1761315627631229200,8.807229248046875,0.5323371291160583,2.1761460304260254,-1.31455659866333
1761315627641277200,8.817277099609376,0.4565552771091461,2.1844570636749268,-1.1775249242782593
1761315627651324200,8.82732421875,0.593849241733551,1.9049021005630493,-0.8919326066970825
1761315627661372200,8.8373720703125,0.948544979095459,1.2373685836791992,-0.5901927351951599
1761315627671419100,8.847419189453126,1.3067535161972046,0.3526398241519928,-0.4620025157928467
1761315627681467100,8.857467041015624,1.5840953588485718,-0.5223998427391052,-0.7399345636367798
1761315627691514000,8.86751416015625,1.7096383571624756,-1.142967700958252,-1.3490409851074219
1761315627701562400,8.877562255859376,1.6276832818984985,-1.318013310432434,-2.1745102405548096
1761315627711607600,8.887607666015626,1.3872203826904297,-0.8920636177062988,-3.019582509994507
1761315627721655300,8.8976552734375,1.011441946029663,-0.23123854398727417,-3.6407203674316406
1761315627731702300,8.907702392578125,0.5685327053070068,0.2648431062698364,-3.879486322402954
1761315627741750300,8.917750244140626,0.18308353424072266,0.3644820749759674,-3.642793893814087
1761315627751797500,8.927797607421875,-0.026981815695762634,-0.054795339703559875,-2.9824302196502686
1761315627761845200,8.93784521484375,-0.04023370519280434,-0.7773658037185669,-2.0032835006713867
1761315627771892200,8.947892333984376,0.07597332447767258,-1.5929248332977295,-0.9363386631011963
1761315627781940500,8.9579404296875,0.2051456868648529,-2.300316333770752,-0.06946109980344772
1761315627791987500,8.967987548828125,0.2998945713043213,-2.8040175437927246,0.507928192615509
1761315627802035500,8.978035400390626,0.3341636061668396,-2.991591215133667,0.8449240922927856
1761315627812082200,8.988082275390624,0.2892419397830963,-2.6166045665740967,0.9421054720878601
1761315627822130400,8.99813037109375,0.20211341977119446,-1.6637766361236572,0.789085865020752
1761315627832177400,9.008177490234376,0.1192246600985527,-0.5269572734832764,0.5313291549682617
1761315627842225400,9.018225341796875,0.08450929075479507,0.562700092792511,0.2322995513677597
1761315627852272400,9.0282724609375,0.17837506532669067,1.2645472288131714,-0.046895869076251984
1761315627862320400,9.0383203125,0.3621382415294647,1.4443211555480957,-0.3217657804489136
1761315627872367400,9.048367431640624,0.5907295942306519,1.201772689819336,-0.579649806022644
1761315627882415400,9.058415283203125,0.7583396434783936,0.7730664014816284,-0.8146671056747437
1761315627892462300,9.06846240234375,0.7645416259765625,0.35031193494796753,-0.9030627608299255
1761315627902510300,9.07851025390625,0.6591251492500305,0.06260506063699722,-0.7488646507263184
1761315627912557300,9.088557373046875,0.5425551533699036,0.060920342803001404,-0.4145077168941498
1761315627922604300,9.098604248046875,0.4092863202095032,0.28214460611343384,-0.0341624990105629
1761315627932652300,9.10865234375,0.22101254761219025,0.560832142829895,0.26687005162239075
1761315627942699500,9.118699462890625,-0.0012170645641162992,0.7619103789329529,0.4020126760005951
1761315627952747300,9.128747314453125,-0.17470017075538635,0.8389191627502441,0.414012610912323
1761315627962794200,9.138794189453124,-0.25166019797325134,0.8265056610107422,0.3405029773712158
1761315627972842500,9.148842529296875,-0.2254325896501541,0.6904948353767395,0.22863423824310303
1761315627982889500,9.158889404296875,-0.19609467685222626,0.5834844708442688,0.1818305104970932
1761315627992937200,9.168937255859374,-0.1823844611644745,0.5627951622009277,0.20095707476139069
1761315628002984200,9.178984130859375,-0.14457476139068604,0.6163143515586853,0.2370801866054535
1761315628013032400,9.189032470703125,-0.08035795390605927,0.786781907081604,0.2525947093963623
1761315628023079400,9.199079345703124,-0.006223541218787432,0.9796387553215027,0.2751346230506897
1761315628033127400,9.20912744140625,0.06657449901103973,1.212140440940857,0.25842541456222534
1761315628043174100,9.219174072265625,0.1551658809185028,1.462015986442566,0.17576277256011963
1761315628053222400,9.229222412109374,0.22024981677532196,1.588470697402954,0.03949494659900665
1761315628063269400,9.239269287109375,0.256506085395813,1.5296616554260254,-0.08314734697341919
1761315628073317400,9.2493173828125,0.2797112762928009,1.295899510383606,-0.07206327468156815
1761315628083364400,9.2593642578125,0.3234989643096924,0.9485074281692505,0.14330469071865082
1761315628093412400,9.269412353515625,0.37945064902305603,0.5659059882164001,0.4782688319683075
1761315628103459300,9.279459228515625,0.3714960515499115,0.30541718006134033,0.6295270919799805
1761315628113507300,9.28950732421875,0.1771252453327179,0.17729967832565308,0.5157232880592346
1761315628123554600,9.299554443359375,-0.1592109650373459,0.07441084831953049,0.28308629989624023
1761315628133601500,9.3096015625,-0.5003344416618347,0.073511503636837,0.12041376531124115
1761315628143649300,9.319649169921876,-0.6873989105224609,0.19243229925632477,0.1253533959388733
1761315628153696300,9.3296962890625,-0.6014221906661987,0.2918025553226471,0.1099771037697792
1761315628163744500,9.33974462890625,-0.363459974527359,0.2296539694070816,-0.16943643987178802
1761315628173791500,9.34979150390625,-0.08367172628641129,0.20759233832359314,-0.6974970698356628
1761315628183839200,9.359839111328125,0.125767782330513,0.2255401760339737,-1.282745122909546
1761315628193886200,9.36988623046875,0.22034116089344025,0.13536527752876282,-1.7260993719100952
1761315628203934500,9.3799345703125,0.2705790400505066,-0.14333239197731018,-1.9894587993621826
1761315628213981400,9.3899814453125,0.33758628368377686,-0.5710152983665466,-2.0539157390594482
1761315628224029200,9.400029296875,0.42887040972709656,-0.9077637791633606,-1.9117405414581299
1761315628234076200,9.410076171875,0.43880027532577515,-1.0131676197052002,-1.5433050394058228
1761315628244124400,9.42012451171875,0.31587326526641846,-0.9917665123939514,-1.0367510318756104
1761315628254171400,9.43017138671875,0.13738662004470825,-1.007780909538269,-0.5698016881942749
1761315628264219400,9.440219482421876,-0.09183404594659805,-1.0858826637268066,-0.3114132881164551
1761315628274266400,9.450266357421874,-0.3324405252933502,-1.2545228004455566,-0.27962151169776917
1761315628284314400,9.460314453125,-0.5266667604446411,-1.4544817209243774,-0.41932031512260437
1761315628294361300,9.470361328125,-0.6379138827323914,-1.6520887613296509,-0.6790514588356018
1761315628304409300,9.480409423828124,-0.6257549524307251,-1.6752657890319824,-1.0407068729400635
1761315628314456600,9.49045654296875,-0.4754999577999115,-1.4737571477890015,-1.4059869050979614
1761315628324503300,9.50050341796875,-0.24120889604091644,-1.0862839221954346,-1.6255035400390625
1761315628334551300,9.51055126953125,0.04093092307448387,-0.59848552942276,-1.613660216331482
1761315628344599300,9.520599365234375,0.3208259642124176,-0.08392685651779175,-1.3405354022979736
1761315628354647300,9.530647216796876,0.49256014823913574,0.32146644592285156,-0.8483749628067017
1761315628364694300,9.5406943359375,0.5232107639312744,0.4960070848464966,-0.2563859820365906
1761315628374742300,9.5507421875,0.4743768870830536,0.42223405838012695,0.30100297927856445
1761315628384789500,9.56078955078125,0.40528756380081177,0.20562240481376648,0.7401891350746155
1761315628394837500,9.57083740234375,0.3292119801044464,-0.043480899184942245,1.0363097190856934
1761315628404884200,9.58088427734375,0.2510322332382202,-0.21809478104114532,1.1807454824447632
1761315628414932200,9.59093212890625,0.1517847329378128,-0.30488187074661255,1.2137137651443481
1761315628424979500,9.6009794921875,0.05359558388590813,-0.2998170852661133,1.190999984741211
1761315628435027500,9.61102734375,-0.015987223014235497,-0.1765958070755005,1.1185086965560913
1761315628445074400,9.621074462890626,-0.09032430499792099,0.0801619440317154,0.9838806390762329
1761315628455122200,9.6311220703125,-0.22865314781665802,0.38427042961120605,0.842585027217865
1761315628465169400,9.64116943359375,-0.39941877126693726,0.5373721122741699,0.779686450958252
1761315628475217400,9.651217529296876,-0.4754677414894104,0.6077709197998047,0.8504796624183655
1761315628485264400,9.661264404296874,-0.4879201352596283,0.6615976691246033,1.0331217050552368
1761315628495312400,9.6713125,-0.43291813135147095,0.6036496758460999,1.2492318153381348
1761315628505359400,9.681359375,-0.3674539029598236,0.4610248804092407,1.4712268114089966
1761315628515406300,9.69140625,-0.33653220534324646,0.3828025162220001,1.6164008378982544
1761315628525454300,9.701454345703125,-0.3549618124961853,0.4009527564048767,1.6580212116241455
1761315628535501300,9.711501220703125,-0.37668123841285706,0.5458090305328369,1.6044938564300537
1761315628545549300,9.72154931640625,-0.44748881459236145,0.8536557555198669,1.5128438472747803
1761315628555596300,9.73159619140625,-0.5381202101707458,1.0938047170639038,1.5151069164276123
1761315628565644300,9.741644287109375,-0.5767053961753845,1.2209818363189697,1.6617461442947388
1761315628575691500,9.75169140625,-0.48332270979881287,1.195618987083435,1.842811107635498
1761315628585739300,9.7617392578125,-0.2810894548892975,0.9310528039932251,1.8526772260665894
1761315628595786200,9.7717861328125,-0.06766372919082642,0.48492807149887085,1.5149937868118286
1761315628605834200,9.781834228515624,0.112197645008564,0.08562888205051422,0.9338310360908508
1761315628615881500,9.791881591796875,0.3151046931743622,-0.26698482036590576,0.08301099389791489
1761315628625929500,9.801929443359375,0.5291967391967773,-0.27267467975616455,-0.8085055947303772
1761315628635976200,9.81197607421875,0.6773494482040405,0.007105047348886728,-1.6240051984786987
1761315628646024400,9.8220244140625,0.7634025812149048,0.7047906517982483,-2.2302231788635254
1761315628656071400,9.832071533203125,0.8158982992172241,1.376308798789978,-2.576475143432617
1761315628666119400,9.842119384765626,0.8112185597419739,1.635926365852356,-2.763962507247925
1761315628676166400,9.85216650390625,0.7856823205947876,1.3964482545852661,-2.8593862056732178
1761315628686213400,9.86221337890625,0.7211076021194458,0.6920669078826904,-2.8171167373657227
1761315628696264400,9.872264404296875,0.6467286944389343,-0.32019132375717163,-2.540682315826416
