time,seconds_elapsed,z,y,x
1761315417257498400,0.058498291015625,-0.9003753662109375,-0.305908203125,0.0835113525390625
1761315417267546000,0.068546142578125,-0.923553466796875,-0.3031463623046875,0.08563232421875
1761315417277595400,0.078595458984375,-0.9520263671875,-0.302337646484375,0.084320068359375
1761315417287643100,0.08864306640625,-0.962493896484375,-0.3021087646484375,0.0817718505859375
1761315417297691100,0.098691162109375,-0.966552734375,-0.2937469482421875,0.0777435302734375
1761315417307739100,0.1087392578125,-0.9652252197265625,-0.28570556640625,0.07269287109375
1761315417317787100,0.118787109375,-0.957733154296875,-0.287200927734375,0.07080078125
1761315417327836200,0.128836181640625,-0.9476470947265625,-0.29339599609375,0.0805511474609375
1761315417337884200,0.13888427734375,-0.9553070068359375,-0.2967071533203125,0.0962982177734375
1761315417347932200,0.14893212890625,-0.96905517578125,-0.304718017578125,0.11895751953125
1761315417357980200,0.158980224609375,-0.9688568115234375,-0.3209075927734375,0.136993408203125
1761315417368028200,0.169028076171875,-0.957794189453125,-0.3348846435546875,0.13458251953125
1761315417378076400,0.179076416015625,-0.9384002685546875,-0.3424072265625,0.1212310791015625
1761315417388125200,0.189125244140625,-0.91363525390625,-0.345306396484375,0.1058197021484375
1761315417398173200,0.199173095703125,-0.918975830078125,-0.35992431640625,0.0964508056640625
1761315417408221200,0.20922119140625,-0.9248504638671875,-0.365081787109375,0.08428955078125
1761315417418269200,0.219269287109375,-0.927032470703125,-0.3544769287109375,0.077301025390625
1761315417428317200,0.229317138671875,-0.94647216796875,-0.3477935791015625,0.0720977783203125
1761315417438366200,0.2393662109375,-0.9449310302734375,-0.34954833984375,0.0724945068359375
1761315417448414200,0.249414306640625,-0.9293060302734375,-0.3464813232421875,0.075042724609375
1761315417458462200,0.259462158203125,-0.9147186279296875,-0.3419952392578125,0.0778350830078125
1761315417468510200,0.26951025390625,-0.8985748291015625,-0.34002685546875,0.081085205078125
1761315417478558200,0.27955810546875,-0.8835296630859375,-0.3425750732421875,0.08526611328125
1761315417488606200,0.289606201171875,-0.8855133056640625,-0.3447418212890625,0.0962982177734375
1761315417498655500,0.299655517578125,-0.9027099609375,-0.34490966796875,0.111907958984375
1761315417508703500,0.309703369140625,-0.9175262451171875,-0.344268798828125,0.11773681640625
1761315417518751700,0.319751708984375,-0.9293212890625,-0.33319091796875,0.114471435546875
1761315417528799500,0.329799560546875,-0.9097137451171875,-0.350128173828125,0.1109161376953125
1761315417538847500,0.339847412109375,-0.89630126953125,-0.3647613525390625,0.111572265625
1761315417548896500,0.349896484375,-0.9105072021484375,-0.3637237548828125,0.1113433837890625
1761315417558944500,0.359944580078125,-0.9229736328125,-0.3679351806640625,0.11614990234375
1761315417568992500,0.369992431640625,-0.9286956787109375,-0.39105224609375,0.117950439453125
1761315417579040500,0.38004052734375,-0.9320831298828125,-0.41033935546875,0.1122894287109375
1761315417589088500,0.390088623046875,-0.9279022216796875,-0.419586181640625,0.0984649658203125
1761315417599137500,0.400137451171875,-0.91619873046875,-0.4274749755859375,0.078094482421875
1761315417609185500,0.410185546875,-0.904998779296875,-0.4297332763671875,0.056793212890625
1761315417619233500,0.420233642578125,-0.90350341796875,-0.435546875,0.037261962890625
1761315417629281500,0.430281494140625,-0.9119720458984375,-0.443389892578125,0.028594970703125
1761315417639329500,0.44032958984375,-0.9149932861328125,-0.445831298828125,0.020263671875
1761315417649377500,0.45037744140625,-0.9074859619140625,-0.4429168701171875,0.007843017578125
1761315417659426600,0.460426513671875,-0.89593505859375,-0.435546875,-0.0023040771484375
1761315417669474600,0.470474609375,-0.8997955322265625,-0.423492431640625,-0.0057830810546875
1761315417679522600,0.4805224609375,-0.9144439697265625,-0.4091949462890625,0.00469970703125
1761315417689570300,0.4905703125,-0.9037933349609375,-0.3966064453125,0.022064208984375
1761315417699618600,0.50061865234375,-0.883514404296875,-0.3914642333984375,0.0434112548828125
1761315417709666600,0.51066650390625,-0.861846923828125,-0.3908233642578125,0.0637054443359375
1761315417719715600,0.520715576171875,-0.831787109375,-0.388916015625,0.08038330078125
1761315417729763600,0.530763671875,-0.786956787109375,-0.3836517333984375,0.098968505859375
1761315417739811300,0.540811279296875,-0.8043060302734375,-0.386688232421875,0.1462249755859375
1761315417749859600,0.550859619140625,-0.938018798828125,-0.4187469482421875,0.228607177734375
1761315417759907600,0.560907470703125,-1.0283660888671875,-0.446197509765625,0.2463531494140625
1761315417769956600,0.57095654296875,-0.986083984375,-0.4079742431640625,0.2202301025390625
1761315417780004600,0.581004638671875,-0.9208984375,-0.35858154296875,0.18463134765625
1761315417790052400,0.59105224609375,-0.886322021484375,-0.342254638671875,0.155364990234375
1761315417800100600,0.6011005859375,-0.84600830078125,-0.349212646484375,0.138153076171875
1761315417810148400,0.6111484375,-0.8264007568359375,-0.354339599609375,0.1347808837890625
1761315417820196600,0.621196533203125,-0.831085205078125,-0.3548431396484375,0.1370086669921875
1761315417830245400,0.631245361328125,-0.8364105224609375,-0.3693695068359375,0.14410400390625
1761315417840293600,0.641293701171875,-0.8295745849609375,-0.3936767578125,0.1484222412109375
1761315417850341600,0.651341552734375,-0.82940673828125,-0.4098052978515625,0.151275634765625
1761315417860389400,0.661389404296875,-0.8614654541015625,-0.4244384765625,0.172119140625
1761315417870437600,0.671437744140625,-0.870849609375,-0.4366455078125,0.1812744140625
1761315417880485600,0.681485595703125,-0.89984130859375,-0.4403533935546875,0.1612701416015625
1761315417890534700,0.69153466796875,-0.916168212890625,-0.4356689453125,0.1571502685546875
1761315417900582700,0.701582763671875,-0.8929901123046875,-0.409759521484375,0.15142822265625
1761315417910630400,0.71163037109375,-0.88140869140625,-0.3911895751953125,0.145843505859375
1761315417920678700,0.7216787109375,-0.8845977783203125,-0.3867034912109375,0.155853271484375
1761315417930726700,0.7317265625,-0.822906494140625,-0.39654541015625,0.226806640625
1761315417940774400,0.7417744140625,-0.8640289306640625,-0.398681640625,0.14251708984375
1761315417950823400,0.751823486328125,-0.904144287109375,-0.4126434326171875,0.127593994140625
1761315417960871400,0.761871337890625,-0.9375,-0.4849853515625,0.2249755859375
1761315417970919700,0.771919677734375,-0.93487548828125,-0.5142059326171875,0.2644195556640625
1761315417980967400,0.781967529296875,-0.85089111328125,-0.4901123046875,0.212646484375
1761315417991015400,0.792015380859375,-0.8465118408203125,-0.4987640380859375,0.13427734375
1761315418001063700,0.802063720703125,-0.84210205078125,-0.4690704345703125,0.0747528076171875
1761315418011112400,0.812112548828125,-0.8451385498046875,-0.441131591796875,0.043914794921875
1761315418021160700,0.82216064453125,-0.8538970947265625,-0.4197998046875,0.0427703857421875
1761315418031208400,0.83220849609375,-0.9391326904296875,-0.3970184326171875,0.04052734375
1761315418041256400,0.84225634765625,-0.96624755859375,-0.354217529296875,0.0454254150390625
1761315418051304700,0.8523046875,-0.971343994140625,-0.3093414306640625,0.0644989013671875
1761315418061352400,0.8623525390625,-0.9877166748046875,-0.3098602294921875,0.067718505859375
1761315418071401500,0.8724013671875,-0.963958740234375,-0.3246307373046875,0.05926513671875
1761315418081449500,0.882449462890625,-0.9579925537109375,-0.2828216552734375,0.0347442626953125
1761315418091497500,0.89249755859375,-0.9432830810546875,-0.312042236328125,0.0361480712890625
1761315418101545500,0.90254541015625,-0.94952392578125,-0.3442535400390625,0.046142578125
1761315418111593500,0.912593505859375,-0.974609375,-0.3314666748046875,0.0587615966796875
1761315418121641700,0.922641845703125,-0.9813690185546875,-0.3099517822265625,0.0623016357421875
1761315418131690500,0.9326904296875,-0.9682159423828125,-0.31640625,0.05548095703125
1761315418141738500,0.942738525390625,-0.95831298828125,-0.3272247314453125,0.0345306396484375
1761315418151786500,0.952786376953125,-0.956329345703125,-0.32293701171875,0.0059814453125
1761315418161834500,0.96283447265625,-0.9542388916015625,-0.3114471435546875,-0.0185699462890625
1761315418171882800,0.9728828125,-0.9554901123046875,-0.2990570068359375,-0.037384033203125
1761315418181930500,0.982930419921875,-0.944580078125,-0.282470703125,-0.052490234375
1761315418191979500,0.9929794921875,-0.940185546875,-0.2704010009765625,-0.0587158203125
1761315418202027500,1.003027587890625,-0.9465179443359375,-0.264801025390625,-0.0652618408203125
1761315418212075500,1.013075439453125,-0.9408111572265625,-0.270050048828125,-0.07061767578125
1761315418222123500,1.02312353515625,-0.932037353515625,-0.2769622802734375,-0.0661468505859375
1761315418232171500,1.033171630859375,-0.92657470703125,-0.286468505859375,-0.0544891357421875
1761315418242219500,1.043219482421875,-0.926361083984375,-0.2992706298828125,-0.03466796875
1761315418252268500,1.0532685546875,-0.9339141845703125,-0.3125,-0.01287841796875
1761315418262316500,1.063316650390625,-0.9293365478515625,-0.3243865966796875,0.00360107421875
1761315418272364500,1.073364501953125,-0.929412841796875,-0.3355255126953125,0.01007080078125
1761315418282412500,1.08341259765625,-0.9330596923828125,-0.3459625244140625,0.0121612548828125
1761315418292460500,1.09346044921875,-0.9397430419921875,-0.3505096435546875,0.008636474609375
1761315418302508500,1.103508544921875,-0.940948486328125,-0.3503570556640625,0.003936767578125
1761315418312557600,1.1135576171875,-0.936767578125,-0.346343994140625,-0.006134033203125
1761315418322605600,1.12360546875,-0.939422607421875,-0.343475341796875,-0.0164337158203125
1761315418332653600,1.133653564453125,-0.9304351806640625,-0.344818115234375,-0.0186920166015625
1761315418342701300,1.143701416015625,-0.92303466796875,-0.348907470703125,-0.014495849609375
1761315418352749600,1.15374951171875,-0.9152984619140625,-0.352569580078125,-0.0097198486328125
1761315418362797600,1.163797607421875,-0.9078521728515625,-0.3664398193359375,0.0018463134765625
1761315418372846600,1.1738466796875,-0.8959808349609375,-0.3831634521484375,0.02374267578125
1761315418382894600,1.18389453125,-0.8860321044921875,-0.3952484130859375,0.04315185546875
1761315418392942300,1.1939423828125,-0.8814849853515625,-0.4051055908203125,0.05853271484375
1761315418402990600,1.203990478515625,-0.8927154541015625,-0.4138031005859375,0.0661468505859375
1761315418413038600,1.21403857421875,-0.8955535888671875,-0.4163818359375,0.060791015625
1761315418423086600,1.224086669921875,-0.872894287109375,-0.410247802734375,0.053466796875
1761315418433135600,1.234135498046875,-0.8649139404296875,-0.4106597900390625,0.050445556640625
1761315418443183400,1.244183349609375,-0.8675384521484375,-0.4220428466796875,0.0528717041015625
1761315418453231600,1.254231689453125,-0.8631439208984375,-0.4325408935546875,0.056671142578125
1761315418463279400,1.264279296875,-0.863128662109375,-0.4371795654296875,0.0578460693359375
1761315418473327600,1.27432763671875,-0.87237548828125,-0.439727783203125,0.057586669921875
1761315418483375600,1.284375732421875,-0.858306884765625,-0.435272216796875,0.0494384765625
1761315418493423400,1.29442333984375,-0.8478546142578125,-0.42889404296875,0.042633056640625
1761315418503472400,1.304472412109375,-0.8572845458984375,-0.4300079345703125,0.043731689453125
1761315418513520400,1.314520263671875,-0.8608551025390625,-0.4375457763671875,0.04931640625
1761315418523568400,1.324568359375,-0.8521575927734375,-0.43585205078125,0.0531768798828125
1761315418533616400,1.334616455078125,-0.8602294921875,-0.426361083984375,0.05291748046875
1761315418543664400,1.344664306640625,-0.886077880859375,-0.416351318359375,0.046722412109375
1761315418553712400,1.35471240234375,-0.8757781982421875,-0.4084320068359375,0.03973388671875
1761315418563761400,1.364761474609375,-0.880340576171875,-0.4001617431640625,0.03631591796875
1761315418573809400,1.374809326171875,-0.90234375,-0.3987274169921875,0.03680419921875
1761315418583857400,1.384857421875,-0.9212799072265625,-0.4046173095703125,0.035552978515625
1761315418593905400,1.394905517578125,-0.9225921630859375,-0.3988037109375,0.0296630859375
1761315418603953400,1.404953369140625,-0.9109954833984375,-0.3905792236328125,0.0237274169921875
1761315418614001400,1.41500146484375,-0.9076995849609375,-0.389404296875,0.0229644775390625
1761315418624050400,1.425050537109375,-0.915863037109375,-0.39666748046875,0.0232391357421875
1761315418634098200,1.43509814453125,-0.9307708740234375,-0.4028167724609375,0.0250701904296875
1761315418644146400,1.445146484375,-0.9574127197265625,-0.39483642578125,0.031585693359375
1761315418654194400,1.4551943359375,-0.993865966796875,-0.382904052734375,0.0425262451171875
1761315418664242400,1.465242431640625,-1.0257568359375,-0.371063232421875,0.0492706298828125
1761315418674290400,1.47529052734375,-1.0288238525390625,-0.3581695556640625,0.058990478515625
1761315418684338400,1.48533837890625,-1.0224151611328125,-0.34765625,0.074005126953125
1761315418694387500,1.495387451171875,-1.003570556640625,-0.34649658203125,0.09893798828125
1761315418704435500,1.505435546875,-1.00518798828125,-0.3626556396484375,0.131134033203125
1761315418714483500,1.5154833984375,-1.027862548828125,-0.362274169921875,0.156646728515625
1761315418724531500,1.525531494140625,-1.0444183349609375,-0.342742919921875,0.170623779296875
1761315418734579200,1.5355791015625,-1.0273284912109375,-0.341033935546875,0.18695068359375
1761315418744627500,1.54562744140625,-1.012176513671875,-0.35235595703125,0.2004241943359375
1761315418754676200,1.55567626953125,-1.0115814208984375,-0.3487396240234375,0.2041015625
1761315418764724500,1.565724365234375,-0.9994049072265625,-0.332611083984375,0.19720458984375
1761315418774772500,1.5757724609375,-0.9715423583984375,-0.324554443359375,0.1910858154296875
1761315418784820200,1.5858203125,-0.94757080078125,-0.3317718505859375,0.189239501953125
1761315418794868500,1.595868408203125,-0.92742919921875,-0.338134765625,0.1891326904296875
1761315418804916500,1.60591650390625,-0.91375732421875,-0.334686279296875,0.1812591552734375
1761315418814964200,1.615964111328125,-0.878814697265625,-0.332550048828125,0.17535400390625
1761315418825013500,1.626013427734375,-0.8608856201171875,-0.33172607421875,0.1728363037109375
1761315418835061200,1.636061279296875,-0.8769683837890625,-0.33819580078125,0.1711578369140625
1761315418845109500,1.646109619140625,-0.8576812744140625,-0.3529815673828125,0.16424560546875
1761315418855157200,1.6561572265625,-0.8304290771484375,-0.3618011474609375,0.1497650146484375
1761315418865205500,1.66620556640625,-0.832763671875,-0.3594970703125,0.132354736328125
1761315418875253500,1.67625341796875,-0.8323822021484375,-0.3557586669921875,0.1164398193359375
1761315418885302300,1.68630224609375,-0.8222198486328125,-0.3573760986328125,0.101531982421875
1761315418895350500,1.6963505859375,-0.8012237548828125,-0.3574371337890625,0.0936431884765625
1761315418905398300,1.706398193359375,-0.8066253662109375,-0.3567352294921875,0.0855255126953125
1761315418915446500,1.716446533203125,-0.8280487060546875,-0.358917236328125,0.084716796875
1761315418925494500,1.72649462890625,-0.8289337158203125,-0.361175537109375,0.0805816650390625
1761315418935542300,1.736542236328125,-0.814300537109375,-0.362030029296875,0.078704833984375
1761315418945590500,1.746590576171875,-0.79058837890625,-0.3590087890625,0.079833984375
1761315418955639300,1.756639404296875,-0.784912109375,-0.3580169677734375,0.084716796875
1761315418965687600,1.7666875,-0.8017120361328125,-0.3740997314453125,0.09539794921875
1761315418975735600,1.776735595703125,-0.816497802734375,-0.3915557861328125,0.1056365966796875
1761315418985783300,1.786783203125,-0.821075439453125,-0.3966522216796875,0.1110382080078125
1761315418995831600,1.79683154296875,-0.83258056640625,-0.3936614990234375,0.121429443359375
1761315419005879300,1.80687939453125,-0.848724365234375,-0.3945159912109375,0.1356658935546875
1761315419015928600,1.816928466796875,-0.86395263671875,-0.401611328125,0.1528472900390625
1761315419025976300,1.826976318359375,-0.8907928466796875,-0.4062347412109375,0.167999267578125
1761315419036024300,1.8370244140625,-0.92889404296875,-0.4023895263671875,0.176025390625
1761315419046072600,1.847072509765625,-0.9658203125,-0.3944854736328125,0.17474365234375
1761315419056120300,1.857120361328125,-0.989471435546875,-0.3919525146484375,0.1672821044921875
1761315419066168300,1.867168212890625,-1.0016632080078125,-0.3972320556640625,0.156768798828125
1761315419076216600,1.877216552734375,-1.00628662109375,-0.3971405029296875,0.1432037353515625
1761315419086265300,1.887265380859375,-1.0066070556640625,-0.3855743408203125,0.1280975341796875
1761315419096313600,1.897313720703125,-0.992095947265625,-0.3735809326171875,0.1091766357421875
1761315419106361300,1.907361328125,-0.9717864990234375,-0.372039794921875,0.0921173095703125
1761315419116409300,1.917409423828125,-0.96221923828125,-0.378875732421875,0.0656280517578125
1761315419126457300,1.927457275390625,-0.9455718994140625,-0.37335205078125,0.0345611572265625
1761315419136505300,1.93750537109375,-0.90777587890625,-0.3603668212890625,0.0102691650390625
1761315419146553600,1.9475537109375,-0.8721160888671875,-0.362030029296875,0.0031280517578125
1761315419156602400,1.957602294921875,-0.850982666015625,-0.3748931884765625,0.016510009765625
1761315419166650400,1.967650390625,-0.8413238525390625,-0.3941192626953125,0.049530029296875
1761315419176698400,1.977698486328125,-0.83709716796875,-0.412109375,0.089263916015625
1761315419186746400,1.987746337890625,-0.8252105712890625,-0.4183807373046875,0.110107421875
1761315419196794600,1.997794677734375,-0.8069305419921875,-0.4102020263671875,0.1236114501953125
1761315419206842400,2.00784228515625,-0.7966156005859375,-0.4011383056640625,0.1378326416015625
1761315419216890400,2.017890380859375,-0.79644775390625,-0.4018402099609375,0.147979736328125
1761315419226939400,2.027939453125,-0.7965240478515625,-0.4045257568359375,0.155975341796875
1761315419236987400,2.0379873046875,-0.80963134765625,-0.4088592529296875,0.160675048828125
1761315419247035400,2.048035400390625,-0.820892333984375,-0.4207611083984375,0.1628570556640625
1761315419257083400,2.05808349609375,-0.82330322265625,-0.4258575439453125,0.159698486328125
1761315419267131400,2.06813134765625,-0.8226165771484375,-0.425506591796875,0.1553192138671875
1761315419277179400,2.078179443359375,-0.8274993896484375,-0.4255828857421875,0.1519927978515625
1761315419287227400,2.088227294921875,-0.8383941650390625,-0.4295806884765625,0.1500701904296875
1761315419297276400,2.0982763671875,-0.85211181640625,-0.4363861083984375,0.148956298828125
1761315419307324400,2.108324462890625,-0.8609466552734375,-0.441558837890625,0.1488800048828125
1761315419317372400,2.118372314453125,-0.8678741455078125,-0.4442901611328125,0.1436767578125
1761315419327420400,2.12842041015625,-0.880035400390625,-0.4425048828125,0.128997802734375
1761315419337468400,2.138468505859375,-0.8916168212890625,-0.4374542236328125,0.1084136962890625
1761315419347516400,2.148516357421875,-0.898284912109375,-0.433258056640625,0.0899810791015625
1761315419357564400,2.158564453125,-0.901214599609375,-0.426055908203125,0.0713653564453125
1761315419367613400,2.168613525390625,-0.91290283203125,-0.4205474853515625,0.0585784912109375
1761315419377661400,2.178661376953125,-0.9327392578125,-0.415802001953125,0.0526275634765625
1761315419387709400,2.18870947265625,-0.9596405029296875,-0.408966064453125,0.0468292236328125
1761315419397757200,2.198757080078125,-0.9831390380859375,-0.4026947021484375,0.03802490234375
1761315419407805400,2.208805419921875,-0.99456787109375,-0.3979034423828125,0.029083251953125
1761315419417853400,2.218853515625,-1.004150390625,-0.3940582275390625,0.01837158203125
1761315419427901400,2.2289013671875,-1.016143798828125,-0.390472412109375,0.0072479248046875
1761315419437950500,2.238950439453125,-1.0219268798828125,-0.3885650634765625,-0.001220703125
1761315419447998500,2.24899853515625,-1.01654052734375,-0.3883819580078125,-0.0086517333984375
1761315419458046500,2.25904638671875,-1.0042266845703125,-0.3882598876953125,-0.017913818359375
1761315419468094500,2.269094482421875,-0.9844207763671875,-0.395294189453125,-0.017791748046875
1761315419478142500,2.279142578125,-0.963104248046875,-0.42083740234375,-0.006134033203125
1761315419488190500,2.2891904296875,-0.9492034912109375,-0.452362060546875,0.010894775390625
1761315419498238700,2.29923876953125,-0.9520263671875,-0.459930419921875,0.01885986328125
1761315419508287700,2.309287841796875,-0.9474334716796875,-0.45452880859375,0.0175933837890625
1761315419518335700,2.319335693359375,-0.9256591796875,-0.4685211181640625,0.022308349609375
1761315419528383700,2.3293837890625,-0.9113922119140625,-0.481658935546875,0.0273284912109375
1761315419538432000,2.339431884765625,-0.9100799560546875,-0.470794677734375,0.0271759033203125
1761315419548479700,2.349479736328125,-0.9082489013671875,-0.4486236572265625,0.0241546630859375
1761315419558527700,2.35952783203125,-0.8948516845703125,-0.435638427734375,0.02593994140625
1761315419568575700,2.36957568359375,-0.8864898681640625,-0.4329376220703125,0.030242919921875
1761315419578624800,2.379624755859375,-0.87744140625,-0.430694580078125,0.031280517578125
1761315419588672800,2.3896728515625,-0.8712310791015625,-0.4164581298828125,0.0275726318359375
1761315419598720800,2.399720703125,-0.8688812255859375,-0.396575927734375,0.0251617431640625
1761315419608768800,2.409768798828125,-0.865875244140625,-0.3851318359375,0.02764892578125
1761315419618816800,2.419816650390625,-0.8631744384765625,-0.385406494140625,0.034393310546875
1761315419628864800,2.42986474609375,-0.86859130859375,-0.38653564453125,0.0431060791015625
1761315419638912800,2.439912841796875,-0.8754119873046875,-0.386871337890625,0.0488433837890625
1761315419648961800,2.4499619140625,-0.878173828125,-0.3903350830078125,0.0483856201171875
1761315419659009800,2.460009765625,-0.8838043212890625,-0.393341064453125,0.038787841796875
1761315419669057800,2.470057861328125,-0.88897705078125,-0.3848876953125,0.0199127197265625
1761315419679105800,2.480105712890625,-0.890167236328125,-0.3703765869140625,-0.0060577392578125
1761315419689153800,2.49015380859375,-0.8833160400390625,-0.3587799072265625,-0.0315093994140625
1761315419699201800,2.500201904296875,-0.8832855224609375,-0.34710693359375,-0.052459716796875
1761315419709249800,2.510249755859375,-0.881927490234375,-0.337188720703125,-0.0670318603515625
1761315419719297800,2.5202978515625,-0.87628173828125,-0.3358306884765625,-0.0697174072265625
1761315419729346800,2.530346923828125,-0.8634796142578125,-0.3387451171875,-0.06719970703125
1761315419739394600,2.54039453125,-0.8549346923828125,-0.346466064453125,-0.058319091796875
1761315419749442800,2.55044287109375,-0.85430908203125,-0.3642578125,-0.0423126220703125
1761315419759490800,2.56049072265625,-0.8519439697265625,-0.3871307373046875,-0.0269927978515625
1761315419769538800,2.570538818359375,-0.845062255859375,-0.406402587890625,-0.0179290771484375
1761315419779586800,2.5805869140625,-0.843109130859375,-0.420318603515625,-0.0154876708984375
1761315419789634800,2.590634765625,-0.8492431640625,-0.430633544921875,-0.0184173583984375
1761315419799683800,2.600683837890625,-0.8518524169921875,-0.434112548828125,-0.0324859619140625
1761315419809731800,2.61073193359375,-0.852386474609375,-0.42303466796875,-0.0553131103515625
1761315419819779800,2.62077978515625,-0.8629608154296875,-0.40460205078125,-0.0752105712890625
1761315419829827800,2.630827880859375,-0.8731231689453125,-0.387542724609375,-0.090972900390625
1761315419839875600,2.64087548828125,-0.8700103759765625,-0.3809814453125,-0.0925750732421875
1761315419849923800,2.650923828125,-0.8728790283203125,-0.374176025390625,-0.08209228515625
1761315419859971800,2.660971923828125,-0.8798980712890625,-0.3715667724609375,-0.062286376953125
1761315419870019600,2.67101953125,-0.8749847412109375,-0.38177490234375,-0.0351715087890625
1761315419880068900,2.68106884765625,-0.8621826171875,-0.3939208984375,-0.0074462890625
1761315419890116600,2.69111669921875,-0.8435516357421875,-0.4012451171875,0.01611328125
1761315419900164900,2.701164794921875,-0.82550048828125,-0.401153564453125,0.0363311767578125
1761315419910212900,2.711212890625,-0.8157806396484375,-0.406585693359375,0.0530242919921875
1761315419920260600,2.721260498046875,-0.81707763671875,-0.4180450439453125,0.0669403076171875
1761315419930308900,2.731308837890625,-0.832183837890625,-0.4300689697265625,0.0770263671875
1761315419940356600,2.741356689453125,-0.842529296875,-0.434906005859375,0.08575439453125
1761315419950404900,2.75140478515625,-0.8492584228515625,-0.43536376953125,0.093353271484375
1761315419960453600,2.76145361328125,-0.8579864501953125,-0.43707275390625,0.093475341796875
1761315419970502000,2.771501953125,-0.867950439453125,-0.4417724609375,0.0914306640625
1761315419980550000,2.7815498046875,-0.8787384033203125,-0.4430694580078125,0.08587646484375
1761315419990597600,2.79159765625,-0.884521484375,-0.4370880126953125,0.0798187255859375
1761315420000646000,2.80164599609375,-0.885223388671875,-0.432464599609375,0.0740203857421875
1761315420010694000,2.81169384765625,-0.8915252685546875,-0.4274444580078125,0.074127197265625
1761315420020741600,2.82174169921875,-0.900054931640625,-0.4214324951171875,0.08038330078125
1761315420030791000,2.831791015625,-0.908355712890625,-0.4129180908203125,0.0848541259765625
1761315420040838700,2.841838623046875,-0.92279052734375,-0.403106689453125,0.0853729248046875
1761315420050887000,2.851886962890625,-0.9243316650390625,-0.395294189453125,0.0868377685546875
1761315420060934700,2.8619345703125,-0.9287567138671875,-0.3878021240234375,0.087432861328125
1761315420070982700,2.871982666015625,-0.942626953125,-0.383697509765625,0.0839385986328125
1761315420081031000,2.882031005859375,-0.9527740478515625,-0.37799072265625,0.078887939453125
1761315420091078700,2.89207861328125,-0.95843505859375,-0.370635986328125,0.0733184814453125
1761315420101126700,2.902126708984375,-0.968414306640625,-0.3642730712890625,0.0674591064453125
1761315420111175700,2.91217578125,-0.9878692626953125,-0.356231689453125,0.0643310546875
1761315420121223700,2.9222236328125,-1.009490966796875,-0.3523406982421875,0.0589447021484375
1761315420131272000,2.93227197265625,-1.0202789306640625,-0.348114013671875,0.054931640625
1761315420141319700,2.942319580078125,-1.0244293212890625,-0.341888427734375,0.056396484375
1761315420151367700,2.95236767578125,-1.03363037109375,-0.3365631103515625,0.060455322265625
1761315420161416000,2.962416015625,-1.0481719970703125,-0.333343505859375,0.0629119873046875
1761315420171463700,2.972463623046875,-1.0511627197265625,-0.33575439453125,0.065399169921875
1761315420181512000,2.982511962890625,-1.0477142333984375,-0.3444061279296875,0.066497802734375
1761315420191559700,2.9925595703125,-1.0335845947265625,-0.363739013671875,0.0736846923828125
1761315420201609000,3.00260888671875,-1.0247955322265625,-0.39288330078125,0.092041015625
1761315420211656700,3.01265673828125,-1.054534912109375,-0.398040771484375,0.0982208251953125
1761315420221704700,3.02270458984375,-1.067474365234375,-0.3827667236328125,0.0884552001953125
1761315420231753000,3.0327529296875,-1.040283203125,-0.37994384765625,0.0682373046875
1761315420241800700,3.04280078125,-1.019500732421875,-0.38702392578125,0.0565643310546875
1761315420251848700,3.0528486328125,-1.0171661376953125,-0.3907928466796875,0.05340576171875
1761315420261897000,3.06289697265625,-1.0133056640625,-0.3918914794921875,0.0521392822265625
1761315420271944700,3.07294482421875,-1.0035858154296875,-0.38995361328125,0.05389404296875
1761315420281994000,3.082993896484375,-0.986602783203125,-0.3873748779296875,0.054290771484375
1761315420292041700,3.093041748046875,-0.96923828125,-0.380462646484375,0.04730224609375
1761315420302089700,3.10308984375,-0.950408935546875,-0.369384765625,0.0383453369140625
1761315420312137700,3.1131376953125,-0.92974853515625,-0.3576202392578125,0.02899169921875
1761315420322185700,3.123185791015625,-0.9083404541015625,-0.347747802734375,0.0218963623046875
1761315420332233700,3.133233642578125,-0.881256103515625,-0.3431243896484375,0.017669677734375
1761315420342281700,3.14328173828125,-0.8598175048828125,-0.3402099609375,0.0182342529296875
1761315420352329700,3.153329833984375,-0.838287353515625,-0.3331451416015625,0.0189056396484375
1761315420362378800,3.163378662109375,-0.8164825439453125,-0.326812744140625,0.02008056640625
1761315420372426800,3.1734267578125,-0.7945709228515625,-0.328125,0.018798828125
1761315420382475000,3.18347509765625,-0.774078369140625,-0.327911376953125,0.0116424560546875
1761315420392522800,3.193522705078125,-0.76177978515625,-0.3271484375,0.00494384765625
1761315420402570800,3.20357080078125,-0.760528564453125,-0.324981689453125,0.0007476806640625
1761315420412618800,3.21361865234375,-0.7545013427734375,-0.3160858154296875,-0.004547119140625
1761315420422666800,3.223666748046875,-0.7434844970703125,-0.302978515625,-0.0081024169921875
1761315420432714800,3.23371484375,-0.729095458984375,-0.2940673828125,-0.00347900390625
1761315420442762800,3.2437626953125,-0.716888427734375,-0.29852294921875,0.0074462890625
1761315420452811800,3.253811767578125,-0.710205078125,-0.3192291259765625,0.0197296142578125
1761315420462859800,3.26385986328125,-0.7164306640625,-0.3608856201171875,0.031158447265625
1761315420472907800,3.27390771484375,-0.7315521240234375,-0.41217041015625,0.040313720703125
1761315420482955800,3.283955810546875,-0.7457733154296875,-0.44329833984375,0.041748046875
1761315420493003800,3.294003662109375,-0.7528839111328125,-0.4459686279296875,0.0411834716796875
1761315420503051800,3.3040517578125,-0.7744293212890625,-0.4371795654296875,0.0426025390625
1761315420513099800,3.314099853515625,-0.8036956787109375,-0.4346466064453125,0.0513916015625
1761315420523147500,3.3241474609375,-0.841796875,-0.4393310546875,0.0619964599609375
1761315420533196800,3.33419677734375,-0.8892059326171875,-0.4341888427734375,0.060028076171875
1761315420543244500,3.34424462890625,-0.9464874267578125,-0.414215087890625,0.0462799072265625
1761315420553292800,3.354292724609375,-1.0035552978515625,-0.3862457275390625,0.0207977294921875
1761315420563340500,3.364340576171875,-1.0489654541015625,-0.3628387451171875,-0.001495361328125
1761315420573388500,3.374388427734375,-1.0848846435546875,-0.345611572265625,-0.0207366943359375
1761315420583436800,3.384436767578125,-1.1226348876953125,-0.32171630859375,-0.0443878173828125
1761315420593484500,3.394484619140625,-1.1450653076171875,-0.288421630859375,-0.0711822509765625
1761315420603532500,3.404532470703125,-1.1390533447265625,-0.25628662109375,-0.092742919921875
1761315420613580800,3.414580810546875,-1.11920166015625,-0.2346649169921875,-0.1017303466796875
1761315420623629600,3.424629638671875,-1.0924835205078125,-0.2230224609375,-0.09832763671875
1761315420633677800,3.434677734375,-1.0591278076171875,-0.2183380126953125,-0.07952880859375
1761315420643725600,3.4447255859375,-1.01763916015625,-0.22637939453125,-0.04840087890625
1761315420653773600,3.454773681640625,-0.984405517578125,-0.2425537109375,-0.013031005859375
1761315420663821800,3.46482177734375,-0.949615478515625,-0.258575439453125,0.0191497802734375
1761315420673869600,3.47486962890625,-0.9074859619140625,-0.27178955078125,0.0426025390625
1761315420683917800,3.484917724609375,-0.865570068359375,-0.2863616943359375,0.06280517578125
1761315420693965600,3.494965576171875,-0.8343963623046875,-0.30267333984375,0.0814666748046875
1761315420704013600,3.505013671875,-0.813079833984375,-0.319000244140625,0.0932769775390625
1761315420714062600,3.5150625,-0.795166015625,-0.32867431640625,0.0971832275390625
1761315420724110600,3.525110595703125,-0.787017822265625,-0.33282470703125,0.1042327880859375
1761315420734158800,3.535158935546875,-0.7912139892578125,-0.3465423583984375,0.115325927734375
1761315420744206600,3.54520654296875,-0.7971038818359375,-0.362945556640625,0.1172637939453125
1761315420754254600,3.555254638671875,-0.811920166015625,-0.3700408935546875,0.111480712890625
1761315420764302800,3.565302734375,-0.8267364501953125,-0.368560791015625,0.10968017578125
1761315420774350600,3.5753505859375,-0.839935302734375,-0.3736419677734375,0.10931396484375
1761315420784398600,3.585398681640625,-0.8688507080078125,-0.3819580078125,0.112335205078125
1761315420794446600,3.595446533203125,-0.89947509765625,-0.389129638671875,0.1150360107421875
1761315420804495600,3.60549560546875,-0.9294891357421875,-0.3912353515625,0.11431884765625
1761315420814543600,3.615543701171875,-0.9580078125,-0.3851470947265625,0.10638427734375
1761315420824591600,3.625591552734375,-0.9818267822265625,-0.3742523193359375,0.09698486328125
1761315420834639600,3.6356396484375,-1.0048675537109375,-0.368621826171875,0.086578369140625
1761315420844687600,3.6456875,-1.0302276611328125,-0.369110107421875,0.0760040283203125
1761315420854735600,3.655735595703125,-1.051971435546875,-0.364898681640625,0.060577392578125
1761315420864784000,3.665783935546875,-1.070953369140625,-0.3579254150390625,0.0489654541015625
1761315420874831600,3.67583154296875,-1.0882110595703125,-0.3571624755859375,0.037750244140625
1761315420884879600,3.685879638671875,-1.0932464599609375,-0.364288330078125,0.022705078125
1761315420894927600,3.695927734375,-1.092376708984375,-0.3672027587890625,0.0094146728515625
1761315420904976600,3.7059765625,-1.087615966796875,-0.3646087646484375,-0.0040435791015625
1761315420915024600,3.716024658203125,-1.071136474609375,-0.366119384765625,-0.0128631591796875
1761315420925072600,3.72607275390625,-1.0584259033203125,-0.3777923583984375,-0.0146636962890625
1761315420935120600,3.73612060546875,-1.04052734375,-0.4012298583984375,-0.006683349609375
1761315420945168600,3.746168701171875,-1.0279998779296875,-0.4289398193359375,0.0016021728515625
1761315420955216600,3.756216552734375,-1.028961181640625,-0.436737060546875,-0.00372314453125
1761315420965264600,3.7662646484375,-1.0284576416015625,-0.4268951416015625,-0.0203704833984375
1761315420975312600,3.776312744140625,-1.0150909423828125,-0.421356201171875,-0.033782958984375
1761315420985360600,3.786360595703125,-1.0005950927734375,-0.4210662841796875,-0.03961181640625
1761315420995409700,3.79640966796875,-0.9975738525390625,-0.4119720458984375,-0.0399932861328125
1761315421005457700,3.806457763671875,-0.9953765869140625,-0.3915863037109375,-0.038482666015625
1761315421015505700,3.816505615234375,-0.98272705078125,-0.3685760498046875,-0.036376953125
1761315421025553700,3.8265537109375,-0.957000732421875,-0.3526611328125,-0.02703857421875
1761315421035601700,3.8366015625,-0.9307098388671875,-0.347991943359375,-0.01116943359375
1761315421045649700,3.846649658203125,-0.9103851318359375,-0.34661865234375,0.005157470703125
1761315421055697700,3.85669775390625,-0.8925628662109375,-0.3472900390625,0.0181732177734375
1761315421065745700,3.86674560546875,-0.871734619140625,-0.3505706787109375,0.030181884765625
1761315421075793700,3.876793701171875,-0.8595733642578125,-0.3529815673828125,0.037200927734375
1761315421085841700,3.886841552734375,-0.85565185546875,-0.3527679443359375,0.0352630615234375
1761315421095890700,3.896890625,-0.8521270751953125,-0.35198974609375,0.0274505615234375
1761315421105938700,3.906938720703125,-0.85113525390625,-0.3480072021484375,0.016754150390625
1761315421115986700,3.916986572265625,-0.8521575927734375,-0.3368072509765625,0.00396728515625
1761315421126034700,3.92703466796875,-0.85528564453125,-0.3197784423828125,-0.0089111328125
1761315421136082700,3.937082763671875,-0.8555450439453125,-0.3031158447265625,-0.015625
1761315421146130700,3.947130615234375,-0.856292724609375,-0.2907562255859375,-0.018829345703125
1761315421156178700,3.9571787109375,-0.855316162109375,-0.2779998779296875,-0.0194244384765625
1761315421166226700,3.967226806640625,-0.8577728271484375,-0.26934814453125,-0.0177764892578125
1761315421176274700,3.977274658203125,-0.857269287109375,-0.267822265625,-0.0159912109375
1761315421186322700,3.98732275390625,-0.832275390625,-0.272979736328125,-0.005157470703125
1761315421196371500,3.997371337890625,-0.8136749267578125,-0.2807769775390625,0.002838134765625
1761315421206419700,4.007419677734375,-0.8028564453125,-0.2948150634765625,0.0106658935546875
1761315421216467700,4.0174677734375,-0.78704833984375,-0.3169097900390625,0.014984130859375
1761315421226515700,4.027515625,-0.763824462890625,-0.3422393798828125,0.018524169921875
1761315421236563700,4.037563720703125,-0.7528228759765625,-0.365692138671875,0.0213775634765625
1761315421246611700,4.04761181640625,-0.747100830078125,-0.3810272216796875,0.0210418701171875
1761315421256659700,4.05765966796875,-0.7347259521484375,-0.3957366943359375,0.0207977294921875
1761315421266707700,4.067707763671875,-0.7445526123046875,-0.4022979736328125,0.0130615234375
1761315421276755500,4.07775537109375,-0.76470947265625,-0.398223876953125,-0.00189208984375
1761315421286803700,4.0878037109375,-0.78570556640625,-0.3856048583984375,-0.0180206298828125
1761315421296851700,4.097851806640625,-0.81146240234375,-0.373016357421875,-0.0323638916015625
1761315421306900700,4.107900634765625,-0.8391265869140625,-0.3622283935546875,-0.041748046875
1761315421316948700,4.11794873046875,-0.8558807373046875,-0.34771728515625,-0.049102783203125
1761315421326996500,4.12799658203125,-0.8748626708984375,-0.329132080078125,-0.05279541015625
1761315421337044700,4.138044677734375,-0.8870391845703125,-0.314208984375,-0.0491180419921875
1761315421347092700,4.1480927734375,-0.888824462890625,-0.308074951171875,-0.03948974609375
1761315421357140500,4.158140380859375,-0.8865203857421875,-0.313232421875,-0.027252197265625
1761315421367188700,4.168188720703125,-0.8893585205078125,-0.325836181640625,-0.0133209228515625
1761315421377236500,4.178236572265625,-0.90118408203125,-0.33758544921875,-0.004791259765625
1761315421387284700,4.18828466796875,-0.89605712890625,-0.350372314453125,0.0020294189453125
1761315421397332700,4.198332763671875,-0.8794403076171875,-0.3701171875,0.0169219970703125
1761315421407381800,4.2083818359375,-0.881683349609375,-0.4036102294921875,0.0391693115234375
1761315421417429800,4.2184296875,-0.8763427734375,-0.440277099609375,0.064666748046875
1761315421427477500,4.2284775390625,-0.875396728515625,-0.458770751953125,0.0850372314453125
1761315421437525800,4.23852587890625,-0.88720703125,-0.462493896484375,0.0947113037109375
1761315421447573800,4.24857373046875,-0.88824462890625,-0.4644775390625,0.0984954833984375
1761315421457621500,4.25862158203125,-0.8986358642578125,-0.4682159423828125,0.0966644287109375
1761315421467669800,4.268669677734375,-0.9170379638671875,-0.46380615234375,0.0876312255859375
1761315421477717800,4.2787177734375,-0.9375,-0.45306396484375,0.0739898681640625
1761315421487765500,4.288765625,-0.972747802734375,-0.4416351318359375,0.0579071044921875
1761315421497813500,4.2988134765625,-1.0065155029296875,-0.429168701171875,0.0456695556640625
1761315421507861200,4.308861328125,-1.038543701171875,-0.413177490234375,0.0390472412109375
1761315421517910500,4.31891064453125,-1.0665435791015625,-0.393646240234375,0.038848876953125
1761315421527958300,4.328958251953125,-1.08453369140625,-0.37744140625,0.0447235107421875
1761315421538006300,4.33900634765625,-1.0921783447265625,-0.364715576171875,0.054595947265625
1761315421548054500,4.349054443359375,-1.102783203125,-0.34954833984375,0.062347412109375
1761315421558102300,4.359102294921875,-1.098358154296875,-0.3311309814453125,0.0694122314453125
1761315421568150500,4.369150634765625,-1.0910491943359375,-0.31707763671875,0.0834808349609375
1761315421578198500,4.379198486328125,-1.0855712890625,-0.3081817626953125,0.0965118408203125
1761315421588246300,4.389246337890625,-1.0847625732421875,-0.297454833984375,0.107391357421875
1761315421598294500,4.39929443359375,-1.0851898193359375,-0.286224365234375,0.1150054931640625
1761315421608342500,4.409342529296875,-1.08001708984375,-0.27728271484375,0.1234130859375
1761315421618390300,4.419390380859375,-1.085601806640625,-0.2737274169921875,0.1334686279296875
1761315421628439600,4.429439453125,-1.0938262939453125,-0.2683563232421875,0.137969970703125
1761315421638487300,4.4394873046875,-1.0814208984375,-0.2688140869140625,0.1441650390625
1761315421648535600,4.44953564453125,-1.0641937255859375,-0.282928466796875,0.1531982421875
1761315421658583300,4.459583251953125,-1.05999755859375,-0.294036865234375,0.1610565185546875
1761315421668631300,4.46963134765625,-1.0705108642578125,-0.2958984375,0.15997314453125
1761315421678679600,4.479679443359375,-1.069061279296875,-0.30426025390625,0.1569061279296875
1761315421688727300,4.489727294921875,-1.0584869384765625,-0.315673828125,0.15179443359375
1761315421698775300,4.499775390625,-1.0547943115234375,-0.3210906982421875,0.1434326171875
1761315421708823600,4.509823486328125,-1.060577392578125,-0.320037841796875,0.1346282958984375
1761315421718871300,4.519871337890625,-1.06689453125,-0.3126068115234375,0.12762451171875
1761315421728919600,4.52991943359375,-1.0667724609375,-0.3083038330078125,0.1192779541015625
1761315421738967300,4.53996728515625,-1.06317138671875,-0.306060791015625,0.104949951171875
1761315421749016600,4.5500166015625,-1.064239501953125,-0.3013916015625,0.0912628173828125
1761315421759064300,4.560064208984375,-1.063934326171875,-0.291778564453125,0.0839691162109375
1761315421769112300,4.5701123046875,-1.049163818359375,-0.2755584716796875,0.0792236328125
1761315421779160600,4.58016064453125,-1.026123046875,-0.2595367431640625,0.080841064453125
1761315421789208300,4.590208251953125,-0.989990234375,-0.250518798828125,0.090545654296875
1761315421799256300,4.60025634765625,-0.9498291015625,-0.24896240234375,0.1044158935546875
1761315421809304600,4.6103046875,-0.9146728515625,-0.252410888671875,0.119781494140625
1761315421819352300,4.620352294921875,-0.876617431640625,-0.257781982421875,0.134368896484375
1761315421829400300,4.630400390625,-0.836669921875,-0.2589874267578125,0.144775390625
1761315421839448600,4.640448486328125,-0.8025360107421875,-0.256591796875,0.15545654296875
1761315421849496300,4.650496337890625,-0.7743682861328125,-0.2566070556640625,0.1674041748046875
1761315421859544600,4.660544677734375,-0.755218505859375,-0.2571258544921875,0.1790008544921875
1761315421869593300,4.67059326171875,-0.7364501953125,-0.2628326416015625,0.194091796875
1761315421879641300,4.680641357421875,-0.717803955078125,-0.2730560302734375,0.2113800048828125
1761315421889689300,4.690689453125,-0.708984375,-0.28204345703125,0.226776123046875
1761315421899737300,4.7007373046875,-0.7079315185546875,-0.290771484375,0.2392578125
1761315421909785600,4.71078564453125,-0.69873046875,-0.3017730712890625,0.25152587890625
1761315421919833300,4.720833251953125,-0.6847991943359375,-0.312286376953125,0.2630157470703125
1761315421929881300,4.73088134765625,-0.6784515380859375,-0.3265533447265625,0.270843505859375
1761315421939929600,4.7409296875,-0.677703857421875,-0.3425140380859375,0.2821502685546875
1761315421949977300,4.750977294921875,-0.686187744140625,-0.356414794921875,0.291656494140625
1761315421960025300,4.761025390625,-0.699798583984375,-0.3708343505859375,0.2988128662109375
1761315421970073300,4.7710732421875,-0.7263946533203125,-0.3792877197265625,0.3031005859375
1761315421980121300,4.781121337890625,-0.7611541748046875,-0.3740386962890625,0.291595458984375
1761315421990169600,4.791169677734375,-0.7875823974609375,-0.355499267578125,0.26666259765625
1761315422000218400,4.80121826171875,-0.814483642578125,-0.3262176513671875,0.2437744140625
1761315422010266400,4.811266357421875,-0.846771240234375,-0.30255126953125,0.2293853759765625
1761315422020314400,4.821314453125,-0.8900909423828125,-0.294281005859375,0.2238311767578125
1761315422030362400,4.8313623046875,-0.93157958984375,-0.285125732421875,0.22174072265625
1761315422040407300,4.8414072265625,-0.9564361572265625,-0.2681884765625,0.2139129638671875
1761315422050455300,4.851455322265625,-0.9717559814453125,-0.251739501953125,0.208709716796875
1761315422060503600,4.861503662109375,-0.975189208984375,-0.2471923828125,0.2017669677734375
1761315422070551300,4.87155126953125,-0.9643402099609375,-0.2491302490234375,0.18963623046875
1761315422080599300,4.881599365234375,-0.9492950439453125,-0.2517547607421875,0.1750640869140625
1761315422090647600,4.8916474609375,-0.931182861328125,-0.2629547119140625,0.161224365234375
1761315422100695300,4.9016953125,-0.911529541015625,-0.27716064453125,0.14996337890625
1761315422110743600,4.91174365234375,-0.8899993896484375,-0.2906951904296875,0.1475982666015625
1761315422120791600,4.92179150390625,-0.8733673095703125,-0.3080291748046875,0.1523895263671875
1761315422130840300,4.93184033203125,-0.8629150390625,-0.3261871337890625,0.156036376953125
1761315422140888600,4.941888671875,-0.846771240234375,-0.34075927734375,0.155975341796875
1761315422150936300,4.951936279296875,-0.8277740478515625,-0.351165771484375,0.1543121337890625
1761315422160984600,4.961984619140625,-0.8182373046875,-0.3639678955078125,0.15185546875
1761315422171032300,4.9720322265625,-0.8192291259765625,-0.38482666015625,0.1500701904296875
1761315422181080300,4.982080322265625,-0.813201904296875,-0.4036102294921875,0.148101806640625
1761315422191128600,4.992128662109375,-0.80908203125,-0.418182373046875,0.1450042724609375
1761315422201176300,5.00217626953125,-0.813568115234375,-0.433319091796875,0.1482391357421875
1761315422211224300,5.012224365234375,-0.82281494140625,-0.4504241943359375,0.1575469970703125
1761315422221272600,5.0222724609375,-0.8391876220703125,-0.46331787109375,0.1607666015625
1761315422231320300,5.0323203125,-0.8543243408203125,-0.4719696044921875,0.161102294921875
1761315422241368300,5.042368408203125,-0.87298583984375,-0.4763641357421875,0.158447265625
1761315422251416300,5.052416259765625,-0.90020751953125,-0.4740753173828125,0.1485748291015625
1761315422261464300,5.06246435546875,-0.91705322265625,-0.4683074951171875,0.1378631591796875
1761315422271512600,5.0725126953125,-0.9347381591796875,-0.461395263671875,0.12908935546875
1761315422281561300,5.082561279296875,-0.9627532958984375,-0.4522247314453125,0.1190948486328125
1761315422291609600,5.092609619140625,-0.993743896484375,-0.446563720703125,0.1119232177734375
1761315422301657300,5.1026572265625,-1.0316009521484375,-0.442535400390625,0.1026458740234375
1761315422311705300,5.112705322265625,-1.053375244140625,-0.436370849609375,0.092681884765625
1761315422321753600,5.122753662109375,-1.0635833740234375,-0.4250640869140625,0.08294677734375
1761315422331801300,5.13280126953125,-1.07275390625,-0.41827392578125,0.08331298828125
1761315422341849300,5.142849365234375,-1.076904296875,-0.420745849609375,0.0852813720703125
1761315422351897600,5.152897705078125,-1.0663909912109375,-0.41845703125,0.0846405029296875
1761315422361945300,5.1629453125,-1.04345703125,-0.411590576171875,0.08575439453125
1761315422371993300,5.172993408203125,-1.02166748046875,-0.4091796875,0.09356689453125
1761315422382041300,5.183041259765625,-0.9992218017578125,-0.4120330810546875,0.106536865234375
1761315422392089300,5.19308935546875,-0.97515869140625,-0.4173126220703125,0.123260498046875
1761315422402137600,5.2031376953125,-0.9559326171875,-0.421234130859375,0.1397705078125
1761315422412185300,5.213185302734375,-0.9407958984375,-0.4392852783203125,0.16192626953125
1761315422422234400,5.223234375,-0.9448089599609375,-0.4592437744140625,0.1823272705078125
1761315422432282400,5.233282470703125,-0.9673004150390625,-0.4584808349609375,0.1875457763671875
1761315422442330400,5.243330322265625,-0.9861297607421875,-0.4553070068359375,0.188232421875
1761315422452378600,5.253378662109375,-1.0019073486328125,-0.4538116455078125,0.180450439453125
1761315422462426400,5.26342626953125,-1.0233154296875,-0.4377899169921875,0.1584930419921875
1761315422472474400,5.273474365234375,-1.049774169921875,-0.4133758544921875,0.1300048828125
1761315422482522400,5.2835224609375,-1.069366455078125,-0.388427734375,0.1004791259765625
1761315422492570400,5.2935703125,-1.072479248046875,-0.3698272705078125,0.078582763671875
1761315422502619000,5.303618896484375,-1.0649566650390625,-0.3514862060546875,0.0654449462890625
1761315422512666600,5.31366650390625,-1.053955078125,-0.3310394287109375,0.05657958984375
1761315422522715000,5.32371484375,-1.0284423828125,-0.31756591796875,0.0505523681640625
1761315422532763000,5.333762939453125,-0.9873199462890625,-0.3077239990234375,0.03863525390625
1761315422542810600,5.343810546875,-0.9397430419921875,-0.30010986328125,0.0296173095703125
1761315422552859000,5.35385888671875,-0.8970794677734375,-0.300445556640625,0.02166748046875
1761315422562906600,5.36390673828125,-0.8495635986328125,-0.3057098388671875,0.022552490234375
1761315422572955000,5.373954833984375,-0.8147735595703125,-0.3165130615234375,0.031219482421875
1761315422583003600,5.384003662109375,-0.8218994140625,-0.33001708984375,0.047393798828125
1761315422593051600,5.3940517578125,-0.8477325439453125,-0.3352813720703125,0.0589599609375
1761315422603100000,5.404099853515625,-0.856170654296875,-0.320709228515625,0.0496826171875
1761315422613147600,5.414147705078125,-0.8614501953125,-0.291656494140625,0.02557373046875
1761315422623196000,5.42419580078125,-0.8702850341796875,-0.269012451171875,0.003570556640625
1761315422633244000,5.434243896484375,-0.8706512451171875,-0.2707366943359375,0.0005035400390625
1761315422643291600,5.444291748046875,-0.8731842041015625,-0.2858123779296875,0.0114288330078125
1761315422653340000,5.45433984375,-0.885040283203125,-0.2983856201171875,0.0329437255859375
1761315422663387600,5.4643876953125,-0.8833770751953125,-0.3094329833984375,0.0589141845703125
1761315422673437000,5.47443701171875,-0.8691253662109375,-0.3238677978515625,0.077056884765625
1761315422683484700,5.484484619140625,-0.85858154296875,-0.3397674560546875,0.0836029052734375
1761315422693532700,5.49453271484375,-0.8567657470703125,-0.357025146484375,0.0789642333984375
1761315422703581000,5.504580810546875,-0.85552978515625,-0.3712310791015625,0.0673828125
1761315422713628700,5.514628662109375,-0.85382080078125,-0.37445068359375,0.0460052490234375
1761315422723676700,5.5246767578125,-0.85711669921875,-0.369842529296875,0.0232391357421875
1761315422733725000,5.534724853515625,-0.87347412109375,-0.3654632568359375,-0.000213623046875
1761315422743773700,5.544773681640625,-0.8910675048828125,-0.357269287109375,-0.027191162109375
1761315422753822000,5.554822021484375,-0.8994293212890625,-0.344696044921875,-0.0506744384765625
1761315422763869700,5.56486962890625,-0.9014739990234375,-0.3321990966796875,-0.067840576171875
1761315422773917700,5.574917724609375,-0.8983612060546875,-0.325469970703125,-0.073760986328125
1761315422783966000,5.584966064453125,-0.88458251953125,-0.329498291015625,-0.0666656494140625
1761315422794013700,5.595013671875,-0.8704681396484375,-0.3358154296875,-0.049072265625
1761315422804062000,5.60506201171875,-0.862030029296875,-0.3428192138671875,-0.0207061767578125
1761315422814109700,5.615109619140625,-0.851531982421875,-0.35589599609375,0.0061492919921875
1761315422824157700,5.62515771484375,-0.8430023193359375,-0.371124267578125,0.028076171875
1761315422834206000,5.6352060546875,-0.8441314697265625,-0.3881988525390625,0.043304443359375
1761315422844253700,5.645253662109375,-0.8471221923828125,-0.3966217041015625,0.0543670654296875
1761315422854301700,5.6553017578125,-0.840972900390625,-0.4076385498046875,0.062774658203125
1761315422864350000,5.665349853515625,-0.84332275390625,-0.4227447509765625,0.0691680908203125
1761315422874397700,5.675397705078125,-0.851806640625,-0.435516357421875,0.069671630859375
1761315422884445700,5.68544580078125,-0.8448486328125,-0.4427642822265625,0.065460205078125
1761315422894493700,5.69549365234375,-0.83929443359375,-0.4485626220703125,0.0559844970703125
1761315422904542700,5.705542724609375,-0.84124755859375,-0.45416259765625,0.049835205078125
1761315422914590700,5.7155908203125,-0.8464202880859375,-0.457550048828125,0.0463409423828125
1761315422924638700,5.725638671875,-0.8502960205078125,-0.45697021484375,0.0412445068359375
1761315422934687000,5.73568701171875,-0.8542327880859375,-0.456329345703125,0.0356292724609375
1761315422944734700,5.745734619140625,-0.8553009033203125,-0.4563140869140625,0.02960205078125
1761315422954782700,5.75578271484375,-0.8657989501953125,-0.45477294921875,0.0251922607421875
1761315422964831000,5.7658310546875,-0.876678466796875,-0.45025634765625,0.018157958984375
1761315422974878700,5.775878662109375,-0.8803253173828125,-0.439697265625,0.0106964111328125
1761315422984926700,5.7859267578125,-0.884857177734375,-0.4240570068359375,0.0030059814453125
1761315422994975000,5.79597509765625,-0.8906097412109375,-0.413421630859375,-0.0007476806640625
1761315423005022700,5.806022705078125,-0.906341552734375,-0.40960693359375,0.0034637451171875
1761315423015070700,5.81607080078125,-0.926422119140625,-0.4062957763671875,0.016571044921875
1761315423025118700,5.82611865234375,-0.947479248046875,-0.4007720947265625,0.033050537109375
1761315423035166700,5.836166748046875,-0.9635772705078125,-0.3881072998046875,0.0492401123046875
1761315423045215000,5.846215087890625,-0.9776611328125,-0.372589111328125,0.0584869384765625
1761315423055262700,5.8562626953125,-0.994140625,-0.3580474853515625,0.0608978271484375
1761315423065310700,5.866310791015625,-1.0047454833984375,-0.3446807861328125,0.0645599365234375
1761315423075359000,5.87635888671875,-1.0086669921875,-0.3329010009765625,0.065643310546875
1761315423085407700,5.88640771484375,-1.0092926025390625,-0.31988525390625,0.063232421875
1761315423095456000,5.8964560546875,-1.003143310546875,-0.318328857421875,0.06378173828125
1761315423105503700,5.906503662109375,-0.9935760498046875,-0.3319549560546875,0.0760955810546875
1761315423115551700,5.9165517578125,-1.0048828125,-0.33917236328125,0.0861053466796875
1761315423125599700,5.926599853515625,-1.0243682861328125,-0.3391876220703125,0.090301513671875
1761315423135647700,5.936647705078125,-1.0267333984375,-0.34649658203125,0.0885162353515625
1761315423145695700,5.94669580078125,-1.0208892822265625,-0.3512420654296875,0.080535888671875
1761315423155743700,5.95674365234375,-1.0239715576171875,-0.34405517578125,0.07000732421875
1761315423165791700,5.966791748046875,-1.027679443359375,-0.3363037109375,0.061187744140625
1761315423175840000,5.976840087890625,-1.012237548828125,-0.32843017578125,0.0515594482421875
1761315423185887700,5.9868876953125,-0.9888458251953125,-0.316558837890625,0.04241943359375
1761315423195935700,5.996935791015625,-0.9630889892578125,-0.3164520263671875,0.046478271484375
1761315423205984000,6.00698388671875,-0.9344635009765625,-0.3297119140625,0.0603179931640625
1761315423216031700,6.01703173828125,-0.904327392578125,-0.3438568115234375,0.0724945068359375
1761315423226079700,6.027079833984375,-0.8638153076171875,-0.3614959716796875,0.0841217041015625
1761315423236127700,6.037127685546875,-0.835235595703125,-0.38916015625,0.0979156494140625
1761315423246175700,6.04717578125,-0.822998046875,-0.4074859619140625,0.106475830078125
1761315423256223700,6.0572236328125,-0.8025970458984375,-0.4019927978515625,0.1022491455078125
1761315423266271700,6.067271728515625,-0.777496337890625,-0.389739990234375,0.093231201171875
1761315423276319700,6.07731982421875,-0.7729034423828125,-0.381072998046875,0.088958740234375
1761315423286368800,6.08736865234375,-0.7766876220703125,-0.37432861328125,0.0884246826171875
1761315423296416800,6.097416748046875,-0.776458740234375,-0.3612060546875,0.085601806640625
1761315423306464800,6.10746484375,-0.7913818359375,-0.3349151611328125,0.07647705078125
1761315423316512800,6.1175126953125,-0.8141326904296875,-0.323150634765625,0.0716705322265625
1761315423326560800,6.127560791015625,-0.8271331787109375,-0.331207275390625,0.072296142578125
1761315423336608800,6.13760888671875,-0.838897705078125,-0.341583251953125,0.070404052734375
1761315423346656800,6.14765673828125,-0.8524627685546875,-0.347412109375,0.06451416015625
1761315423356704800,6.157704833984375,-0.859344482421875,-0.3554229736328125,0.0584259033203125
1761315423366752800,6.167752685546875,-0.8669891357421875,-0.3692779541015625,0.051849365234375
1761315423376800800,6.17780078125,-0.8753509521484375,-0.394195556640625,0.05010986328125
1761315423386848800,6.187848876953125,-0.888336181640625,-0.4194183349609375,0.045166015625
1761315423396896800,6.197896728515625,-0.892181396484375,-0.4400177001953125,0.04229736328125
1761315423406944800,6.20794482421875,-0.9072723388671875,-0.456817626953125,0.042144775390625
1761315423416992800,6.21799267578125,-0.9381256103515625,-0.4586334228515625,0.031768798828125
1761315423427040800,6.228040771484375,-0.962860107421875,-0.4451446533203125,0.0142822265625
1761315423437088800,6.2380888671875,-0.9825439453125,-0.4196929931640625,-0.008453369140625
1761315423447136800,6.24813671875,-1.0039215087890625,-0.3886566162109375,-0.0364227294921875
1761315423457184800,6.258184814453125,-1.0093994140625,-0.3670501708984375,-0.0578155517578125
1761315423467232800,6.268232666015625,-1.0166778564453125,-0.3506622314453125,-0.0707244873046875
1761315423477280800,6.27828076171875,-1.0122222900390625,-0.338836669921875,-0.080230712890625
1761315423487329800,6.288329833984375,-0.979888916015625,-0.3256988525390625,-0.09027099609375
1761315423497377800,6.298377685546875,-0.9390716552734375,-0.3159027099609375,-0.096160888671875
1761315423507425300,6.30842529296875,-0.908538818359375,-0.317474365234375,-0.095855712890625
1761315423517473300,6.318473388671875,-0.8750152587890625,-0.3316650390625,-0.0856475830078125
1761315423527521300,6.328521240234375,-0.8427581787109375,-0.3484649658203125,-0.0718994140625
1761315423537569300,6.3385693359375,-0.8201141357421875,-0.36981201171875,-0.0577239990234375
1761315423547617500,6.348617431640625,-0.7989349365234375,-0.394439697265625,-0.0468292236328125
1761315423557665300,6.358665283203125,-0.7841033935546875,-0.414825439453125,-0.03271484375
1761315423567713300,6.36871337890625,-0.7739410400390625,-0.42254638671875,-0.0222320556640625
1761315423577761500,6.378761474609375,-0.7780914306640625,-0.42510986328125,-0.009490966796875
1761315423587809300,6.388809326171875,-0.786346435546875,-0.4239044189453125,-0.00018310546875
1761315423597857300,6.398857177734375,-0.7866363525390625,-0.421539306640625,0.005828857421875
1761315423607905300,6.4089052734375,-0.7939453125,-0.42578125,0.012237548828125
1761315423617953300,6.418953369140625,-0.81756591796875,-0.43701171875,0.01788330078125
1761315423628001300,6.429001220703125,-0.8347015380859375,-0.4453125,0.01666259765625
1761315423638049300,6.43904931640625,-0.83685302734375,-0.4414215087890625,0.009521484375
1761315423648097300,6.44909716796875,-0.8556365966796875,-0.4343719482421875,0.0048370361328125
1761315423658145500,6.4591455078125,-0.8851318359375,-0.4299163818359375,0.0006103515625
1761315423668193300,6.469193359375,-0.9026336669921875,-0.4286346435546875,0.0009002685546875
1761315423678241300,6.4792412109375,-0.9183807373046875,-0.4231414794921875,-0.0038604736328125
1761315423688289300,6.489289306640625,-0.93988037109375,-0.4130401611328125,-0.009979248046875
1761315423698337300,6.499337158203125,-0.9632110595703125,-0.40338134765625,-0.0145416259765625
1761315423708385300,6.50938525390625,-0.9843292236328125,-0.4012603759765625,-0.013336181640625
1761315423718433300,6.519433349609375,-1.00799560546875,-0.4007415771484375,-0.017059326171875
1761315423728482300,6.529482421875,-1.0218505859375,-0.399566650390625,-0.0225677490234375
1761315423738530300,6.5395302734375,-1.0186309814453125,-0.397125244140625,-0.0268707275390625
1761315423748578300,6.549578369140625,-1.0143890380859375,-0.394134521484375,-0.02960205078125
1761315423758626300,6.559626220703125,-1.0140533447265625,-0.3950958251953125,-0.03070068359375
1761315423768674300,6.56967431640625,-1.0077667236328125,-0.4003753662109375,-0.0252532958984375
1761315423778722300,6.579722412109375,-1.010498046875,-0.4054107666015625,-0.0175628662109375
1761315423788770600,6.5897705078125,-1.0109710693359375,-0.4068756103515625,-0.0128631591796875
1761315423798818300,6.599818359375,-1.0002593994140625,-0.4060516357421875,-0.007781982421875
1761315423808866300,6.6098662109375,-0.981781005859375,-0.4090423583984375,0.00042724609375
1761315423818914300,6.619914306640625,-0.957977294921875,-0.4293060302734375,0.01873779296875
1761315423828962300,6.62996240234375,-0.9495391845703125,-0.4515533447265625,0.0411224365234375
1761315423839010300,6.64001025390625,-0.952117919921875,-0.454559326171875,0.0551605224609375
1761315423849058300,6.650058349609375,-0.9439849853515625,-0.44903564453125,0.0616607666015625
1761315423859106300,6.660106201171875,-0.94305419921875,-0.43865966796875,0.058319091796875
1761315423869154300,6.670154296875,-0.9488983154296875,-0.4181060791015625,0.0498504638671875
1761315423879202300,6.680202392578125,-0.94610595703125,-0.3891754150390625,0.0355377197265625
1761315423889250300,6.690250244140625,-0.93499755859375,-0.358734130859375,0.0218658447265625
1761315423899298300,6.70029833984375,-0.92242431640625,-0.33721923828125,0.01409912109375
1761315423909346300,6.71034619140625,-0.91998291015625,-0.325439453125,0.0156402587890625
1761315423919394300,6.720394287109375,-0.9189453125,-0.315032958984375,0.019500732421875
1761315423929442300,6.7304423828125,-0.91741943359375,-0.3027191162109375,0.025665283203125
1761315423939490300,6.740490234375,-0.917877197265625,-0.2913055419921875,0.0295867919921875
1761315423949538300,6.750538330078125,-0.921295166015625,-0.28082275390625,0.030120849609375
1761315423959586300,6.76058642578125,-0.9352264404296875,-0.27130126953125,0.028350830078125
1761315423969634300,6.77063427734375,-0.9561767578125,-0.2615509033203125,0.0220489501953125
1761315423979682300,6.780682373046875,-0.976654052734375,-0.25189208984375,0.0126953125
1761315423989730300,6.790730224609375,-0.9898223876953125,-0.2391510009765625,-0.001190185546875
1761315423999779300,6.800779296875,-0.9932708740234375,-0.2262115478515625,-0.014739990234375
1761315424009827300,6.810827392578125,-0.999603271484375,-0.2170257568359375,-0.0251922607421875
1761315424019875300,6.820875244140625,-1.00384521484375,-0.208648681640625,-0.0347747802734375
1761315424029923300,6.83092333984375,-1.001983642578125,-0.2043304443359375,-0.0428314208984375
1761315424039971300,6.840971435546875,-0.9995880126953125,-0.2046356201171875,-0.0548248291015625
1761315424050019300,6.851019287109375,-0.988189697265625,-0.2059783935546875,-0.0695343017578125
1761315424060067300,6.8610673828125,-0.9719696044921875,-0.20953369140625,-0.0805511474609375
1761315424070115300,6.871115234375,-0.96539306640625,-0.2151031494140625,-0.08489990234375
1761315424080163300,6.881163330078125,-0.958526611328125,-0.2259674072265625,-0.08673095703125
1761315424090211300,6.89121142578125,-0.947509765625,-0.2445526123046875,-0.0847015380859375
1761315424100259300,6.90125927734375,-0.9366607666015625,-0.2618408203125,-0.08544921875
1761315424110307300,6.911307373046875,-0.9218292236328125,-0.276123046875,-0.08660888671875
1761315424120355300,6.921355224609375,-0.907928466796875,-0.284698486328125,-0.0901031494140625
1761315424130403300,6.9314033203125,-0.90008544921875,-0.296539306640625,-0.0902252197265625
1761315424140451300,6.941451416015625,-0.9036865234375,-0.31707763671875,-0.090301513671875
1761315424150499300,6.951499267578125,-0.90740966796875,-0.330413818359375,-0.0906219482421875
1761315424160547300,6.96154736328125,-0.90264892578125,-0.3322601318359375,-0.092071533203125
1761315424170595300,6.97159521484375,-0.894439697265625,-0.329498291015625,-0.0920867919921875
1761315424180643300,6.981643310546875,-0.8929595947265625,-0.331390380859375,-0.085052490234375
1761315424190691300,6.99169140625,-0.895751953125,-0.3385009765625,-0.0727386474609375
1761315424200739300,7.0017392578125,-0.890106201171875,-0.3470611572265625,-0.059967041015625
1761315424210787300,7.011787353515625,-0.886077880859375,-0.35369873046875,-0.048431396484375
1761315424220835300,7.02183544921875,-0.8826141357421875,-0.358154296875,-0.0390472412109375
1761315424230883300,7.03188330078125,-0.88067626953125,-0.3659515380859375,-0.0301971435546875
1761315424240931300,7.041931396484375,-0.8869476318359375,-0.377716064453125,-0.0211639404296875
1761315424250979300,7.051979248046875,-0.8958892822265625,-0.3882293701171875,-0.0164031982421875
1761315424261027300,7.06202734375,-0.8921966552734375,-0.3945465087890625,-0.0148468017578125
1761315424271075300,7.072075439453125,-0.890472412109375,-0.396636962890625,-0.0171356201171875
1761315424281123300,7.082123291015625,-0.8878173828125,-0.3953399658203125,-0.020050048828125
1761315424291171300,7.09217138671875,-0.881500244140625,-0.3970489501953125,-0.01776123046875
1761315424301219300,7.10221923828125,-0.880584716796875,-0.4026947021484375,-0.0094146728515625
1761315424311267300,7.112267333984375,-0.8864288330078125,-0.4033203125,-0.0056610107421875
1761315424321315300,7.1223154296875,-0.8865814208984375,-0.40045166015625,-0.00390625
1761315424331364400,7.1323642578125,-0.8841705322265625,-0.4018707275390625,-0.0008087158203125
1761315424341412400,7.142412353515625,-0.8941650390625,-0.404815673828125,0.0049591064453125
1761315424351460000,7.152460205078125,-0.9014739990234375,-0.400543212890625,0.0026702880859375
1761315424361508400,7.16250830078125,-0.8973388671875,-0.3921051025390625,-0.002105712890625
1761315424371556400,7.172556396484375,-0.9002685546875,-0.3845977783203125,-0.0098419189453125
1761315424381604400,7.182604248046875,-0.9083709716796875,-0.37823486328125,-0.0154876708984375
1761315424391652400,7.19265234375,-0.9120941162109375,-0.373260498046875,-0.019378662109375
1761315424401700400,7.202700439453125,-0.916900634765625,-0.3708038330078125,-0.0222625732421875
1761315424411748400,7.212748291015625,-0.9214935302734375,-0.368896484375,-0.0248565673828125
1761315424421796400,7.22279638671875,-0.927490234375,-0.365325927734375,-0.0298614501953125
1761315424431844400,7.23284423828125,-0.932647705078125,-0.3582000732421875,-0.0377960205078125
1761315424441892400,7.242892333984375,-0.9343414306640625,-0.3517608642578125,-0.0443115234375
1761315424451940400,7.2529404296875,-0.9347381591796875,-0.35205078125,-0.0489349365234375
1761315424461988000,7.262988037109375,-0.9319000244140625,-0.356842041015625,-0.0489501953125
1761315424472036400,7.273036376953125,-0.92791748046875,-0.361907958984375,-0.0458984375
1761315424482084400,7.28308447265625,-0.9238128662109375,-0.3649139404296875,-0.040924072265625
1761315424492132400,7.29313232421875,-0.9177093505859375,-0.368682861328125,-0.033905029296875
1761315424502180400,7.303180419921875,-0.9076080322265625,-0.375946044921875,-0.0255889892578125
1761315424512228400,7.313228271484375,-0.9029541015625,-0.388946533203125,-0.0173187255859375
1761315424522276000,7.323276123046875,-0.8984375,-0.3994140625,-0.0145721435546875
1761315424532324000,7.333323974609375,-0.889892578125,-0.40655517578125,-0.0157318115234375
1761315424542372400,7.343372314453125,-0.884307861328125,-0.41387939453125,-0.0159454345703125
1761315424552420000,7.353420166015625,-0.8828125,-0.4198455810546875,-0.0142822265625
1761315424562468000,7.363468017578125,-0.8813018798828125,-0.4255828857421875,-0.01116943359375
1761315424572516000,7.37351611328125,-0.8816375732421875,-0.430145263671875,-0.0073394775390625
1761315424582564000,7.383564208984375,-0.880340576171875,-0.43377685546875,-0.0062103271484375
1761315424592612400,7.3936123046875,-0.8779754638671875,-0.4362030029296875,-0.004364013671875
1761315424602660000,7.40366015625,-0.8868865966796875,-0.437744140625,0.0000762939453125
1761315424612708000,7.4137080078125,-0.8957061767578125,-0.4384307861328125,0.004791259765625
1761315424622756400,7.42375634765625,-0.9007568359375,-0.43353271484375,0.00714111328125
1761315424632804000,7.43380419921875,-0.908203125,-0.426727294921875,0.0056915283203125
1761315424642852000,7.44385205078125,-0.9181365966796875,-0.42169189453125,0.003814697265625
1761315424652900000,7.453900146484375,-0.92706298828125,-0.4222564697265625,0.008209228515625
1761315424662948000,7.463947998046875,-0.933563232421875,-0.43231201171875,0.0173797607421875
1761315424672996000,7.47399609375,-0.95025634765625,-0.437164306640625,0.026397705078125
1761315424683044000,7.484044189453125,-0.9670867919921875,-0.4270172119140625,0.0272979736328125
1761315424693092000,7.494092041015625,-0.963409423828125,-0.41351318359375,0.02178955078125
1761315424703140400,7.504140380859375,-0.966705322265625,-0.4033966064453125,0.0118255615234375
1761315424713188000,7.51418798828125,-0.9833221435546875,-0.394805908203125,0.002532958984375
1761315424723236000,7.524236083984375,-1.007049560546875,-0.3782958984375,-0.007781982421875
1761315424733284400,7.534284423828125,-1.02545166015625,-0.358001708984375,-0.019561767578125
1761315424743332000,7.54433203125,-1.027435302734375,-0.33331298828125,-0.0300445556640625
1761315424753380000,7.554380126953125,-1.0266876220703125,-0.3116302490234375,-0.0368804931640625
1761315424763428000,7.564427978515625,-1.0277557373046875,-0.301727294921875,-0.0394439697265625
1761315424773476000,7.57447607421875,-1.0284881591796875,-0.2967376708984375,-0.0367584228515625
1761315424783524400,7.5845244140625,-1.0233001708984375,-0.2900238037109375,-0.0356292724609375
1761315424793572000,7.594572021484375,-1.00396728515625,-0.2820587158203125,-0.0369720458984375
1761315424803620000,7.6046201171875,-0.974029541015625,-0.27252197265625,-0.0370330810546875
1761315424813668400,7.61466845703125,-0.95013427734375,-0.26849365234375,-0.0311431884765625
1761315424823717000,7.624717041015625,-0.9302978515625,-0.2755584716796875,-0.0192718505859375
1761315424833765400,7.634765380859375,-0.914825439453125,-0.2864532470703125,-0.0027618408203125
1761315424843813000,7.644813232421875,-0.9039154052734375,-0.29766845703125,0.012664794921875
1761315424853861000,7.654861083984375,-0.8975372314453125,-0.31304931640625,0.02386474609375
1761315424863909000,7.6649091796875,-0.8867034912109375,-0.3209075927734375,0.027740478515625
1761315424873957000,7.67495703125,-0.87945556640625,-0.315704345703125,0.0281524658203125
1761315424884005000,7.685005126953125,-0.8763275146484375,-0.3105926513671875,0.025054931640625
1761315424894053000,7.69505322265625,-0.8729705810546875,-0.3115081787109375,0.024871826171875
1761315424904101000,7.70510107421875,-0.8689422607421875,-0.3137359619140625,0.0277862548828125
1761315424914149000,7.715149169921875,-0.8641510009765625,-0.3116912841796875,0.02899169921875
1761315424924197000,7.725197021484375,-0.8588104248046875,-0.3106842041015625,0.03179931640625
1761315424934245000,7.7352451171875,-0.8612213134765625,-0.3072967529296875,0.0359344482421875
1761315424944293400,7.74529345703125,-0.8605804443359375,-0.302398681640625,0.0362396240234375
1761315424954341000,7.755341064453125,-0.848114013671875,-0.3049774169921875,0.0420989990234375
1761315424964389000,7.76538916015625,-0.841033935546875,-0.317535400390625,0.055267333984375
1761315424974437000,7.77543701171875,-0.8375396728515625,-0.3321380615234375,0.0712738037109375
1761315424984485000,7.785485107421875,-0.838897705078125,-0.3452606201171875,0.0899810791015625
1761315424994533000,7.795533203125,-0.8465728759765625,-0.3565521240234375,0.1065216064453125
1761315425004581000,7.8055810546875,-0.8491058349609375,-0.3687896728515625,0.1157379150390625
1761315425014629000,7.815629150390625,-0.850250244140625,-0.3842010498046875,0.1216583251953125
1761315425024677400,7.825677490234375,-0.862396240234375,-0.3977203369140625,0.1191253662109375
1761315425034725000,7.83572509765625,-0.8742523193359375,-0.4069976806640625,0.1129608154296875
1761315425044773000,7.845773193359375,-0.889556884765625,-0.408905029296875,0.1003265380859375
1761315425054821400,7.8558212890625,-0.9145965576171875,-0.39886474609375,0.0827789306640625
1761315425064869000,7.865869140625,-0.9465484619140625,-0.37957763671875,0.056884765625
1761315425074917000,7.875917236328125,-0.97698974609375,-0.3559112548828125,0.0247650146484375
1761315425084965000,7.885965087890625,-0.9975128173828125,-0.331085205078125,-0.004547119140625
1761315425095013000,7.89601318359375,-1.0149383544921875,-0.3148651123046875,-0.0258941650390625
1761315425105061000,7.90606103515625,-1.024871826171875,-0.311676025390625,-0.0340728759765625
1761315425115109000,7.916109130859375,-1.02532958984375,-0.3110198974609375,-0.0370635986328125
1761315425125157000,7.9261572265625,-1.0201568603515625,-0.3130645751953125,-0.039337158203125
1761315425135205400,7.936205322265625,-1.0008392333984375,-0.3156585693359375,-0.0384063720703125
1761315425145253000,7.946253173828125,-0.979034423828125,-0.3180999755859375,-0.0332489013671875
1761315425155301000,7.956301025390625,-0.95770263671875,-0.3244171142578125,-0.0219268798828125
1761315425165349000,7.96634912109375,-0.9336395263671875,-0.33367919921875,-0.0057525634765625
1761315425175397000,7.976397216796875,-0.908172607421875,-0.347381591796875,0.0125732421875
1761315425185445000,7.986445068359375,-0.8881988525390625,-0.358551025390625,0.029205322265625
1761315425195493000,7.9964931640625,-0.870758056640625,-0.365814208984375,0.0438079833984375
1761315425205541000,8.006541015625,-0.8599090576171875,-0.370697021484375,0.052459716796875
1761315425215589000,8.016589111328125,-0.8551788330078125,-0.371826171875,0.0556793212890625
1761315425225637000,8.02663720703125,-0.846710205078125,-0.3669281005859375,0.0543975830078125
1761315425235685000,8.03668505859375,-0.8497161865234375,-0.360931396484375,0.048553466796875
1761315425245733400,8.0467333984375,-0.8576812744140625,-0.359619140625,0.0413818359375
1761315425255781000,8.056781005859374,-0.8649749755859375,-0.359527587890625,0.0355682373046875
1761315425265829000,8.0668291015625,-0.875213623046875,-0.3637542724609375,0.032257080078125
1761315425275877000,8.076877197265626,-0.8877105712890625,-0.368499755859375,0.0308380126953125
1761315425285925000,8.086925048828125,-0.900787353515625,-0.368560791015625,0.0370330810546875
1761315425295973000,8.09697314453125,-0.9058685302734375,-0.3607635498046875,0.0280914306640625
1761315425306021000,8.107021240234374,-0.8897552490234375,-0.353668212890625,0.0178680419921875
1761315425316069000,8.117069091796875,-0.876922607421875,-0.35546875,0.0146331787109375
1761315425326117400,8.127117431640626,-0.88897705078125,-0.3622283935546875,0.010986328125
1761315425336165000,8.1371650390625,-0.913726806640625,-0.365814208984375,0.0113677978515625
1761315425346213000,8.147213134765625,-0.9324951171875,-0.368621826171875,0.0133209228515625
1761315425356261400,8.157261474609374,-0.9427642822265625,-0.372283935546875,0.0140533447265625
1761315425366309000,8.16730908203125,-0.9510498046875,-0.3767547607421875,0.0090484619140625
1761315425376357000,8.177357177734375,-0.94659423828125,-0.384765625,0.0067596435546875
1761315425386405000,8.187405029296874,-0.96038818359375,-0.3804931640625,-0.001617431640625
1761315425396453000,8.197453125,-0.9884796142578125,-0.3588409423828125,-0.01617431640625
1761315425406501000,8.207501220703126,-0.9622955322265625,-0.4135894775390625,-0.00494384765625
1761315425416549000,8.217549072265625,-0.9208221435546875,-0.4380035400390625,-0.0126800537109375
1761315425426597000,8.22759716796875,-0.9493255615234375,-0.3949737548828125,-0.0230560302734375
1761315425436645400,8.237645263671874,-0.9525604248046875,-0.3774566650390625,-0.0205841064453125
1761315425446693000,8.247693115234375,-0.9503631591796875,-0.388885498046875,-0.013336181640625
1761315425456741000,8.2577412109375,-0.9495849609375,-0.3956756591796875,-0.0041046142578125
1761315425466789000,8.2677890625,-0.96282958984375,-0.395416259765625,0.0075531005859375
1761315425476837000,8.277837158203125,-0.978302001953125,-0.399749755859375,0.0093231201171875
1761315425486885000,8.287885009765626,-0.9487762451171875,-0.4075775146484375,0.0218048095703125
1761315425496933000,8.29793310546875,-0.9272918701171875,-0.418792724609375,0.03497314453125
1761315425506981000,8.307981201171875,-0.9104766845703125,-0.4185791015625,0.0425567626953125
1761315425517029000,8.318029052734374,-0.9048919677734375,-0.43109130859375,0.0516510009765625
1761315425527076900,8.328076904296875,-0.9023590087890625,-0.462371826171875,0.0659942626953125
1761315425537125000,8.338125,-0.906280517578125,-0.457611083984375,0.0690460205078125
1761315425547173000,8.348173095703125,-0.9528656005859375,-0.4432220458984375,0.07550048828125
1761315425557221000,8.35822119140625,-0.9507598876953125,-0.45440673828125,0.0869903564453125
1761315425567269000,8.36826904296875,-0.9042510986328125,-0.464202880859375,0.102783203125
1761315425577317000,8.378317138671875,-0.933135986328125,-0.4305267333984375,0.1077423095703125
1761315425587365000,8.388365234375,-0.98138427734375,-0.3917999267578125,0.09112548828125
1761315425597413000,8.3984130859375,-0.9436492919921875,-0.389617919921875,0.0946502685546875
1761315425607460900,8.4084609375,-0.9263153076171875,-0.3729400634765625,0.090545654296875
1761315425617509000,8.418509033203126,-0.9125213623046875,-0.343597412109375,0.0929718017578125
1761315425627557000,8.42855712890625,-0.9344329833984375,-0.3116455078125,0.092041015625
1761315425637605000,8.438605224609375,-0.962646484375,-0.3009033203125,0.09490966796875
1761315425647653000,8.448653076171874,-0.97515869140625,-0.306427001953125,0.0884552001953125
1761315425657701000,8.458701171875,-0.992706298828125,-0.3061676025390625,0.0743865966796875
1761315425667749000,8.4687490234375,-1.0029754638671875,-0.2963714599609375,0.0626678466796875
1761315425677797000,8.478797119140625,-0.998870849609375,-0.2793121337890625,0.0417633056640625
1761315425687844900,8.488844970703125,-0.994415283203125,-0.2621612548828125,0.0218353271484375
1761315425697893000,8.49889306640625,-0.9954376220703125,-0.255615234375,0.0053863525390625
1761315425707941000,8.508941162109375,-1.005615234375,-0.2542724609375,-0.0017242431640625
1761315425717988900,8.51898876953125,-1.01861572265625,-0.251434326171875,-0.0007781982421875
1761315425728037000,8.529037109375,-1.00958251953125,-0.2430877685546875,-0.001708984375
1761315425738085000,8.539085205078125,-0.9849853515625,-0.2371826171875,0.0016021728515625
1761315425748133000,8.549133056640626,-0.958465576171875,-0.2362518310546875,0.0081329345703125
1761315425758181000,8.55918115234375,-0.9210357666015625,-0.241790771484375,0.0214080810546875
1761315425768229000,8.56922900390625,-0.9075164794921875,-0.2422637939453125,0.032470703125
1761315425778277000,8.579277099609374,-0.9203338623046875,-0.252960205078125,0.0360565185546875
1761315425788325000,8.5893251953125,-0.9112701416015625,-0.28778076171875,0.0441741943359375
1761315425798372900,8.599372802734376,-0.8996734619140625,-0.3155059814453125,0.0486297607421875
1761315425808421000,8.609421142578125,-0.9035491943359375,-0.3216094970703125,0.05230712890625
1761315425818469000,8.61946923828125,-0.902130126953125,-0.3209381103515625,0.0498504638671875
1761315425828516900,8.629516845703124,-0.8878936767578125,-0.322540283203125,0.0497589111328125
1761315425838565000,8.639565185546875,-0.8993988037109375,-0.325714111328125,0.0531463623046875
1761315425848613000,8.649613037109376,-0.9169921875,-0.329803466796875,0.0601348876953125
1761315425858661000,8.6596611328125,-0.918853759765625,-0.33099365234375,0.060577392578125
1761315425868709000,8.669709228515625,-0.9062042236328125,-0.329498291015625,0.0573577880859375
1761315425878757000,8.679757080078126,-0.8950653076171875,-0.3175048828125,0.054351806640625
1761315425888805000,8.68980517578125,-0.8824005126953125,-0.3134918212890625,0.05548095703125
1761315425898853000,8.69985302734375,-0.861572265625,-0.3251190185546875,0.0660400390625
1761315425908900900,8.70990087890625,-0.855804443359375,-0.33905029296875,0.083251953125
1761315425918949000,8.71994921875,-0.8679962158203125,-0.3502197265625,0.0982818603515625
1761315425928997000,8.7299970703125,-0.8715667724609375,-0.35699462890625,0.1045379638671875
1761315425939045000,8.740045166015625,-0.8681182861328125,-0.364593505859375,0.1102142333984375
1761315425949093000,8.750093017578125,-0.8743743896484375,-0.368896484375,0.1143035888671875
1761315425959141000,8.76014111328125,-0.8751220703125,-0.3743133544921875,0.11181640625
1761315425969189000,8.770189208984375,-0.8654632568359375,-0.381622314453125,0.10955810546875
1761315425979237000,8.780237060546876,-0.8731536865234375,-0.38507080078125,0.1081390380859375
1761315425989285000,8.79028515625,-0.888702392578125,-0.3848724365234375,0.1055145263671875
1761315425999333000,8.8003330078125,-0.89288330078125,-0.38555908203125,0.10540771484375
1761315426009381000,8.810381103515626,-0.9034271240234375,-0.3825836181640625,0.1044158935546875
1761315426019428900,8.820428955078125,-0.90557861328125,-0.37664794921875,0.102386474609375
1761315426029477000,8.83047705078125,-0.899505615234375,-0.3766021728515625,0.1022186279296875
1761315426039524000,8.840524169921874,-0.9031219482421875,-0.3795318603515625,0.1060333251953125
1761315426049572000,8.850572021484375,-0.90692138671875,-0.38287353515625,0.112701416015625
1761315426059620000,8.8606201171875,-0.90301513671875,-0.3794097900390625,0.1118316650390625
1761315426069668000,8.870668212890624,-0.9032135009765625,-0.37530517578125,0.1087646484375
1761315426079715800,8.8807158203125,-0.9062347412109375,-0.374664306640625,0.105377197265625
1761315426089764000,8.89076416015625,-0.910369873046875,-0.3774566650390625,0.097442626953125
1761315426099811000,8.90081103515625,-0.9230499267578125,-0.377166748046875,0.0883636474609375
1761315426109860000,8.910860107421875,-0.9226226806640625,-0.37237548828125,0.0768585205078125
1761315426119907000,8.920906982421876,-0.9163818359375,-0.3668975830078125,0.0650482177734375
1761315426129955000,8.930955078125,-0.915008544921875,-0.368438720703125,0.06427001953125
1761315426140003000,8.941003173828125,-0.9265594482421875,-0.3737335205078125,0.06805419921875
1761315426150051000,8.951051025390624,-0.936859130859375,-0.3792572021484375,0.0750885009765625
1761315426160099000,8.96109912109375,-0.933380126953125,-0.3829345703125,0.083038330078125
1761315426170147000,8.97114697265625,-0.9276275634765625,-0.381072998046875,0.0838775634765625
1761315426180195000,8.981195068359375,-0.9134521484375,-0.3802337646484375,0.0821380615234375
1761315426190243000,8.9912431640625,-0.9034576416015625,-0.382843017578125,0.084747314453125
1761315426200291000,9.001291015625,-0.9033355712890625,-0.3868560791015625,0.08831787109375
1761315426210339000,9.011339111328125,-0.9135284423828125,-0.395294189453125,0.09307861328125
1761315426220387000,9.021386962890626,-0.918670654296875,-0.39849853515625,0.0875091552734375
1761315426230435000,9.03143505859375,-0.9113616943359375,-0.39117431640625,0.0835113525390625
1761315426240483000,9.041483154296875,-0.9068450927734375,-0.3824615478515625,0.08087158203125
1761315426250531000,9.051531005859376,-0.910888671875,-0.3815765380859375,0.0817108154296875
1761315426260579000,9.0615791015625,-0.916015625,-0.3807525634765625,0.0854949951171875
1761315426270627000,9.071626953125,-0.9176177978515625,-0.3731536865234375,0.09271240234375
1761315426280675000,9.081675048828124,-0.9158935546875,-0.3668670654296875,0.100189208984375
1761315426290723000,9.09172314453125,-0.9308929443359375,-0.3607025146484375,0.1121673583984375
1761315426300771000,9.10177099609375,-0.9429473876953125,-0.3558349609375,0.1259765625
1761315426310819000,9.111819091796875,-0.9412841796875,-0.3500823974609375,0.1352386474609375
1761315426320867000,9.1218671875,-0.9340667724609375,-0.3529510498046875,0.1486968994140625
1761315426330915000,9.1319150390625,-0.923553466796875,-0.3747100830078125,0.1714935302734375
1761315426340963000,9.141963134765625,-0.9304656982421875,-0.398040771484375,0.187744140625
1761315426351011000,9.152010986328126,-0.94061279296875,-0.4042816162109375,0.18499755859375
1761315426361059000,9.16205908203125,-0.947906494140625,-0.391754150390625,0.1619720458984375
1761315426371107000,9.172107177734375,-0.9548492431640625,-0.3748779296875,0.1351165771484375
1761315426381155000,9.182155029296876,-0.963134765625,-0.3660888671875,0.1131591796875
1761315426391203000,9.192203125,-0.9742431640625,-0.35552978515625,0.0988922119140625
1761315426401251000,9.2022509765625,-0.9913330078125,-0.339996337890625,0.088836669921875
1761315426411299000,9.212299072265624,-0.9944610595703125,-0.3253936767578125,0.0823211669921875
1761315426421347000,9.22234716796875,-0.9914093017578125,-0.3123931884765625,0.0776824951171875
1761315426431395000,9.23239501953125,-0.9969024658203125,-0.294647216796875,0.0723724365234375
1761315426441443000,9.242443115234375,-0.996246337890625,-0.2807769775390625,0.0651092529296875
1761315426451491000,9.252490966796875,-0.980926513671875,-0.2710418701171875,0.063201904296875
1761315426461539000,9.2625390625,-0.9662628173828125,-0.2631072998046875,0.060760498046875
1761315426471587000,9.272587158203125,-0.955078125,-0.2632598876953125,0.05828857421875
1761315426481635000,9.282635009765626,-0.9475250244140625,-0.2674102783203125,0.065185546875
1761315426491683000,9.29268310546875,-0.948089599609375,-0.2694549560546875,0.073974609375
1761315426501731000,9.30273095703125,-0.948394775390625,-0.26861572265625,0.0899505615234375
1761315426511780000,9.312780029296874,-0.9434661865234375,-0.2673492431640625,0.1068267822265625
1761315426521827800,9.322827880859375,-0.93206787109375,-0.2663421630859375,0.1167449951171875
1761315426531875800,9.332875732421876,-0.9235687255859375,-0.2676239013671875,0.123199462890625
1761315426541924000,9.342924072265625,-0.9207305908203125,-0.2725067138671875,0.1263580322265625
1761315426551971800,9.352971923828125,-0.9134063720703125,-0.27142333984375,0.1219482421875
1761315426562019800,9.363019775390624,-0.905853271484375,-0.2705841064453125,0.119384765625
1761315426572068000,9.373068115234375,-0.91015625,-0.2755126953125,0.1250152587890625
1761315426582115800,9.38311572265625,-0.9200897216796875,-0.286285400390625,0.133941650390625
1761315426592163800,9.393163818359374,-0.9125518798828125,-0.2918243408203125,0.129852294921875
1761315426602211800,9.4032119140625,-0.910614013671875,-0.297821044921875,0.1181640625
1761315426612259800,9.413259765625,-0.910064697265625,-0.2923126220703125,0.1243896484375
1761315426622306800,9.423306884765625,-0.90557861328125,-0.2763519287109375,0.139190673828125
1761315426632355000,9.43335498046875,-0.9296875,-0.289093017578125,0.137115478515625
1761315426642406000,9.443406005859375,-0.9457550048828125,-0.3046112060546875,0.1427001953125
1761315426652454000,9.453453857421875,-0.942657470703125,-0.29815673828125,0.151092529296875
1761315426662502000,9.463501953125,-0.948516845703125,-0.28363037109375,0.160675048828125
1761315426672550000,9.4735498046875,-0.9586944580078125,-0.2799072265625,0.166534423828125
1761315426682598000,9.483597900390626,-0.9695281982421875,-0.2846527099609375,0.164825439453125
1761315426692646100,9.493646240234375,-0.9644012451171875,-0.28948974609375,0.1612091064453125
1761315426702694000,9.50369384765625,-0.957183837890625,-0.28692626953125,0.1554412841796875
1761315426712742000,9.513741943359374,-0.9578094482421875,-0.2836151123046875,0.14556884765625
1761315426722790000,9.523789794921875,-0.961395263671875,-0.2901763916015625,0.13916015625
1761315426732838000,9.533837890625,-0.9561309814453125,-0.294097900390625,0.136932373046875
1761315426742886000,9.543885986328124,-0.949249267578125,-0.291778564453125,0.1425933837890625
1761315426752934000,9.553933837890625,-0.9485321044921875,-0.291839599609375,0.1450042724609375
1761315426762982000,9.56398193359375,-0.9496307373046875,-0.2937469482421875,0.141326904296875
1761315426773030000,9.57402978515625,-0.956390380859375,-0.2932891845703125,0.1345977783203125
1761315426783078000,9.584077880859375,-0.958984375,-0.296600341796875,0.127410888671875
1761315426793126000,9.5941259765625,-0.95111083984375,-0.2977142333984375,0.122528076171875
1761315426803174100,9.604174072265625,-0.9524383544921875,-0.28948974609375,0.1163482666015625
1761315426813222000,9.614221923828126,-0.9519195556640625,-0.2816314697265625,0.112091064453125
1761315426823270000,9.624269775390625,-0.9559478759765625,-0.273345947265625,0.1118927001953125
1761315426833318000,9.63431787109375,-0.9563446044921875,-0.26483154296875,0.1100006103515625
1761315426843366000,9.644365966796874,-0.9555511474609375,-0.2615814208984375,0.115966796875
1761315426853414000,9.654413818359375,-0.9644775390625,-0.2601165771484375,0.1203765869140625
1761315426863462000,9.6644619140625,-0.9624481201171875,-0.25994873046875,0.1228790283203125
1761315426873510000,9.674510009765624,-0.9531707763671875,-0.26226806640625,0.128936767578125
1761315426883558000,9.684557861328125,-0.95001220703125,-0.2582855224609375,0.12371826171875
1761315426893606000,9.69460595703125,-0.942596435546875,-0.2542877197265625,0.11529541015625
1761315426903654000,9.70465380859375,-0.937744140625,-0.254638671875,0.10992431640625
1761315426913702000,9.714701904296875,-0.9273223876953125,-0.2566375732421875,0.0992584228515625
1761315426923750000,9.72475,-0.91778564453125,-0.2596282958984375,0.091522216796875
1761315426933798000,9.7347978515625,-0.926055908203125,-0.2647705078125,0.08807373046875
1761315426943846000,9.744845947265626,-0.9397735595703125,-0.26898193359375,0.0827789306640625
1761315426953894000,9.754893798828125,-0.9362945556640625,-0.26617431640625,0.07391357421875
1761315426963942000,9.76494189453125,-0.9279327392578125,-0.257659912109375,0.061431884765625
1761315426973989000,9.774989013671876,-0.926483154296875,-0.24859619140625,0.0545806884765625
1761315426984036900,9.785036865234375,-0.918426513671875,-0.2474822998046875,0.0595245361328125
1761315426994084900,9.7950849609375,-0.917022705078125,-0.249420166015625,0.0655059814453125
1761315427004132900,9.8051328125,-0.8917388916015625,-0.22686767578125,0.068084716796875
1761315427014180900,9.815180908203125,-0.9721832275390625,-0.2310943603515625,0.080230712890625
1761315427024228900,9.825228759765626,-0.9976654052734375,-0.2592926025390625,0.07476806640625
1761315427034276900,9.83527685546875,-0.991180419921875,-0.2827606201171875,0.06298828125
1761315427044324900,9.845324951171875,-0.986480712890625,-0.28619384765625,0.0495452880859375
1761315427054373000,9.855373046875,-0.9627838134765625,-0.2805633544921875,0.0275421142578125
1761315427064420900,9.8654208984375,-0.9352874755859375,-0.2891082763671875,0.0137939453125
1761315427074468900,9.87546875,-0.9227447509765625,-0.306640625,0.0077972412109375
1761315427084517000,9.88551708984375,-0.910858154296875,-0.3076934814453125,0.003997802734375
