time,seconds_elapsed,z,y,x
1761315417262522000,0.063522216796875,-0.24986016750335693,-0.4900525212287903,-0.3994145095348358
1761315417272571100,0.073571044921875,-0.25025591254234314,-0.5020799040794373,-0.45266440510749817
1761315417282619100,0.083619140625,-0.24579565227031708,-0.47962918877601624,-0.4640398323535919
1761315417292667100,0.093667236328125,-0.23460131883621216,-0.42491772770881653,-0.422117680311203
1761315417302715400,0.10371533203125,-0.20711617171764374,-0.33339235186576843,-0.3448319435119629
1761315417312763100,0.11376318359375,-0.1646624505519867,-0.223667711019516,-0.24675492942333221
1761315417322811100,0.12381103515625,-0.12289955466985703,-0.1119808629155159,-0.12615101039409637
1761315417332860200,0.133860107421875,-0.09585782140493393,-0.07099401205778122,-0.027398601174354553
1761315417342908200,0.143908203125,-0.08505470305681229,-0.11602593958377838,0.030493993312120438
1761315417352956400,0.153956298828125,-0.07151226699352264,-0.20812949538230896,0.06322930008172989
1761315417363004200,0.164004150390625,-0.05434579774737358,-0.3092840909957886,0.06440082937479019
1761315417373052200,0.17405224609375,-0.046304646879434586,-0.3711996376514435,0.04996809363365173
1761315417383101200,0.18410107421875,-0.04505296051502228,-0.4034990072250366,0.005651494022458792
1761315417393149200,0.194149169921875,-0.06641630828380585,-0.4375048875808716,-0.06294727325439453
1761315417403197200,0.204197265625,-0.11586135625839233,-0.45076343417167664,-0.12230221182107925
1761315417413245200,0.2142451171875,-0.18957339227199554,-0.46859678626060486,-0.1350819170475006
1761315417423293200,0.224293212890625,-0.25334250926971436,-0.5020173192024231,-0.10637623816728592
1761315417433341200,0.234341064453125,-0.2857779562473297,-0.5135487914085388,-0.050769172608852386
1761315417443390200,0.24439013671875,-0.27598071098327637,-0.4806465208530426,-0.0156474020332098
1761315417453438200,0.254438232421875,-0.2298891246318817,-0.4109595715999603,-0.013017531484365463
1761315417463486200,0.264486328125,-0.14444400370121002,-0.30795595049858093,-0.02840687334537506
1761315417473534200,0.2745341796875,-0.030781349167227745,-0.20302875339984894,-0.043838560581207275
1761315417483582200,0.284582275390625,0.07000251859426498,-0.13961514830589294,-0.06666424870491028
1761315417493631200,0.29463134765625,0.13601616024971008,-0.13594451546669006,-0.09059514850378036
1761315417503679500,0.304679443359375,0.1770104616880417,-0.17057625949382782,-0.09070993214845657
1761315417513727500,0.3147275390625,0.19424563646316528,-0.2350093126296997,-0.06362930685281754
1761315417523775500,0.324775390625,0.22304612398147583,-0.23798593878746033,0.027597805485129356
1761315417533823500,0.334823486328125,0.2551060616970062,-0.21299882233142853,0.1577579379081726
1761315417543871700,0.344871826171875,0.2604512870311737,-0.2285543531179428,0.2981254458427429
1761315417553920500,0.35492041015625,0.25154992938041687,-0.27647101879119873,0.42268386483192444
1761315417563968500,0.364968505859375,0.24455328285694122,-0.3308013677597046,0.5147038102149963
1761315417574016500,0.3750166015625,0.2549116611480713,-0.3807814419269562,0.5666216015815735
1761315417584064500,0.385064453125,0.28298935294151306,-0.41107887029647827,0.5727434158325195
1761315417594112500,0.395112548828125,0.3027864992618561,-0.398808091878891,0.5574571490287781
1761315417604161500,0.40516162109375,0.2914848327636719,-0.333088755607605,0.5131053924560547
1761315417614209500,0.41520947265625,0.24434103071689606,-0.23975826799869537,0.4232407510280609
1761315417624257500,0.425257568359375,0.16377508640289307,-0.13518552482128143,0.29325157403945923
1761315417634305500,0.435305419921875,0.07742874324321747,-0.03128788247704506,0.13530749082565308
1761315417644353500,0.445353515625,0.008637163788080215,0.10813046246767044,-0.004249872639775276
1761315417654402600,0.455402587890625,-0.006943127140402794,0.2924688756465912,-0.12037967145442963
1761315417664450600,0.465450439453125,0.02058570273220539,0.47449353337287903,-0.20734120905399323
1761315417674498600,0.47549853515625,0.055320512503385544,0.6278833746910095,-0.27715224027633667
1761315417684546600,0.485546630859375,0.06812286376953125,0.8185443878173828,-0.3274542987346649
1761315417694594600,0.495594482421875,0.08929765224456787,1.0187067985534668,-0.34869512915611267
1761315417704642600,0.505642578125,0.14465464651584625,1.1949489116668701,-0.3506339192390442
1761315417714691600,0.515691650390625,0.24779142439365387,1.3512530326843262,-0.34512144327163696
1761315417724739600,0.525739501953125,0.37910550832748413,1.5179426670074463,-0.3560776710510254
1761315417734787600,0.53578759765625,0.47411003708839417,1.5528119802474976,-0.3877975344657898
1761315417744835600,0.545835693359375,0.5072235465049744,1.2658857107162476,-0.4150691032409668
1761315417754883600,0.555883544921875,0.5693068504333496,0.7697555422782898,-0.37995797395706177
1761315417764931300,0.565931396484375,0.63031405210495,0.4329937696456909,-0.24773229658603668
1761315417774980600,0.575980712890625,0.6936621069908142,0.3036986291408539,-0.05302406847476959
1761315417785028400,0.5860283203125,0.7641091346740723,0.3347020745277405,0.1731262356042862
1761315417795076600,0.59607666015625,0.8485637903213501,0.5044136047363281,0.4046790301799774
1761315417805124600,0.60612451171875,0.9032704830169678,0.7059014439582825,0.5810514092445374
1761315417815172400,0.61617236328125,0.9027979969978333,0.8454473614692688,0.6815559267997742
1761315417825220600,0.626220703125,0.8507430553436279,0.9248098731040955,0.6923771500587463
1761315417835269400,0.636269287109375,0.7718650102615356,0.9709291458129883,0.6283595561981201
1761315417845317600,0.646317626953125,0.6809197068214417,0.9476741552352905,0.4969940483570099
1761315417855365600,0.65636572265625,0.5758110880851746,0.8196381330490112,0.33396199345588684
1761315417865413400,0.666413330078125,0.4730769991874695,0.661766767501831,0.2097305953502655
1761315417875461600,0.676461669921875,0.39267218112945557,0.40204116702079773,0.1368742287158966
1761315417885510400,0.686510498046875,0.31277841329574585,0.15727058053016663,0.13332051038742065
1761315417895558700,0.69655859375,0.2157948762178421,0.02604598179459572,0.19971896708011627
1761315417905606400,0.7066064453125,0.11703820526599884,-0.04038577154278755,0.3305070698261261
1761315417915654400,0.716654296875,0.04024968296289444,-0.07774300128221512,0.48025768995285034
1761315417925702700,0.72670263671875,-0.004024302586913109,0.15234772861003876,0.6368614435195923
1761315417935750400,0.73675048828125,0.05462835729122162,0.1301787793636322,0.7521408796310425
1761315417945799700,0.746799560546875,0.1544305831193924,-0.1490214318037033,0.8024985790252686
1761315417955847400,0.756847412109375,0.27236121892929077,-0.7569782137870789,0.6812243461608887
1761315417965895400,0.7668955078125,0.29905515909194946,-1.227228045463562,0.4439111351966858
1761315417975943700,0.776943603515625,0.2493661493062973,-1.3304966688156128,0.1893845796585083
1761315417985991400,0.786991455078125,0.1825498342514038,-1.1634749174118042,-0.06307616829872131
1761315417996039700,0.797039794921875,0.03290814906358719,-0.8054424524307251,-0.3111341893672943
1761315418006088400,0.80708837890625,-0.1915944665670395,-0.3468383848667145,-0.5347795486450195
1761315418016136700,0.81713671875,-0.40573763847351074,0.04247555509209633,-0.7434158325195312
1761315418026184400,0.827184326171875,-0.5631927847862244,0.1437385231256485,-0.8933935761451721
1761315418036232400,0.837232421875,-0.6708734631538391,0.1445246934890747,-0.8832645416259766
1761315418046280700,0.84728076171875,-0.7266509532928467,0.05336868390440941,-0.8171379566192627
1761315418056328400,0.857328369140625,-0.6793175339698792,-0.08528107404708862,-0.7127020955085754
1761315418066377700,0.867377685546875,-0.5460955500602722,-0.19087328016757965,-0.5279557108879089
1761315418076425500,0.877425537109375,-0.41355881094932556,-0.2827608585357666,-0.30214306712150574
1761315418086473500,0.887473388671875,-0.26913824677467346,-0.3399865925312042,-0.03943342715501785
1761315418096521700,0.897521728515625,-0.1498507410287857,-0.402355432510376,0.2123684585094452
1761315418106569500,0.907569580078125,-0.12891936302185059,-0.5219518542289734,0.37487587332725525
1761315418116617500,0.917617431640625,-0.2050980180501938,-0.6551455855369568,0.4273923337459564
1761315418126666500,0.92766650390625,-0.30355268716812134,-0.7547070980072021,0.3887290954589844
1761315418136714500,0.937714599609375,-0.3916407525539398,-0.8019416928291321,0.2866877019405365
1761315418146762500,0.947762451171875,-0.45624983310699463,-0.7984223365783691,0.14021463692188263
1761315418156810500,0.957810546875,-0.5101212859153748,-0.7598235607147217,-0.009296296164393425
1761315418166858500,0.9678583984375,-0.5571495294570923,-0.6925148367881775,-0.12802481651306152
1761315418176906500,0.977906494140625,-0.5916180610656738,-0.5826077461242676,-0.19790083169937134
1761315418186955500,0.98795556640625,-0.6171364188194275,-0.4600837230682373,-0.20965921878814697
1761315418197003500,0.99800341796875,-0.6246982216835022,-0.3559514582157135,-0.18174077570438385
1761315418207051500,1.008051513671875,-0.6007130146026611,-0.24696184694766998,-0.13524197041988373
1761315418217099500,1.018099609375,-0.5547239184379578,-0.14546479284763336,-0.07369339466094971
1761315418227147500,1.0281474609375,-0.48457813262939453,-0.05399532616138458,0.0005483448621816933
1761315418237195500,1.038195556640625,-0.40352535247802734,-0.006115416996181011,0.06347404420375824
1761315418247244500,1.04824462890625,-0.31973007321357727,-0.011048389598727226,0.11055713891983032
1761315418257292500,1.05829248046875,-0.2580033242702484,-0.04277196526527405,0.12615953385829926
1761315418267340500,1.068340576171875,-0.20449481904506683,-0.09266495704650879,0.10699915140867233
1761315418277388500,1.078388427734375,-0.17563015222549438,-0.15734435617923737,0.05946412682533264
1761315418287436500,1.0884365234375,-0.15561968088150024,-0.2275676429271698,0.0001179780374513939
1761315418297484500,1.098484619140625,-0.16502410173416138,-0.2733370065689087,-0.04788896068930626
1761315418307533600,1.108533447265625,-0.19569626450538635,-0.2803022265434265,-0.07772328704595566
1761315418317581300,1.118581298828125,-0.23044945299625397,-0.26628947257995605,-0.08525338023900986
1761315418327629600,1.128629638671875,-0.2621690332889557,-0.20581920444965363,-0.054427821189165115
1761315418337677600,1.138677490234375,-0.2830338478088379,-0.12032880634069443,-0.0023180153220891953
1761315418347725600,1.1487255859375,-0.2812255620956421,-0.03243596851825714,0.05914374813437462
1761315418357773600,1.158773681640625,-0.26331737637519836,0.05278544872999191,0.11466612666845322
1761315418367822600,1.168822509765625,-0.23501011729240417,0.12249715626239777,0.16127970814704895
1761315418377870600,1.17887060546875,-0.20260131359100342,0.1557408571243286,0.18557065725326538
1761315418387918600,1.188918701171875,-0.1623375117778778,0.14465652406215668,0.1787833273410797
1761315418397966600,1.198966552734375,-0.12706740200519562,0.07416237890720367,0.1738136112689972
1761315418408014600,1.2090146484375,-0.11202720552682877,0.009918410331010818,0.19558654725551605
1761315418418062300,1.219062255859375,-0.12844160199165344,0.009885387495160103,0.23661600053310394
1761315418428110600,1.229110595703125,-0.15722131729125977,0.011442537419497967,0.2620672881603241
1761315418438159400,1.239159423828125,-0.17559099197387695,-0.015732889994978905,0.2526753842830658
1761315418448207600,1.24920751953125,-0.17780780792236328,-0.0579698272049427,0.21326647698879242
1761315418458255600,1.259255615234375,-0.170879065990448,-0.1069573387503624,0.16174708306789398
1761315418468303400,1.269303466796875,-0.1909150928258896,-0.1314416527748108,0.11934210360050201
1761315418478351600,1.2793515625,-0.21902981400489807,-0.09763867408037186,0.10032207518815994
1761315418488399600,1.289399658203125,-0.24744254350662231,-0.0348338820040226,0.07674617320299149
1761315418498448400,1.299448486328125,-0.26562023162841797,0.0005406216951087117,0.03478328138589859
1761315418508496600,1.30949658203125,-0.25603604316711426,0.010569553822278976,-0.020782776176929474
1761315418518544400,1.31954443359375,-0.23669269680976868,0.032838374376297,-0.0953182652592659
1761315418528592400,1.32959228515625,-0.21067069470882416,0.025797775015234947,-0.1674633026123047
1761315418538640400,1.339640380859375,-0.17880064249038696,0.0040978058241307735,-0.21153861284255981
1761315418548688400,1.3496884765625,-0.137834832072258,0.03895112872123718,-0.20488522946834564
1761315418558737400,1.3597373046875,-0.09219437837600708,0.08271698653697968,-0.18002675473690033
1761315418568785400,1.369785400390625,-0.03855964168906212,0.09824587404727936,-0.15332351624965668
1761315418578833400,1.37983349609375,0.014988270588219166,0.10216498374938965,-0.11724859476089478
1761315418588881400,1.38988134765625,0.04399755224585533,0.14495372772216797,-0.08521875739097595
1761315418598929400,1.399929443359375,0.04950736463069916,0.24781672656536102,-0.0713476836681366
1761315418608977400,1.409977294921875,0.04728229343891144,0.3687617778778076,-0.10202010720968246
1761315418619025400,1.420025390625,0.040531180799007416,0.5083564519882202,-0.1771622598171234
1761315418629074400,1.430074462890625,0.018666362389922142,0.6482828855514526,-0.2810990512371063
1761315418639122400,1.440122314453125,-0.020306071266531944,0.743360161781311,-0.393049031496048
1761315418649170400,1.45017041015625,-0.08073266595602036,0.7808457612991333,-0.4768262207508087
1761315418659218400,1.460218505859375,-0.14929388463497162,0.7854466438293457,-0.4891180396080017
1761315418669266400,1.470266357421875,-0.21270614862442017,0.8175917863845825,-0.42236295342445374
1761315418679314400,1.480314453125,-0.25596973299980164,0.874052107334137,-0.28806960582733154
1761315418689363500,1.490363525390625,-0.2700951397418976,0.9547155499458313,-0.11012064665555954
1761315418699411500,1.500411376953125,-0.23476190865039825,0.9636735916137695,0.049900978803634644
1761315418709459200,1.510459228515625,-0.1644616425037384,0.8064398169517517,0.15870335698127747
1761315418719507500,1.520507568359375,-0.07971587032079697,0.5304769277572632,0.2300230860710144
1761315418729555500,1.530555419921875,0.010073406621813774,0.25792554020881653,0.3103426992893219
1761315418739603500,1.540603515625,0.10198122262954712,0.014227405190467834,0.4121646583080292
1761315418749651500,1.5506513671875,0.1603579819202423,-0.21743671596050262,0.5128939151763916
1761315418759700200,1.5607001953125,0.17979054152965546,-0.4039093852043152,0.6131917834281921
1761315418769748500,1.57074853515625,0.18164196610450745,-0.5128126740455627,0.6933712959289551
1761315418779796500,1.58079638671875,0.1766541302204132,-0.5675574541091919,0.7517826557159424
1761315418789844500,1.590844482421875,0.16997359693050385,-0.5862442851066589,0.7968779802322388
1761315418799892500,1.600892578125,0.15746472775936127,-0.6051071882247925,0.8057407140731812
1761315418809940200,1.610940185546875,0.14514946937561035,-0.5699316263198853,0.8019641041755676
1761315418819989500,1.620989501953125,0.1329769641160965,-0.5509912371635437,0.7718144655227661
1761315418830037200,1.631037353515625,0.1358955204486847,-0.5903970003128052,0.6969748139381409
1761315418840085500,1.64108544921875,0.1651380956172943,-0.6041258573532104,0.6152700781822205
1761315418850133500,1.651133544921875,0.18546226620674133,-0.5374413728713989,0.5609035491943359
1761315418860181200,1.66118115234375,0.18755552172660828,-0.47249937057495117,0.5060112476348877
1761315418870229500,1.6712294921875,0.18094022572040558,-0.3995215594768524,0.44421979784965515
1761315418880277500,1.681277587890625,0.1764298975467682,-0.3279200792312622,0.3870459794998169
1761315418890326500,1.691326416015625,0.16225282847881317,-0.19345787167549133,0.35320279002189636
1761315418900374500,1.70137451171875,0.13599325716495514,-0.08730693906545639,0.33289778232574463
1761315418910422300,1.71142236328125,0.11059628427028656,-0.0399378277361393,0.29910653829574585
1761315418920470500,1.721470458984375,0.10380548983812332,-0.028004735708236694,0.2507406175136566
1761315418930518300,1.731518310546875,0.10655094683170319,0.007101851515471935,0.1999562531709671
1761315418940566300,1.741566162109375,0.11311457306146622,0.09413421899080276,0.15387265384197235
1761315418950615300,1.751615234375,0.1373719722032547,0.1826867312192917,0.08823558688163757
1761315418960663300,1.761663330078125,0.18262307345867157,0.2440454214811325,0.0046328348107635975
1761315418970711600,1.771711669921875,0.2448185384273529,0.319866418838501,-0.07515174150466919
1761315418980759300,1.78175927734375,0.29506945610046387,0.4350292384624481,-0.12916570901870728
1761315418990807300,1.791807373046875,0.3272191286087036,0.5541481375694275,-0.15260525047779083
1761315419000855600,1.80185546875,0.3309638202190399,0.6393471956253052,-0.16041630506515503
1761315419010903300,1.8119033203125,0.3271999657154083,0.6734194159507751,-0.16962365806102753
1761315419020952600,1.82195263671875,0.30875757336616516,0.6083296537399292,-0.18324679136276245
1761315419031000300,1.832000244140625,0.2771836817264557,0.41544967889785767,-0.2236943393945694
1761315419041048600,1.842048583984375,0.22672076523303986,0.12013120204210281,-0.28691911697387695
1761315419051096300,1.852096435546875,0.17277896404266357,-0.20717236399650574,-0.3517630994319916
1761315419061144300,1.862144287109375,0.12842056155204773,-0.5016998648643494,-0.4002358317375183
1761315419071192600,1.872192626953125,0.09699045866727829,-0.7468659281730652,-0.41642117500305176
1761315419081240300,1.882240234375,0.07384226471185684,-0.9452951550483704,-0.3941715359687805
1761315419091289600,1.89228955078125,0.06365939974784851,-1.0860544443130493,-0.34019753336906433
1761315419101337300,1.90233740234375,0.06000927463173866,-1.144139289855957,-0.25229084491729736
1761315419111385300,1.91238525390625,0.03701980412006378,-1.0971858501434326,-0.16113989055156708
1761315419121433600,1.92243359375,-0.017778730019927025,-0.9497119784355164,-0.07073089480400085
1761315419131481300,1.9324814453125,-0.09774253517389297,-0.6927238702774048,-0.00011531487689353526
1761315419141529300,1.942529296875,-0.17710527777671814,-0.3855831027030945,0.035418711602687836
1761315419151577600,1.95257763671875,-0.22749467194080353,-0.09933004528284073,0.026747990399599075
1761315419161626400,1.96262646484375,-0.2399396300315857,0.11575829237699509,-0.021583056077361107
1761315419171674400,1.97267431640625,-0.21463720500469208,0.2536511719226837,-0.10425449907779694
1761315419181722400,1.982722412109375,-0.16024187207221985,0.33109191060066223,-0.18930095434188843
1761315419191770400,1.992770263671875,-0.09238132834434509,0.37735339999198914,-0.26645833253860474
1761315419201818400,2.002818359375,-0.018376877531409264,0.40149709582328796,-0.31384366750717163
1761315419211866400,2.012866455078125,0.06096668168902397,0.40205448865890503,-0.3360957205295563
1761315419221915400,2.022915283203125,0.13717329502105713,0.3778301179409027,-0.327484667301178
1761315419231963400,2.03296337890625,0.20312409102916718,0.32522496581077576,-0.30047672986984253
1761315419242011400,2.043011474609375,0.24890249967575073,0.27003014087677,-0.24752111732959747
1761315419252059400,2.053059326171875,0.2735268771648407,0.22771944105625153,-0.18128643929958344
1761315419262107400,2.063107421875,0.289980411529541,0.19906170666217804,-0.1100468784570694
1761315419272155600,2.07315576171875,0.2932225465774536,0.14553456008434296,-0.06058771163225174
1761315419282203400,2.083203369140625,0.30089324712753296,0.05307253822684288,-0.042083803564310074
1761315419292252400,2.09325244140625,0.3073953688144684,-0.06538965553045273,-0.042811647057533264
1761315419302300400,2.103300537109375,0.30774423480033875,-0.18727774918079376,-0.05675648897886276
1761315419312348400,2.113348388671875,0.3003406524658203,-0.29156073927879333,-0.06462959200143814
1761315419322396400,2.123396484375,0.2806742787361145,-0.38608965277671814,-0.06822699308395386
1761315419332444400,2.1334443359375,0.24616023898124695,-0.4479154646396637,-0.07534322142601013
1761315419342492400,2.143492431640625,0.18224623799324036,-0.4531717300415039,-0.09605196118354797
1761315419352540400,2.15354052734375,0.10548780858516693,-0.4170244038105011,-0.1308853179216385
1761315419362589400,2.16358935546875,0.04296744242310524,-0.37581783533096313,-0.1857222020626068
1761315419372637400,2.173637451171875,-0.004848018288612366,-0.3604370057582855,-0.2448214739561081
1761315419382685400,2.183685546875,-0.02761271968483925,-0.38354524970054626,-0.2918992340564728
1761315419392733400,2.1937333984375,-0.031183484941720963,-0.4166611433029175,-0.29913637042045593
1761315419402781400,2.203781494140625,-0.035782232880592346,-0.4127840995788574,-0.26571422815322876
1761315419412829400,2.213829345703125,-0.04315785691142082,-0.3989314138889313,-0.2110975980758667
1761315419422877200,2.223877197265625,-0.03923475369811058,-0.38057929277420044,-0.147322878241539
1761315419432926500,2.233926513671875,-0.03129054605960846,-0.3566263020038605,-0.07020598649978638
1761315419442974200,2.24397412109375,-0.0179398525506258,-0.3160695433616638,0.023360449820756912
1761315419453022500,2.2540224609375,0.004976915195584297,-0.2472129911184311,0.12431955337524414
1761315419463070500,2.264070556640625,0.0401357002556324,-0.14961053431034088,0.2267889380455017
1761315419473118200,2.2741181640625,0.08887208253145218,-0.0345635712146759,0.327630877494812
1761315419483166500,2.28416650390625,0.15160390734672546,0.05932031571865082,0.4181743562221527
1761315419493214500,2.29421435546875,0.1964302361011505,0.07266035676002502,0.460407018661499
1761315419503263700,2.304263671875,0.21176977455615997,0.04446680098772049,0.4447782635688782
1761315419513311700,2.314311767578125,0.21127869188785553,0.026700586080551147,0.401346892118454
1761315419523359700,2.32435986328125,0.19019711017608643,0.02480122074484825,0.3421187400817871
1761315419533407700,2.33440771484375,0.1423448920249939,-0.004664793144911528,0.28517261147499084
1761315419543455700,2.344455810546875,0.0728403851389885,-0.050910584628582,0.22608773410320282
1761315419553503700,2.354503662109375,0.008056861348450184,-0.07707614451646805,0.19122348725795746
1761315419563551700,2.3645517578125,-0.04056047648191452,-0.08177848905324936,0.18561939895153046
1761315419573599700,2.374599853515625,-0.0667840912938118,-0.055933307856321335,0.20493850111961365
1761315419583648800,2.384648681640625,-0.08696179836988449,-0.01182044018059969,0.23508867621421814
1761315419593696800,2.39469677734375,-0.10806308686733246,0.03152010962367058,0.26072266697883606
1761315419603744800,2.404744873046875,-0.11273906379938126,0.06779129803180695,0.2878115475177765
1761315419613793000,2.41479296875,-0.09624850749969482,0.09290650486946106,0.3080129623413086
1761315419623840800,2.4248408203125,-0.0655587688088417,0.08574126660823822,0.31017598509788513
1761315419633888800,2.434888671875,-0.029983198270201683,0.04009628668427467,0.29350537061691284
1761315419643936800,2.444936767578125,0.008566590026021004,-0.027951739728450775,0.2608955204486847
1761315419653985800,2.45498583984375,0.04296344518661499,-0.10137429088354111,0.21945272386074066
1761315419664033800,2.46503369140625,0.04897100478410721,-0.16719618439674377,0.17705227434635162
1761315419674081800,2.475081787109375,0.023782294243574142,-0.20972952246665955,0.13390080630779266
1761315419684129800,2.4851298828125,-0.023998809978365898,-0.20447777211666107,0.10713044553995132
1761315419694177800,2.495177734375,-0.09251368790864944,-0.1721629798412323,0.0969126969575882
1761315419704225800,2.505225830078125,-0.16018646955490112,-0.1262040138244629,0.10586518049240112
1761315419714273800,2.515273681640625,-0.2164987474679947,-0.07585428655147552,0.12950845062732697
1761315419724322800,2.52532275390625,-0.2544780969619751,-0.007817708887159824,0.17465808987617493
1761315419734370800,2.535370849609375,-0.2664226293563843,0.044327251613140106,0.21540206670761108
1761315419744418800,2.545418701171875,-0.24857759475708008,0.06535184383392334,0.2377433180809021
1761315419754466800,2.555466796875,-0.2149631679058075,0.05734984204173088,0.23693397641181946
1761315419764514600,2.5655146484375,-0.16521479189395905,0.03605334088206291,0.20695798099040985
1761315419774562800,2.575562744140625,-0.11171267926692963,-0.003751062322407961,0.13624678552150726
1761315419784610800,2.58561083984375,-0.07128936052322388,-0.06361972540616989,0.03116351179778576
1761315419794658800,2.595658935546875,-0.06797479093074799,-0.10133460909128189,-0.09476964920759201
1761315419804707800,2.605707763671875,-0.10847427695989609,-0.11692368984222412,-0.2364886999130249
1761315419814755600,2.615755615234375,-0.19036754965782166,-0.1262921541929245,-0.3900902569293976
1761315419824803800,2.625803955078125,-0.2849992513656616,-0.11082558333873749,-0.5185973644256592
1761315419834851800,2.635851806640625,-0.3650464117527008,-0.04001053422689438,-0.6051117181777954
1761315419844899800,2.64589990234375,-0.4188321530818939,0.049560628831386566,-0.6500416398048401
1761315419854947800,2.65594775390625,-0.43852168321609497,0.13325445353984833,-0.6540116667747498
1761315419864995800,2.665995849609375,-0.40743061900138855,0.2040599286556244,-0.6233837008476257
1761315419875044900,2.676044921875,-0.32765403389930725,0.2706456184387207,-0.5622864961624146
1761315419885092600,2.686092529296875,-0.22257554531097412,0.3428622782230377,-0.48356878757476807
1761315419895140900,2.696140869140625,-0.10438419878482819,0.4207456409931183,-0.41851016879081726
1761315419905188900,2.70618896484375,0.005857622716575861,0.48822373151779175,-0.36588263511657715
1761315419915236600,2.716236572265625,0.10641033202409744,0.5138981938362122,-0.3304583430290222
1761315419925284900,2.726284912109375,0.18923570215702057,0.4779548645019531,-0.3053987920284271
1761315419935332900,2.736332763671875,0.23729856312274933,0.4017668664455414,-0.27784013748168945
1761315419945380600,2.746380615234375,0.23758698999881744,0.30967023968696594,-0.24841727316379547
1761315419955430000,2.756429931640625,0.19047993421554565,0.21981865167617798,-0.22698920965194702
1761315419965477600,2.7664775390625,0.11312948167324066,0.14459340274333954,-0.21437275409698486
1761315419975526000,2.77652587890625,0.01612703874707222,0.0804559588432312,-0.2106640338897705
1761315419985574000,2.786573974609375,-0.06908426433801651,0.04542260989546776,-0.2237369567155838
1761315419995621600,2.79662158203125,-0.12639576196670532,0.045338451862335205,-0.24778716266155243
1761315420005670000,2.806669921875,-0.15438131988048553,0.04911854490637779,-0.28222423791885376
1761315420015717600,2.816717529296875,-0.1613612025976181,0.04742157831788063,-0.3224278390407562
1761315420025766000,2.826765869140625,-0.15239353477954865,0.025292040780186653,-0.36304211616516113
1761315420035814700,2.836814697265625,-0.13455168902873993,-0.019058113917708397,-0.39416247606277466
1761315420045862700,2.846862548828125,-0.11267701536417007,-0.042985282838344574,-0.41382887959480286
1761315420055911000,2.856910888671875,-0.08580465614795685,-0.048856221139431,-0.4164113402366638
1761315420065958700,2.866958740234375,-0.049433596432209015,-0.05926012620329857,-0.416922926902771
1761315420076007000,2.8770068359375,-0.012969860807061195,-0.05025065317749977,-0.4020632803440094
1761315420086055000,2.887054931640625,0.031129423528909683,-0.014552044682204723,-0.38106799125671387
1761315420096102700,2.8971025390625,0.06777425110340118,0.040886711329221725,-0.3540821671485901
1761315420106151000,2.90715087890625,0.10578209161758423,0.07998138666152954,-0.3256968855857849
1761315420116199700,2.91719970703125,0.14520566165447235,0.10142862051725388,-0.2805839776992798
1761315420126248000,2.927248046875,0.18630222976207733,0.13782498240470886,-0.21508380770683289
1761315420136295700,2.937295654296875,0.23304177820682526,0.20014241337776184,-0.1369517296552658
1761315420146343700,2.94734375,0.2895694971084595,0.2535635530948639,-0.04607774689793587
1761315420156392000,2.957391845703125,0.3663122057914734,0.2727023661136627,0.03949494659900665
1761315420166439700,2.967439697265625,0.45264577865600586,0.29545828700065613,0.12731614708900452
1761315420176487700,2.97748779296875,0.5402504801750183,0.3280945122241974,0.20922619104385376
1761315420186536000,2.987535888671875,0.6286631226539612,0.40369313955307007,0.28152167797088623
1761315420196584700,2.997584716796875,0.7099292278289795,0.4653061628341675,0.33776551485061646
1761315420206633000,3.007633056640625,0.7702402472496033,0.3962821066379547,0.359544575214386
1761315420216680700,3.0176806640625,0.7922089099884033,0.2610124349594116,0.36490607261657715
1761315420226728700,3.027728759765625,0.7953831553459167,0.18823382258415222,0.3903435170650482
1761315420236776700,3.037776611328125,0.7782696485519409,0.1524830162525177,0.41656258702278137
1761315420246824700,3.04782470703125,0.7343717217445374,0.10329842567443848,0.4297140836715698
1761315420256873000,3.057873046875,0.672164261341095,0.023209448903799057,0.4340984523296356
1761315420266920700,3.067920654296875,0.6013327240943909,-0.06518113613128662,0.4332747459411621
1761315420276969700,3.0779697265625,0.53459632396698,-0.13879969716072083,0.41837647557258606
1761315420287017700,3.088017822265625,0.4752703905105591,-0.1963745802640915,0.39772897958755493
1761315420297065700,3.098065673828125,0.4319727122783661,-0.2350335568189621,0.37750840187072754
1761315420307114000,3.108114013671875,0.3985913097858429,-0.250270813703537,0.3583544194698334
1761315420317161700,3.11816162109375,0.37488946318626404,-0.24542999267578125,0.35295194387435913
1761315420327209700,3.128209716796875,0.3621438443660736,-0.2214927077293396,0.3500741124153137
1761315420337258000,3.138258056640625,0.3529527187347412,-0.1904919147491455,0.35534611344337463
1761315420347305700,3.1483056640625,0.35996243357658386,-0.17047053575515747,0.35904550552368164
1761315420357353700,3.158353759765625,0.36562085151672363,-0.16235269606113434,0.35967081785202026
1761315420367402800,3.16840283203125,0.37836647033691406,-0.1450762301683426,0.34869006276130676
1761315420377450800,3.17845068359375,0.3865988552570343,-0.11457265168428421,0.30929312109947205
1761315420387498800,3.188498779296875,0.378964364528656,-0.07563457638025284,0.2526325285434723
1761315420397546800,3.198546630859375,0.3550845980644226,-0.037932466715574265,0.19913440942764282
1761315420407594800,3.2085947265625,0.31519603729248047,0.010407366789877415,0.16944362223148346
1761315420417642800,3.218642822265625,0.2782907485961914,0.07075220346450806,0.17187881469726562
1761315420427690800,3.228690673828125,0.24550803005695343,0.1377842277288437,0.19720149040222168
1761315420437739000,3.238739013671875,0.2264949232339859,0.19076809287071228,0.22760653495788574
1761315420447787800,3.248787841796875,0.22852319478988647,0.2012377679347992,0.23366574943065643
1761315420457835800,3.258835693359375,0.26516294479370117,0.155989870429039,0.2047281116247177
1761315420467883800,3.2688837890625,0.3295653760433197,0.08271592110395432,0.1692819744348526
1761315420477931800,3.278931884765625,0.3819732069969177,-0.00433029979467392,0.12912122905254364
1761315420487979800,3.288979736328125,0.3812403082847595,-0.062133412808179855,0.08593062311410904
1761315420498027500,3.299027587890625,0.32356342673301697,-0.12186917662620544,0.030134201049804688
1761315420508075800,3.30907568359375,0.22820253670215607,-0.19699375331401825,-0.046366699039936066
1761315420518123500,3.31912353515625,0.12328731268644333,-0.30282965302467346,-0.16206640005111694
1761315420528171500,3.329171630859375,0.02725665457546711,-0.451700359582901,-0.3275725543498993
1761315420538220500,3.339220458984375,-0.06566822528839111,-0.640479564666748,-0.5475701689720154
1761315420548268500,3.3492685546875,-0.13771551847457886,-0.8347036838531494,-0.77840256690979
1761315420558316800,3.35931689453125,-0.21119347214698792,-0.9787130355834961,-0.9871816039085388
1761315420568364500,3.369364501953125,-0.2675291895866394,-1.0273867845535278,-1.1299704313278198
1761315420578412800,3.379412841796875,-0.32058441638946533,-0.9884897470474243,-1.1814414262771606
1761315420588460800,3.389460693359375,-0.365626722574234,-0.8639209270477295,-1.1279197931289673
1761315420598508500,3.399508544921875,-0.39433079957962036,-0.6448144316673279,-0.9858471155166626
1761315420608556800,3.409556884765625,-0.3937196135520935,-0.3631230890750885,-0.7923950552940369
1761315420618605600,3.41960546875,-0.37027260661125183,-0.07397622615098953,-0.5704799890518188
1761315420628653800,3.42965380859375,-0.3210033178329468,0.19577403366565704,-0.35653921961784363
1761315420638701600,3.43970166015625,-0.23903228342533112,0.422193318605423,-0.16954270005226135
1761315420648749600,3.44974951171875,-0.14348232746124268,0.5717647075653076,-0.03305435553193092
1761315420658797800,3.4597978515625,-0.053221143782138824,0.6471052765846252,0.051727909594774246
1761315420668845600,3.469845458984375,0.037390515208244324,0.6839277148246765,0.08765235543251038
1761315420678893600,3.4798935546875,0.1170230284333229,0.7010545134544373,0.08579293638467789
1761315420688941800,3.48994189453125,0.18440233170986176,0.6962528228759766,0.04098338633775711
1761315420698989600,3.499989501953125,0.23430144786834717,0.6786682605743408,-0.02436020039021969
1761315420709038800,3.510038818359375,0.2669110596179962,0.6497260928153992,-0.09119915217161179
1761315420719086600,3.520086669921875,0.27299344539642334,0.5990602374076843,-0.16427016258239746
1761315420729134600,3.530134521484375,0.26325052976608276,0.5253537893295288,-0.24823404848575592
1761315420739182600,3.5401826171875,0.24919384717941284,0.4440181851387024,-0.3237333297729492
1761315420749230600,3.550230712890625,0.22791838645935059,0.35585105419158936,-0.3877144455909729
1761315420759278800,3.56027880859375,0.19339050352573395,0.27983617782592773,-0.43386781215667725
1761315420769326600,3.57032666015625,0.15703648328781128,0.21350854635238647,-0.46781113743782043
1761315420779374600,3.58037451171875,0.13172873854637146,0.1330842822790146,-0.4886098802089691
1761315420789422800,3.5904228515625,0.11253400146961212,0.040109869092702866,-0.4933375418186188
1761315420799470600,3.600470703125,0.09885041415691376,-0.04986849054694176,-0.4765782654285431
1761315420809519900,3.610519775390625,0.08698390424251556,-0.13278494775295258,-0.435158908367157
1761315420819567600,3.620567626953125,0.07969829440116882,-0.2157330960035324,-0.3734241724014282
1761315420829615600,3.63061572265625,0.0732201486825943,-0.2740568518638611,-0.3036874532699585
1761315420839663600,3.64066357421875,0.07561220228672028,-0.32203954458236694,-0.2289181351661682
1761315420849711600,3.650711669921875,0.0711950808763504,-0.3551200032234192,-0.15621836483478546
1761315420859759600,3.660759521484375,0.0717836394906044,-0.3814922273159027,-0.09165668487548828
1761315420869807600,3.6708076171875,0.06679660826921463,-0.3941513001918793,-0.025966886430978775
1761315420879855600,3.680855712890625,0.06891781836748123,-0.36337366700172424,0.04415334761142731
1761315420889903600,3.690903564453125,0.07003181427717209,-0.28477874398231506,0.11739587038755417
1761315420899952600,3.70095263671875,0.06964805722236633,-0.1724708378314972,0.19769389927387238
1761315420910000600,3.711000732421875,0.07342042028903961,-0.04055728018283844,0.2708975374698639
1761315420920048600,3.721048583984375,0.0839039534330368,0.09090966731309891,0.3204949200153351
1761315420930096600,3.7310966796875,0.11501580476760864,0.22199897468090057,0.3553764820098877
1761315420940145000,3.741144775390625,0.16428853571414948,0.3351670801639557,0.3623238503932953
1761315420950192600,3.751192626953125,0.21689370274543762,0.3875458538532257,0.33680492639541626
1761315420960240600,3.76124072265625,0.24611149728298187,0.4045810401439667,0.286054402589798
1761315420970288600,3.77128857421875,0.2505515217781067,0.43551045656204224,0.24464170634746552
1761315420980336600,3.781336669921875,0.23427002131938934,0.4743899405002594,0.23270674049854279
1761315420990384600,3.791384521484375,0.18607133626937866,0.4747295081615448,0.2594294250011444
1761315421000433700,3.80143359375,0.10895231366157532,0.42197200655937195,0.31650444865226746
1761315421010481700,3.811481689453125,0.014697719365358353,0.3463936448097229,0.3926255702972412
1761315421020529700,3.82152978515625,-0.07635203003883362,0.270217627286911,0.49015480279922485
1761315421030577700,3.83157763671875,-0.14069506525993347,0.18816004693508148,0.5933445692062378
1761315421040625700,3.841625732421875,-0.17484185099601746,0.09656009823083878,0.6732202172279358
1761315421050673700,3.851673583984375,-0.17771033942699432,-0.011657188646495342,0.7254427075386047
1761315421060721700,3.8617216796875,-0.14805977046489716,-0.10962769389152527,0.7433905005455017
1761315421070769700,3.871769775390625,-0.11342322826385498,-0.20848263800144196,0.7209795117378235
1761315421080817700,3.881817626953125,-0.07729372382164001,-0.30281898379325867,0.6693671345710754
1761315421090865700,3.89186572265625,-0.05500786006450653,-0.36822250485420227,0.6058561205863953
1761315421100914700,3.901914794921875,-0.05895466357469559,-0.3959992825984955,0.5390133857727051
1761315421110962700,3.911962646484375,-0.09424953907728195,-0.3914988040924072,0.4845840036869049
1761315421121010400,3.922010498046875,-0.1545237898826599,-0.3585751950740814,0.4476163983345032
1761315421131058700,3.93205859375,-0.22008337080478668,-0.30868008732795715,0.42903339862823486
1761315421141106700,3.942106689453125,-0.27258118987083435,-0.26398319005966187,0.436124324798584
1761315421151154700,3.95215478515625,-0.3136223554611206,-0.2301594316959381,0.4471953511238098
1761315421161202700,3.96220263671875,-0.32380789518356323,-0.22559131681919098,0.4848591089248657
1761315421171250700,3.972250732421875,-0.31396031379699707,-0.2331022322177887,0.5571684241294861
1761315421181298700,3.982298583984375,-0.27807503938674927,-0.20651109516620636,0.6493121981620789
1761315421191346700,3.9923466796875,-0.24368536472320557,-0.1770365685224533,0.7283939719200134
1761315421201395700,4.002395751953125,-0.19905397295951843,-0.1734069436788559,0.7674724459648132
1761315421211443700,4.012443603515625,-0.1522957980632782,-0.16787928342819214,0.749862790107727
1761315421221491500,4.022491455078125,-0.11635670065879822,-0.13626942038536072,0.6830917596817017
1761315421231539700,4.032539794921875,-0.10288243740797043,-0.09610363095998764,0.5507427453994751
1761315421241587700,4.042587646484375,-0.11511646956205368,-0.03978922590613365,0.37323296070098877
1761315421251635500,4.052635498046875,-0.13630910217761993,0.031023429706692696,0.15270459651947021
1761315421261683700,4.06268359375,-0.16829127073287964,0.06495609879493713,-0.12158475071191788
1761315421271731700,4.072731689453125,-0.2173224687576294,0.05167517811059952,-0.4381941258907318
1761315421281779700,4.08277978515625,-0.2806135416030884,0.011332016438245773,-0.7689257264137268
1761315421291827700,4.09282763671875,-0.34937503933906555,-0.031511854380369186,-1.075189232826233
1761315421301876500,4.10287646484375,-0.427946537733078,-0.05441423878073692,-1.3247498273849487
1761315421311924700,4.1129248046875,-0.500899076461792,-0.015544870868325233,-1.486647129058838
1761315421321972700,4.12297265625,-0.5640753507614136,0.055318381637334824,-1.5523747205734253
1761315421332020700,4.133020751953125,-0.5998700857162476,0.1590631604194641,-1.5224589109420776
1761315421342068700,4.14306884765625,-0.6004474759101868,0.2892126441001892,-1.4187567234039307
1761315421352116500,4.153116455078125,-0.5683891177177429,0.42354461550712585,-1.2578048706054688
1761315421362164700,4.163164794921875,-0.5129517316818237,0.5393380522727966,-1.0667411088943481
1761315421372212700,4.173212646484375,-0.47323092818260193,0.5975057482719421,-0.8662988543510437
1761315421382260500,4.183260498046875,-0.4777681529521942,0.6392305493354797,-0.6790173649787903
1761315421392308700,4.193308837890625,-0.5089823007583618,0.6824022531509399,-0.5545849204063416
1761315421402356700,4.203356689453125,-0.5187534093856812,0.6916764378547668,-0.5155147314071655
1761315421412405800,4.21340576171875,-0.48563194274902344,0.6706052422523499,-0.5248557925224304
1761315421422453800,4.223453857421875,-0.4234471321105957,0.6203340888023376,-0.5625978112220764
1761315421432501500,4.23350146484375,-0.3583190143108368,0.5418946743011475,-0.6030797362327576
1761315421442549800,4.2435498046875,-0.2983398139476776,0.4745561182498932,-0.6292495727539062
1761315421452597500,4.253597412109375,-0.2279554009437561,0.4208071529865265,-0.6473124623298645
1761315421462645800,4.263645751953125,-0.1547701358795166,0.35515037178993225,-0.6702872514724731
1761315421472693800,4.27369384765625,-0.0954761877655983,0.29166939854621887,-0.6966853141784668
1761315421482741500,4.283741455078125,-0.049617089331150055,0.2090938240289688,-0.7136083841323853
1761315421492789800,4.293789794921875,-0.03452388942241669,0.12304869294166565,-0.6862428188323975
1761315421502837500,4.30383740234375,-0.05606753006577492,0.032284703105688095,-0.6052230596542358
1761315421512885200,4.31388525390625,-0.10878773033618927,-0.06348150223493576,-0.4818534553050995
1761315421522934500,4.3239345703125,-0.16733840107917786,-0.15720826387405396,-0.3400755524635315
1761315421532982300,4.333982177734375,-0.21320948004722595,-0.23883920907974243,-0.1990009844303131
1761315421543030500,4.344030517578125,-0.23554834723472595,-0.315717488527298,-0.0653369277715683
1761315421553078500,4.35407861328125,-0.24371492862701416,-0.3549668788909912,0.05320196971297264
1761315421563126300,4.364126220703125,-0.2278246432542801,-0.36389726400375366,0.1545136719942093
1761315421573174500,4.374174560546875,-0.20517978072166443,-0.34052109718322754,0.22534310817718506
1761315421583222300,4.38422216796875,-0.15477067232131958,-0.2999347746372223,0.2864924669265747
1761315421593270300,4.394270263671875,-0.08779749274253845,-0.2367856502532959,0.33762598037719727
1761315421603318500,4.404318603515625,0.004680771846324205,-0.1486818790435791,0.3849490284919739
1761315421613366300,4.4143662109375,0.10883407294750214,-0.06777025759220123,0.4310390055179596
1761315421623414500,4.42441455078125,0.2170817106962204,-0.005770004820078611,0.4803439676761627
1761315421633463300,4.43446337890625,0.3287792205810547,0.08565019071102142,0.5554432272911072
1761315421643511300,4.44451123046875,0.4441377818584442,0.22144290804862976,0.6414667963981628
1761315421653559600,4.4545595703125,0.5348471403121948,0.32458260655403137,0.6993018984794617
1761315421663607300,4.464607177734375,0.593029260635376,0.3547373116016388,0.7049147486686707
1761315421673655600,4.474655517578125,0.6191026568412781,0.36416518688201904,0.6539745926856995
1761315421683703300,4.484703369140625,0.617243766784668,0.3831804096698761,0.5808977484703064
1761315421693751300,4.494751220703125,0.578161895275116,0.40556561946868896,0.4957706034183502
1761315421703799600,4.504799560546875,0.5040530562400818,0.4149271547794342,0.42316296696662903
1761315421713847300,4.514847412109375,0.3945148289203644,0.40502819418907166,0.3528597950935364
1761315421723895300,4.524895263671875,0.27402517199516296,0.3986150324344635,0.2848013639450073
1761315421733943600,4.534943603515625,0.16788433492183685,0.4190579950809479,0.2336369901895523
1761315421743991300,4.5449912109375,0.07174209505319595,0.45199862122535706,0.21521270275115967
1761315421754040600,4.55504052734375,-0.016634903848171234,0.4872540831565857,0.22660624980926514
1761315421764088300,4.56508837890625,-0.08526935428380966,0.5318806767463684,0.2814052999019623
1761315421774136300,4.57513623046875,-0.13055241107940674,0.5732771158218384,0.377584844827652
1761315421784184600,4.5851845703125,-0.13789156079292297,0.6096934676170349,0.48770201206207275
1761315421794232300,4.595232421875,-0.11157446354627609,0.6217581033706665,0.5991364121437073
1761315421804280600,4.605280517578125,-0.06598221510648727,0.5828264355659485,0.6766397356987
1761315421814328300,4.615328369140625,-0.008538094349205494,0.5219337344169617,0.7331229448318481
1761315421824376300,4.625376220703125,0.034863974899053574,0.4548511207103729,0.7679240703582764
1761315421834424600,4.635424560546875,0.06280053406953812,0.37646710872650146,0.7947506308555603
1761315421844472300,4.645472412109375,0.087325319647789,0.28817054629325867,0.8183190822601318
1761315421854520300,4.655520263671875,0.11386904120445251,0.16966412961483002,0.836018443107605
1761315421864568600,4.665568603515625,0.14434225857257843,0.04910016804933548,0.8462796211242676
1761315421874617300,4.675617431640625,0.18305157124996185,-0.06666984409093857,0.8504115343093872
1761315421884665600,4.68566552734375,0.2239673137664795,-0.1805301010608673,0.8455461859703064
1761315421894713300,4.69571337890625,0.2631685137748718,-0.2933639585971832,0.8314226269721985
1761315421904761300,4.70576123046875,0.30019843578338623,-0.3749951720237732,0.7983381748199463
1761315421914809300,4.715809326171875,0.32528966665267944,-0.4073733687400818,0.7380706071853638
1761315421924857300,4.725857421875,0.35235458612442017,-0.40057137608528137,0.6275701522827148
1761315421934905300,4.7359052734375,0.3877892792224884,-0.3836051821708679,0.4608200788497925
1761315421944953300,4.745953369140625,0.41694343090057373,-0.3795739412307739,0.22982707619667053
1761315421955001300,4.75600146484375,0.4335455894470215,-0.3908013105392456,-0.04836753383278847
1761315421965049600,4.766049560546875,0.42947280406951904,-0.41335028409957886,-0.3358033001422882
1761315421975097300,4.776097412109375,0.3876909911632538,-0.4202505350112915,-0.5861881375312805
1761315421985145300,4.786145263671875,0.3219926953315735,-0.3820197880268097,-0.770183801651001
1761315421995194400,4.7961943359375,0.2223912626504898,-0.29420021176338196,-0.8982844948768616
1761315422005242400,4.806242431640625,0.12758991122245789,-0.19287890195846558,-0.9945362210273743
1761315422015290600,4.81629052734375,0.05997811630368233,-0.13751950860023499,-1.0654546022415161
1761315422025338400,4.82633837890625,0.03145912289619446,-0.11416225880384445,-1.1002373695373535
1761315422035386400,4.836386474609375,0.041437722742557526,-0.09711643308401108,-1.077492117881775
1761315422045431300,4.846431396484375,0.08443525433540344,-0.0746806263923645,-0.998521625995636
1761315422055479600,4.8564794921875,0.1571747064590454,-0.022834742441773415,-0.8692802786827087
1761315422065527600,4.866527587890625,0.2524951100349426,0.060624998062849045,-0.728726863861084
1761315422075575300,4.8765751953125,0.3753339350223541,0.16071458160877228,-0.5898526310920715
1761315422085623600,4.88662353515625,0.5079742670059204,0.2583644390106201,-0.4844340682029724
1761315422095671300,4.89667138671875,0.6351021528244019,0.3507135510444641,-0.41890618205070496
1761315422105719300,4.90671923828125,0.729839026927948,0.4333634078502655,-0.3935464918613434
1761315422115767600,4.916767578125,0.8001384735107422,0.48861920833587646,-0.3807782232761383
1761315422125815300,4.926815185546875,0.8418720960617065,0.5019094347953796,-0.36251482367515564
1761315422135864600,4.936864501953125,0.862917423248291,0.493736207485199,-0.3346160650253296
1761315422145912300,4.946912353515625,0.8728012442588806,0.4826614558696747,-0.30513301491737366
1761315422155960300,4.956960205078125,0.8773959875106812,0.45321622490882874,-0.28079837560653687
1761315422166008600,4.967008544921875,0.8821688890457153,0.4055160880088806,-0.27182963490486145
1761315422176056300,4.977056396484375,0.8870587348937988,0.36105993390083313,-0.2739037275314331
1761315422186104300,4.987104248046875,0.8810341358184814,0.318448543548584,-0.2878429591655731
1761315422196152600,4.997152587890625,0.8605877161026001,0.2712136507034302,-0.3156908452510834
1761315422206200300,5.007200439453125,0.8384392857551575,0.2022617608308792,-0.3543740510940552
1761315422216248600,5.01724853515625,0.8114897012710571,0.10658583045005798,-0.4018944501876831
1761315422226296300,5.02729638671875,0.772651195526123,0.025080319494009018,-0.4307998716831207
1761315422236344300,5.03734423828125,0.7264775633811951,-0.030776554718613625,-0.45165613293647766
1761315422246392600,5.047392578125,0.6740831136703491,-0.06669647246599197,-0.4542143642902374
1761315422256440300,5.0574404296875,0.6210225224494934,-0.05908063054084778,-0.4442743957042694
1761315422266488300,5.06748828125,0.5848658680915833,-0.02328055538237095,-0.42129531502723694
1761315422276537300,5.077537353515625,0.5809816122055054,-0.005204082932323217,-0.3907714784145355
1761315422286585300,5.08758544921875,0.607447624206543,-0.010765296407043934,-0.35385367274284363
1761315422296633600,5.097633544921875,0.6578835844993591,-0.046850062906742096,-0.27967584133148193
1761315422306681300,5.107681396484375,0.6887299418449402,-0.07033009082078934,-0.15626762807369232
1761315422316729300,5.117729248046875,0.6837458610534668,-0.08263175934553146,0.009286176413297653
1761315422326777300,5.12777734375,0.6194595098495483,-0.09575741738080978,0.19462594389915466
1761315422336825300,5.137825439453125,0.5197507739067078,-0.09957239776849747,0.37234053015708923
1761315422346873600,5.14787353515625,0.39739689230918884,-0.09808475524187088,0.5231643915176392
1761315422356921300,5.15792138671875,0.2663155794143677,-0.08092174679040909,0.6221109628677368
1761315422366969300,5.16796923828125,0.15564924478530884,-0.059173308312892914,0.6634975671768188
1761315422377017600,5.178017578125,0.09234511107206345,-0.03651167079806328,0.6593326330184937
1761315422387065300,5.1880654296875,0.07973877340555191,-0.010240653529763222,0.6293914914131165
1761315422397113300,5.19811328125,0.11078750342130661,0.01966771110892296,0.5761069655418396
1761315422407161600,5.20816162109375,0.18191839754581451,0.05041630193591118,0.5121058821678162
1761315422417210400,5.21821044921875,0.27553996443748474,0.019168101251125336,0.4255070984363556
1761315422427258400,5.22825830078125,0.3658435046672821,-0.10541989654302597,0.3152429163455963
1761315422437306400,5.238306396484375,0.42926135659217834,-0.2761303782463074,0.2098136842250824
1761315422447354400,5.248354248046875,0.45121246576309204,-0.4456523060798645,0.12754730880260468
1761315422457402400,5.25840234375,0.42741817235946655,-0.6114769577980042,0.07271681725978851
1761315422467450400,5.268450439453125,0.35762977600097656,-0.753894031047821,0.04505962133407593
1761315422477498400,5.278498291015625,0.2616766095161438,-0.8632407784461975,0.05348852649331093
1761315422487546400,5.28854638671875,0.1624235361814499,-0.9008744359016418,0.10596558451652527
1761315422497594400,5.298594482421875,0.08490476757287979,-0.8757181763648987,0.18629983067512512
1761315422507642600,5.308642578125,0.04204279184341431,-0.8188881874084473,0.25526106357574463
1761315422517691000,5.31869091796875,0.04802212119102478,-0.7227550148963928,0.3076603412628174
1761315422527739000,5.32873876953125,0.10818213224411011,-0.5834317207336426,0.32068347930908203
1761315422537786600,5.33878662109375,0.20027104020118713,-0.4069267511367798,0.2984718978404999
1761315422547835000,5.3488349609375,0.3226155936717987,-0.20786425471305847,0.23343218863010406
1761315422557883000,5.3588828125,0.46578526496887207,0.003999535460025072,0.14876045286655426
1761315422567930600,5.3689306640625,0.6173284649848938,0.1791449934244156,0.0701519250869751
1761315422577980000,5.37897998046875,0.7500113844871521,0.24864310026168823,0.0186634324491024
1761315422588027600,5.389027587890625,0.8404973745346069,0.2317674458026886,0.03491963446140289
1761315422598076000,5.399075927734375,0.8638610243797302,0.19880950450897217,0.12508787214756012
1761315422608124000,5.4091240234375,0.8121938109397888,0.16348879039287567,0.26180630922317505
1761315422618171600,5.419171630859375,0.702194333076477,0.11879695951938629,0.4304075837135315
1761315422628220000,5.429219970703125,0.5722352862358093,0.09875506907701492,0.579285740852356
1761315422638267600,5.439267578125,0.44608721137046814,0.06520989537239075,0.7110512256622314
1761315422648315600,5.449315673828125,0.33161255717277527,-0.01794091798365116,0.7994934916496277
1761315422658364000,5.459364013671875,0.24362917244434357,-0.11790452897548676,0.8464260697364807
1761315422668411600,5.46941162109375,0.18876218795776367,-0.19018565118312836,0.8382712006568909
1761315422678461000,5.4794609375,0.1729201078414917,-0.24328908324241638,0.7633708715438843
1761315422688508700,5.4895087890625,0.19818632304668427,-0.29707348346710205,0.6227424144744873
1761315422698557000,5.499556884765625,0.24871447682380676,-0.33080029487609863,0.42287376523017883
1761315422708605000,5.50960498046875,0.29348939657211304,-0.33405041694641113,0.1930173933506012
1761315422718652700,5.519652587890625,0.3108481466770172,-0.3087029755115509,-0.036489568650722504
1761315422728701000,5.529700927734375,0.2985595166683197,-0.2654939889907837,-0.22260670363903046
1761315422738749700,5.539749755859375,0.252132385969162,-0.20967359840869904,-0.3481518626213074
1761315422748798000,5.5497978515625,0.16834959387779236,-0.11981482058763504,-0.4081321060657501
1761315422758845700,5.559845703125,0.08659055083990097,-0.0011760519118979573,-0.41357746720314026
1761315422768893700,5.569893798828125,0.021988922730088234,0.1299646496772766,-0.38316574692726135
1761315422778942000,5.57994189453125,-0.003994741477072239,0.285419225692749,-0.33376118540763855
1761315422788989700,5.58998974609375,0.0020695424173027277,0.44821080565452576,-0.2846983075141907
1761315422799037700,5.60003759765625,0.0409836508333683,0.5859414935112,-0.2490455061197281
1761315422809086000,5.6100859375,0.11341977119445801,0.6929696798324585,-0.2203744500875473
1761315422819133700,5.6201337890625,0.20532652735710144,0.7614952325820923,-0.1988944560289383
1761315422829181700,5.630181640625,0.31030115485191345,0.7867137789726257,-0.1820363849401474
1761315422839229700,5.640229736328125,0.3969968855381012,0.7585899829864502,-0.17040662467479706
1761315422849277700,5.650277587890625,0.47000932693481445,0.7173746228218079,-0.1593281328678131
1761315422859326000,5.660325927734375,0.527426540851593,0.6577501893043518,-0.15014369785785675
1761315422869373700,5.670373779296875,0.5636165142059326,0.5773085951805115,-0.136454775929451
1761315422879421700,5.680421630859375,0.5905847549438477,0.5196018815040588,-0.1273435801267624
1761315422889470000,5.690469970703125,0.6028003692626953,0.4803873896598816,-0.11414388567209244
1761315422899517700,5.700517578125,0.6133984327316284,0.4430837035179138,-0.11390046775341034
1761315422909567000,5.71056689453125,0.6160882115364075,0.40028029680252075,-0.12267345190048218
1761315422919614700,5.72061474609375,0.6176405549049377,0.3450556695461273,-0.13322916626930237
1761315422929662700,5.730662841796875,0.6146082878112793,0.29035937786102295,-0.15621383488178253
1761315422939711000,5.7407109375,0.6130719184875488,0.2591191828250885,-0.17782193422317505
1761315422949758700,5.7507587890625,0.6066595911979675,0.22228632867336273,-0.2016010284423828
1761315422959806700,5.760806640625,0.6000783443450928,0.19794663786888123,-0.21048372983932495
1761315422969854700,5.770854736328125,0.5862560272216797,0.20593318343162537,-0.19579453766345978
1761315422979902700,5.78090283203125,0.5585626363754272,0.22789494693279266,-0.17900756001472473
1761315422989951000,5.790950927734375,0.5260424613952637,0.25515931844711304,-0.17003457248210907
1761315422999998700,5.800998779296875,0.49764734506607056,0.26856034994125366,-0.17158693075180054
1761315423010046700,5.811046630859375,0.47435426712036133,0.25389033555984497,-0.177716463804245
1761315423020095000,5.821094970703125,0.46289387345314026,0.22253799438476562,-0.16925667226314545
1761315423030142700,5.831142822265625,0.4595494866371155,0.17509324848651886,-0.14049425721168518
1761315423040190700,5.841190673828125,0.4781956076622009,0.11841452866792679,-0.10147256404161453
1761315423050238700,5.85123876953125,0.5136843323707581,0.05361049622297287,-0.05477003753185272
1761315423060286700,5.86128662109375,0.5522501468658447,0.0007552724564447999,-0.003751062322407961
1761315423070334700,5.871334716796875,0.5894100069999695,-0.01949966512620449,0.05735090747475624
1761315423080382700,5.8813828125,0.6278820633888245,-0.00541500560939312,0.12463753670454025
1761315423090431700,5.891431640625,0.6844947338104248,0.06329401582479477,0.19889791309833527
1761315423100479700,5.901479736328125,0.7631266713142395,0.17439736425876617,0.26535096764564514
1761315423110527700,5.91152783203125,0.8570411801338196,0.23309050500392914,0.2989550232887268
1761315423120575700,5.92157568359375,0.9525538682937622,0.22793516516685486,0.28364261984825134
1761315423130623700,5.931623779296875,1.0383177995681763,0.2063574343919754,0.24004162847995758
1761315423140671700,5.941671630859375,1.1024885177612305,0.19872215390205383,0.18186646699905396
1761315423150720000,5.951719970703125,1.1366506814956665,0.1695256531238556,0.1084391251206398
1761315423160767700,5.961767822265625,1.144875407218933,0.11995623260736465,0.05780710652470589
1761315423170815700,5.971815673828125,1.125109076499939,0.08508612960577011,0.051586493849754333
1761315423180863700,5.98186376953125,1.093048095703125,0.07634536921977997,0.08551197499036789
1761315423190911700,5.991911865234375,1.0546810626983643,0.08419983088970184,0.15483272075653076
1761315423200959700,6.001959716796875,1.036576271057129,0.0983302965760231,0.2457253485918045
1761315423211007700,6.0120078125,1.039820909500122,0.09558217972517014,0.3381623327732086
1761315423221055700,6.0220556640625,1.0631115436553955,0.11768855154514313,0.4014265239238739
1761315423231104000,6.03210400390625,1.0922437906265259,0.15469716489315033,0.43062809109687805
1761315423241151700,6.04215185546875,1.1165467500686646,0.18991348147392273,0.4090314507484436
1761315423251199700,6.05219970703125,1.1252446174621582,0.2404746562242508,0.3457254469394684
1761315423261248000,6.062248046875,1.1249696016311646,0.3210829496383667,0.2710498869419098
1761315423271295700,6.072295654296875,1.12852144241333,0.3899086117744446,0.2089657336473465
1761315423281344800,6.0823447265625,1.1466490030288696,0.4425705075263977,0.1711786687374115
1761315423291392800,6.092392822265625,1.1691322326660156,0.4847419261932373,0.1587241291999817
1761315423301440800,6.102440673828125,1.1994054317474365,0.4806899130344391,0.14508022367954254
1761315423311488800,6.11248876953125,1.2426083087921143,0.43442681431770325,0.1294485330581665
1761315423321536800,6.122536865234375,1.3054304122924805,0.38847237825393677,0.12454938888549805
1761315423331584800,6.132584716796875,1.3838977813720703,0.3579493463039398,0.14199575781822205
1761315423341632800,6.1426328125,1.4550864696502686,0.3389151990413666,0.1791926622390747
1761315423351680800,6.1526806640625,1.5110282897949219,0.3446039855480194,0.22942094504833221
1761315423361728800,6.162728759765625,1.53461492061615,0.3725290894508362,0.27877944707870483
1761315423371776800,6.17277685546875,1.533639669418335,0.4157212972640991,0.299359530210495
1761315423381824800,6.18282470703125,1.5193650722503662,0.44173774123191833,0.27172550559043884
1761315423391872800,6.192872802734375,1.4712835550308228,0.4666502773761749,0.18017269670963287
1761315423401920800,6.202920654296875,1.3962810039520264,0.4596560001373291,0.03603683039546013
1761315423411968800,6.21296875,1.2840784788131714,0.39247697591781616,-0.14072729647159576
1761315423422016800,6.223016845703125,1.1472980976104736,0.2849808633327484,-0.32429152727127075
1761315423432064800,6.233064697265625,0.9973711371421814,0.17642243206501007,-0.49718502163887024
1761315423442112800,6.24311279296875,0.8712033629417419,0.07698159664869308,-0.6367048025131226
1761315423452160800,6.253160888671875,0.7780531644821167,0.031682293862104416,-0.7233912348747253
1761315423462208800,6.263208740234375,0.7192159295082092,0.018747588619589806,-0.7374418377876282
1761315423472257000,6.273257080078125,0.688754677772522,0.06053604930639267,-0.665424108505249
1761315423482304800,6.2833046875,0.6919680833816528,0.18180148303508759,-0.5067873001098633
1761315423492352800,6.293352783203125,0.7158371806144714,0.36633777618408203,-0.3143896162509918
1761315423502401300,6.3034013671875,0.7507826685905457,0.5545020699501038,-0.12855158746242523
1761315423512449300,6.31344921875,0.7831206321716309,0.7224146723747253,0.011611116118729115
1761315423522497500,6.32349755859375,0.8006026744842529,0.8407548666000366,0.07778187841176987
1761315423532545300,6.333545166015625,0.8238334059715271,0.8906905055046082,0.07638371735811234
1761315423542593300,6.34359326171875,0.8500208258628845,0.8937632441520691,0.013863351196050644
1761315423552641300,6.353641357421875,0.8681745529174805,0.8748910427093506,-0.06644400209188461
1761315423562689300,6.363689208984375,0.8651608824729919,0.8288100957870483,-0.1455199122428894
1761315423572737300,6.3737373046875,0.833105206489563,0.744107723236084,-0.2070237547159195
1761315423582785300,6.383785400390625,0.7777434587478638,0.6350797414779663,-0.24499696493148804
1761315423592833300,6.393833251953125,0.7059294581413269,0.5207023024559021,-0.2586219608783722
1761315423602881500,6.403881591796875,0.637183666229248,0.39700940251350403,-0.27718740701675415
1761315423612929300,6.41392919921875,0.5750859379768372,0.2587532699108124,-0.2994583547115326
1761315423622977300,6.423977294921875,0.5190061330795288,0.1399078369140625,-0.3305789828300476
1761315423633025300,6.434025390625,0.47776204347610474,0.07283639162778854,-0.36254358291625977
1761315423643073300,6.4440732421875,0.4449436366558075,0.015801865607500076,-0.40352803468704224
1761315423653121300,6.454121337890625,0.41790056228637695,-0.04356798529624939,-0.4479482173919678
1761315423663169300,6.464169189453125,0.3976070284843445,-0.0835561454296112,-0.4765806496143341
1761315423673217300,6.47421728515625,0.3756314218044281,-0.09826638549566269,-0.49562039971351624
1761315423683265300,6.484265380859375,0.3534073233604431,-0.09972686320543289,-0.4950092136859894
1761315423693313300,6.494313232421875,0.33296358585357666,-0.09107771515846252,-0.471955806016922
1761315423703361300,6.504361328125,0.3137536644935608,-0.07756563276052475,-0.4199594557285309
1761315423713409500,6.514409423828125,0.3017326891422272,-0.06405381858348846,-0.34437334537506104
1761315423723457300,6.524457275390625,0.2976199686527252,-0.03716814145445824,-0.2442595362663269
1761315423733506600,6.534506591796875,0.28827226161956787,0.019348131492733955,-0.12210593372583389
1761315423743554300,6.54455419921875,0.2684439718723297,0.09114828705787659,-0.00047351003740914166
1761315423753602300,6.554602294921875,0.24455861747264862,0.1496206521987915,0.09312275052070618
1761315423763650300,6.564650390625,0.21279029548168182,0.1956872045993805,0.16296415030956268
1761315423773698300,6.5746982421875,0.1747734099626541,0.2000361531972885,0.2101668119430542
1761315423783746300,6.584746337890625,0.12996385991573334,0.17938759922981262,0.2485613375902176
1761315423793794300,6.594794189453125,0.0888742133975029,0.16620734333992004,0.2966500520706177
1761315423803842300,6.60484228515625,0.05149434879422188,0.1916317492723465,0.35079556703567505
1761315423813890300,6.614890380859375,0.03639555722475052,0.25974395871162415,0.399585485458374
1761315423823938300,6.624938232421875,0.033732395619153976,0.3141949474811554,0.42233073711395264
1761315423833986300,6.634986328125,0.025946112349629402,0.32827720046043396,0.4085741937160492
1761315423844034600,6.64503466796875,0.008955411612987518,0.34265241026878357,0.35159212350845337
1761315423854082300,6.655082275390625,-0.019096195697784424,0.34983310103416443,0.27081498503685
1761315423864130300,6.66513037109375,-0.07394453138113022,0.3479803502559662,0.1712130308151245
1761315423874178300,6.67517822265625,-0.13742098212242126,0.35109758377075195,0.06875243037939072
1761315423884226300,6.685226318359375,-0.19582809507846832,0.38362303376197815,-0.026153307408094406
1761315423894274300,6.6952744140625,-0.22690904140472412,0.43415117263793945,-0.09887278079986572
1761315423904322300,6.705322265625,-0.21229974925518036,0.4754677414894104,-0.13945989310741425
1761315423914370300,6.715370361328125,-0.16249756515026093,0.4907614588737488,-0.14273159205913544
1761315423924418300,6.725418212890625,-0.094451405107975,0.4687648117542267,-0.12137623131275177
1761315423934466300,6.73546630859375,-0.019652264192700386,0.4123987555503845,-0.09386444091796875
1761315423944514300,6.745514404296875,0.05866677686572075,0.32173222303390503,-0.0663747638463974
1761315423954562300,6.755562255859375,0.12437202036380768,0.19462460279464722,-0.05582811310887337
1761315423964610300,6.7656103515625,0.17374728620052338,0.03953169658780098,-0.058702461421489716
1761315423974658300,6.775658203125,0.20028916001319885,-0.11308927088975906,-0.05500492826104164
1761315423984706300,6.785706298828125,0.19899165630340576,-0.21795843541622162,-0.0442470908164978
1761315423994754300,6.79575439453125,0.18606361746788025,-0.26047900319099426,-0.025465678423643112
1761315424004803300,6.80580322265625,0.17774656414985657,-0.2682943046092987,-0.0010191916953772306
1761315424014851300,6.815851318359375,0.18287234008312225,-0.25693032145500183,0.03437235578894615
1761315424024899300,6.8258994140625,0.20454435050487518,-0.23802508413791656,0.072663813829422
1761315424034947300,6.835947265625,0.24721911549568176,-0.21406595408916473,0.11783449351787567
1761315424044995300,6.845995361328125,0.2984117269515991,-0.17112673819065094,0.16243098676204681
1761315424055043300,6.856043212890625,0.3419557511806488,-0.11388981342315674,0.21714216470718384
1761315424065091300,6.86609130859375,0.3605177104473114,-0.08375934511423111,0.27253031730651855
1761315424075139300,6.876139404296875,0.3526501953601837,-0.08364509791135788,0.32207736372947693
1761315424085187300,6.886187255859375,0.329316109418869,-0.10110584646463394,0.34974735975265503
1761315424095235300,6.8962353515625,0.2890389859676361,-0.12394218146800995,0.3641340136528015
1761315424105283300,6.906283447265625,0.2437724471092224,-0.14172731339931488,0.35688167810440063
1761315424115331300,6.916331298828125,0.18542765080928802,-0.1529242992401123,0.322070449590683
1761315424125379300,6.92637939453125,0.12252085655927658,-0.1535179167985916,0.2470657080411911
1761315424135427300,6.93642724609375,0.0621429979801178,-0.1574801653623581,0.1427651345729828
1761315424145475300,6.946475341796875,0.007715976797044277,-0.14635348320007324,0.03225141391158104
1761315424155523300,6.9565234375,-0.04342816770076752,-0.10961464792490005,-0.07959762215614319
1761315424165571300,6.9665712890625,-0.08711519092321396,-0.03766162320971489,-0.17627570033073425
1761315424175619300,6.976619384765625,-0.10905937850475311,0.040955688804388046,-0.25395798683166504
1761315424185667300,6.986667236328125,-0.11617054790258408,0.11338328570127487,-0.3104715943336487
1761315424195715300,6.99671533203125,-0.10623162984848022,0.18171866238117218,-0.3404228389263153
1761315424205763300,7.006763427734375,-0.08745208382606506,0.2345946580171585,-0.34734705090522766
1761315424215811300,7.016811279296875,-0.07223105430603027,0.262968510389328,-0.34770336747169495
1761315424225859300,7.026859375,-0.05054919421672821,0.25901904702186584,-0.34783732891082764
1761315424235907300,7.0369072265625,-0.03767786920070648,0.21224941313266754,-0.3425980806350708
1761315424245955300,7.046955322265625,-0.024768995121121407,0.14121198654174805,-0.3179872930049896
1761315424256003300,7.05700341796875,-0.01702212728559971,0.08457107841968536,-0.28369590640068054
1761315424266051300,7.06705126953125,-0.01575872302055359,0.05366029962897301,-0.2315051257610321
1761315424276099300,7.077099365234375,-0.02027411200106144,0.04007444903254509,-0.174687922000885
1761315424286147300,7.087147216796875,-0.024050474166870117,0.0441669300198555,-0.12027048319578171
1761315424296195300,7.0971953125,-0.026971163228154182,0.051540687680244446,-0.08704861253499985
1761315424306243300,7.107243408203125,-0.03588316589593887,0.03960014134645462,-0.0720643401145935
1761315424316292400,7.117292236328125,-0.04586096480488777,0.03080851212143898,-0.0808277353644371
1761315424326339300,7.12733935546875,-0.04306863993406296,0.02690431848168373,-0.10279535502195358
1761315424336388400,7.137388427734375,-0.030648456886410713,0.008385761640965939,-0.13406139612197876
1761315424346436400,7.147436279296875,-0.018694326281547546,-0.006119145080447197,-0.15842053294181824
1761315424356484400,7.157484375,-0.014822355471551418,0.009227853268384933,-0.17383597791194916
1761315424366532400,7.167532470703125,-0.007988950237631798,0.029045499861240387,-0.1895904392004013
1761315424376580400,7.177580322265625,0.004504470620304346,0.051960933953523636,-0.2032572478055954
1761315424386628400,7.18762841796875,0.02315751649439335,0.06489191204309464,-0.21572643518447876
1761315424396676400,7.19767626953125,0.055607870221138,0.07415971159934998,-0.22472313046455383
1761315424406724000,7.20772412109375,0.0923517644405365,0.07875286787748337,-0.2246387004852295
1761315424416772400,7.2177724609375,0.12819525599479675,0.06611829996109009,-0.2092168629169464
1761315424426820400,7.2278203125,0.1639295518398285,0.05034599453210831,-0.1812203824520111
1761315424436868400,7.237868408203125,0.1896548867225647,0.03539474308490753,-0.14088761806488037
1761315424446916400,7.247916259765625,0.20647726953029633,0.034504979848861694,-0.09550575166940689
1761315424456964400,7.25796435546875,0.21454772353172302,0.04367158189415932,-0.03906910493969917
1761315424467012400,7.268012451171875,0.22042478621006012,0.06156589090824127,0.021085577085614204
1761315424477060400,7.278060302734375,0.22462432086467743,0.06995698064565659,0.08287011831998825
1761315424487108400,7.2881083984375,0.23294642567634583,0.07292187958955765,0.13086293637752533
1761315424497156400,7.29815625,0.25140559673309326,0.07037003338336945,0.17083832621574402
1761315424507204000,7.3082041015625,0.2790507972240448,0.06265033036470413,0.19327038526535034
1761315424517252000,7.318252197265625,0.312163770198822,0.05649629980325699,0.20301063358783722
1761315424527300000,7.328300048828125,0.3404076397418976,0.06250199675559998,0.2162681221961975
1761315424537348400,7.338348388671875,0.35514023900032043,0.08402033150196075,0.2323051393032074
1761315424547396000,7.34839599609375,0.3552481234073639,0.10417300462722778,0.2479083389043808
1761315424557444000,7.358444091796875,0.34093761444091797,0.12488441169261932,0.25137603282928467
1761315424567492400,7.368492431640625,0.3257032632827759,0.1345205307006836,0.24368642270565033
1761315424577540000,7.3785400390625,0.3028797209262848,0.1437166929244995,0.22545522451400757
1761315424587588000,7.388588134765625,0.2728235423564911,0.15050987899303436,0.1901526302099228
1761315424597636000,7.398635986328125,0.23432648181915283,0.13950036466121674,0.14629702270030975
1761315424607684000,7.40868408203125,0.19923214614391327,0.11766485124826431,0.11037897318601608
1761315424617732000,7.418732177734375,0.16670189797878265,0.10720714926719666,0.09296669065952301
1761315424627780000,7.428780029296875,0.13812831044197083,0.11925581842660904,0.0938548594713211
1761315424637828000,7.438828125,0.12236452847719193,0.14387115836143494,0.1023372933268547
1761315424647876400,7.44887646484375,0.11710185557603836,0.18594643473625183,0.12091416865587234
1761315424657924000,7.458924072265625,0.11845740675926208,0.24616822600364685,0.14192917943000793
1761315424667972000,7.46897216796875,0.11764487624168396,0.2750467360019684,0.15069976449012756
1761315424678020400,7.479020263671875,0.1141342967748642,0.2604464888572693,0.14380110800266266
1761315424688068000,7.489068115234375,0.10751527547836304,0.25329723954200745,0.11928484588861465
1761315424698116000,7.4991162109375,0.11063863337039948,0.2447088211774826,0.07528410106897354
1761315424708164000,7.5091640625,0.10571204870939255,0.20340397953987122,0.003020557342097163
1761315424718212000,7.519212158203125,0.09842004626989365,0.13043150305747986,-0.07488143444061279
1761315424728260000,7.529260009765625,0.0773581713438034,0.050985418260097504,-0.12673424184322357
1761315424738308000,7.53930810546875,0.045221541076898575,0.010193249210715294,-0.13414795696735382
1761315424748356000,7.549356201171875,0.017788585275411606,-0.0005067995516583323,-0.11229458451271057
1761315424758404400,7.559404296875,0.006681604776531458,0.0036495958920568228,-0.06650631874799728
1761315424768452000,7.5694521484375,0.004863997455686331,-0.0023494407068938017,0.0009590042755007744
1761315424778500000,7.5795,0.01010776124894619,0.0018751317402347922,0.07977818697690964
1761315424788548400,7.58954833984375,0.01594114862382412,0.035656265914440155,0.17071661353111267
1761315424798596000,7.59959619140625,0.015893479809165,0.09891832619905472,0.25879719853401184
1761315424808645400,7.609645263671875,0.015985092148184776,0.16320037841796875,0.3141392767429352
1761315424818693000,7.619693115234375,0.031928639858961105,0.18531793355941772,0.3351505696773529
1761315424828741000,7.6297412109375,0.04969325289130211,0.15728789567947388,0.31458616256713867
1761315424838789000,7.6397890625,0.07176340371370316,0.08194360136985779,0.25441551208496094
1761315424848837000,7.649837158203125,0.09803947806358337,0.0004010720585938543,0.17366287112236023
1761315424858885000,7.659885009765625,0.1232827827334404,-0.06172355264425278,0.08993121981620789
1761315424868933000,7.66993310546875,0.14326022565364838,-0.08535031974315643,0.01944160833954811
1761315424878981000,7.679981201171875,0.16890700161457062,-0.07921705394983292,-0.03301201015710831
1761315424889029400,7.690029296875,0.21465212106704712,-0.05459533631801605,-0.056361276656389236
1761315424899077000,7.7000771484375,0.2649107575416565,-0.015664180740714073,-0.057381000369787216
1761315424909125000,7.710125,0.31523358821868896,0.020118318498134613,-0.04691397771239281
1761315424919173000,7.720173095703125,0.3580564260482788,0.047205064445734024,-0.03238483890891075
1761315424929221000,7.73022119140625,0.38730430603027344,0.040100015699863434,-0.01641865447163582
1761315424939269000,7.74026904296875,0.40003475546836853,0.015598933212459087,0.005647233221679926
1761315424949317000,7.750317138671875,0.4032182991504669,0.005830724723637104,0.04117166996002197
1761315424959365000,7.760365234375,0.4057973027229309,0.004274906124919653,0.09116958826780319
1761315424969413000,7.7704130859375,0.41385096311569214,-0.0013265205780044198,0.15133465826511383
1761315424979461000,7.780461181640625,0.42198771238327026,-0.024655278772115707,0.19774051010608673
1761315424989509000,7.790509033203125,0.4258684813976288,-0.07637972384691238,0.22973385453224182
1761315424999557400,7.800557373046875,0.43700262904167175,-0.12607458233833313,0.2275383472442627
1761315425009605000,7.810605224609375,0.4553219676017761,-0.1638597697019577,0.1855885088443756
1761315425019653000,7.820653076171875,0.47319844365119934,-0.1954941302537918,0.1007055714726448
1761315425029701000,7.830701171875,0.47160613536834717,-0.2066357284784317,-0.013366405852138996
1761315425039749000,7.8407490234375,0.44472604990005493,-0.19903028011322021,-0.13178838789463043
1761315425049797000,7.850797119140625,0.39714735746383667,-0.193370521068573,-0.2475155144929886
1761315425059845000,7.86084521484375,0.33653193712234497,-0.20195814967155457,-0.3454732298851013
1761315425069893000,7.87089306640625,0.27953842282295227,-0.2081390917301178,-0.4146057069301605
1761315425079941400,7.88094140625,0.22227062284946442,-0.19101841747760773,-0.45250755548477173
1761315425089989000,7.890989013671875,0.16723346710205078,-0.14913435280323029,-0.4616307318210602
1761315425100037000,7.901037109375,0.12265348434448242,-0.07940267771482468,-0.4303167760372162
1761315425110085400,7.91108544921875,0.08856847882270813,0.01236479077488184,-0.3686627149581909
1761315425120133000,7.921133056640625,0.06847786158323288,0.12018845975399017,-0.2731207609176636
1761315425130181000,7.93118115234375,0.05809073522686958,0.23798486590385437,-0.160847470164299
1761315425140229000,7.94122900390625,0.0523470938205719,0.35302916169166565,-0.04724501073360443
1761315425150277000,7.951277099609375,0.04188140481710434,0.43534988164901733,0.045040711760520935
1761315425160325000,7.9613251953125,0.02893604338169098,0.4826180636882782,0.10512029379606247
1761315425170373000,7.971373046875,0.014458567835390568,0.48345136642456055,0.12493341416120529
1761315425180421000,7.981421142578125,0.0033691651187837124,0.4364393651485443,0.10285953432321548
1761315425190469400,7.991469482421875,-0.010524280369281769,0.357227623462677,0.04567188024520874
1761315425200517000,8.00151708984375,-0.016463128849864006,0.25828295946121216,-0.02520362287759781
1761315425210565000,8.011565185546875,-0.014314224012196064,0.16891765594482422,-0.09274378418922424
1761315425220613000,8.021613037109375,-0.00947818998247385,0.09818834811449051,-0.15272510051727295
1761315425230661000,8.0316611328125,0.007394533138722181,0.03435610979795456,-0.20084255933761597
1761315425240709000,8.041709228515625,0.02907159924507141,-0.0246622022241354,-0.23123641312122345
1761315425250757000,8.051757080078126,0.052202217280864716,-0.07028481364250183,-0.24705931544303894
1761315425260805000,8.06180517578125,0.07608837634325027,-0.11409914493560791,-0.24036599695682526
1761315425270853000,8.07185302734375,0.10501856356859207,-0.17249055206775665,-0.21030743420124054
1761315425280901000,8.081901123046874,0.11857298761606216,-0.24903938174247742,-0.17259547114372253
1761315425290949000,8.09194921875,0.1493106633424759,-0.30907875299453735,-0.13543425500392914
1761315425300997400,8.101997314453126,0.16911844909191132,-0.3133874833583832,-0.10548540949821472
1761315425311045000,8.112045166015625,0.18779920041561127,-0.2807219326496124,-0.09033548831939697
1761315425321093000,8.122093017578125,0.19177210330963135,-0.2598438262939453,-0.1105123981833458
1761315425331141000,8.13214111328125,0.1704590916633606,-0.27835813164711,-0.15999126434326172
1761315425341189000,8.142189208984375,0.13292023539543152,-0.31422263383865356,-0.2174588143825531
1761315425351237000,8.152237060546875,0.09033415466547012,-0.3467901647090912,-0.2626603841781616
1761315425361285000,8.16228515625,0.058771438896656036,-0.3790503740310669,-0.29511499404907227
1761315425371333000,8.1723330078125,0.044495563954114914,-0.38895681500434875,-0.31159889698028564
1761315425381381400,8.18238134765625,0.034395523369312286,-0.4136355221271515,-0.32404810190200806
1761315425391429000,8.19242919921875,-0.0018160095205530524,-0.48321059346199036,-0.3461102843284607
1761315425401477000,8.20247705078125,0.003762513864785433,-0.43610620498657227,-0.32309576869010925
1761315425411525400,8.212525390625,0.03931145370006561,-0.27562785148620605,-0.2605508863925934
1761315425421573000,8.222572998046875,0.01961125247180462,-0.14313052594661713,-0.20923976600170135
1761315425431621000,8.23262109375,-0.029932333156466484,-0.022110627964138985,-0.16989023983478546
1761315425441669000,8.242669189453125,-0.07436557859182358,0.07683299481868744,-0.1270708590745926
1761315425451717000,8.252717041015625,-0.10347925126552582,0.1545853167772293,-0.10249308496713638
1761315425461765000,8.26276513671875,-0.12070325016975403,0.16751043498516083,-0.08824384212493896
1761315425471813000,8.272813232421875,-0.12006355822086334,0.12447241693735123,-0.07081904262304306
1761315425481861000,8.282861083984375,-0.10414610803127289,0.14532549679279327,-0.016625314950942993
1761315425491909400,8.292909423828124,-0.08865183591842651,0.21436236798763275,0.07404839247465134
1761315425501957000,8.30295703125,-0.10974220931529999,0.35635092854499817,0.22863371670246124
1761315425512005000,8.313005126953126,-0.1284482479095459,0.5038261413574219,0.41809630393981934
1761315425522053000,8.32305322265625,-0.11726750433444977,0.631434977054596,0.5893423557281494
1761315425532101000,8.33310107421875,-0.10514719039201736,0.6559136509895325,0.6909744739532471
1761315425542149000,8.343149169921874,-0.11320085823535919,0.522733747959137,0.6873184442520142
1761315425552196900,8.35319677734375,-0.13172127306461334,0.39561524987220764,0.6396457552909851
1761315425562245000,8.3632451171875,-0.15856514871120453,0.3974275290966034,0.6249285936355591
1761315425572293000,8.373293212890625,-0.27523529529571533,0.3296002745628357,0.5782100558280945
1761315425582340900,8.3833408203125,-0.37417519092559814,0.1538955569267273,0.47850507497787476
1761315425592389000,8.39338916015625,-0.4262213408946991,0.0850086361169815,0.3919571340084076
1761315425602437000,8.40343701171875,-0.424883633852005,0.06732071936130524,0.31143084168434143
1761315425612485000,8.413485107421875,-0.39762672781944275,0.09692627936601639,0.28729090094566345
1761315425622533000,8.423533203125,-0.3470916450023651,0.06572175770998001,0.27489015460014343
1761315425632581000,8.4335810546875,-0.26119059324264526,0.000978978001512587,0.26596590876579285
1761315425642629000,8.443629150390626,-0.15080921351909637,-0.06387192010879517,0.27308347821235657
1761315425652677000,8.453677001953125,-0.03369458019733429,-0.12820564210414886,0.2759612798690796
1761315425662724900,8.463724853515625,0.03852315619587898,-0.15371179580688477,0.28085508942604065
1761315425672773000,8.473773193359374,0.05487336963415146,-0.1150970309972763,0.2720631957054138
1761315425682821000,8.483821044921875,0.03532177209854126,-0.02690032310783863,0.24395141005516052
1761315425692869000,8.493869140625,0.00003861583536490798,0.08789150416851044,0.18908870220184326
1761315425702917000,8.503917236328125,-0.02286350354552269,0.15244200825691223,0.10340601950883865
1761315425712965000,8.513965087890625,-0.02797437645494938,0.1608397513628006,0.007445665542036295
1761315425723013000,8.52401318359375,-0.024416126310825348,0.15871214866638184,-0.0673806369304657
1761315425733061000,8.53406103515625,-0.012447881512343884,0.19254574179649353,-0.09774067252874374
1761315425743108900,8.54410888671875,0.017797106876969337,0.2668282389640808,-0.08389703184366226
1761315425753157000,8.5541572265625,0.06718968600034714,0.38753095269203186,-0.03369537740945816
1761315425763205000,8.564205078125,0.09295177459716797,0.46766918897628784,0.022097045555710793
1761315425773252900,8.5742529296875,0.16684465110301971,0.45213815569877625,0.06133366376161575
1761315425783301000,8.584301025390625,0.2888789474964142,0.41417428851127625,0.08958660811185837
1761315425793349000,8.59434912109375,0.41547176241874695,0.38073962926864624,0.09712628275156021
1761315425803397000,8.604397216796874,0.4862354099750519,0.3317025601863861,0.09458748996257782
1761315425813445000,8.614445068359375,0.49767714738845825,0.29148831963539124,0.08913174271583557
1761315425823493000,8.6244931640625,0.4839536249637604,0.2648681402206421,0.08315560966730118
1761315425833541000,8.634541015625,0.46340200304985046,0.20436884462833405,0.05486378073692322
1761315425843589000,8.644589111328125,0.44206610321998596,0.10248243063688278,0.023037409409880638
1761315425853636900,8.654636962890624,0.4224284887313843,0.021939121186733246,-0.0075796227902174
1761315425863685000,8.66468505859375,0.39793139696121216,0.019773172214627266,-0.02754906937479973
1761315425873733000,8.674733154296876,0.38225656747817993,0.07534748315811157,-0.02767636813223362
1761315425883780900,8.68478076171875,0.38532504439353943,0.17055176198482513,-0.020058663561940193
1761315425893829000,8.6948291015625,0.4238087832927704,0.31302422285079956,-0.021317539736628532
1761315425903877000,8.704877197265626,0.48646843433380127,0.43926525115966797,-0.03581738471984863
1761315425913925000,8.714925048828125,0.5628367066383362,0.5100824236869812,-0.05606486648321152
1761315425923973000,8.72497314453125,0.633161723613739,0.5441263914108276,-0.07390325516462326
1761315425934021000,8.735021240234374,0.7001191973686218,0.5680631995201111,-0.09076106548309326
1761315425944069000,8.745069091796875,0.7496428489685059,0.5756209492683411,-0.11341364681720734
1761315425954117000,8.7551171875,0.7889803647994995,0.5875873565673828,-0.1379525363445282
1761315425964164900,8.765164794921875,0.8185004591941833,0.6144123077392578,-0.16058674454689026
1761315425974213000,8.775213134765625,0.8323507308959961,0.6208606362342834,-0.1726655215024948
1761315425984261000,8.78526123046875,0.8320602178573608,0.5853154063224792,-0.18550407886505127
1761315425994309000,8.79530908203125,0.8182780742645264,0.5416965484619141,-0.1905832588672638
1761315426004357000,8.805357177734376,0.7968433499336243,0.4802992343902588,-0.17781314253807068
1761315426014405000,8.815405029296874,0.7738794684410095,0.4275635778903961,-0.15571875870227814
1761315426024453000,8.825453125,0.7650018334388733,0.39938682317733765,-0.1321103721857071
1761315426034501000,8.835501220703126,0.7875702381134033,0.37202176451683044,-0.12409744411706924
1761315426044548000,8.845548095703125,0.8293398022651672,0.33918604254722595,-0.1281244158744812
1761315426054596000,8.85559619140625,0.8778977394104004,0.31077811121940613,-0.14763899147510529
1761315426064644000,8.86564404296875,0.921634316444397,0.27928224205970764,-0.1852414906024933
1761315426074692000,8.875692138671875,0.9681719541549683,0.26205503940582275,-0.21627052128314972
1761315426084740000,8.885739990234375,1.0148366689682007,0.26255306601524353,-0.24149438738822937
1761315426094788000,8.8957880859375,1.0401569604873657,0.2828111946582794,-0.2438797801733017
1761315426104836000,8.905836181640625,1.0482865571975708,0.3376062512397766,-0.22595377266407013
1761315426114884000,8.915884033203126,1.0522303581237793,0.4053610861301422,-0.19258064031600952
1761315426124931000,8.92593115234375,1.060997486114502,0.45706743001937866,-0.14705203473567963
1761315426134979000,8.93597900390625,1.0741010904312134,0.4389374256134033,-0.10500790923833847
1761315426145027000,8.946027099609376,1.0862905979156494,0.37714487314224243,-0.05698738619685173
1761315426155075000,8.956074951171875,1.0981965065002441,0.30704808235168457,-0.005671467632055283
1761315426165123000,8.966123046875,1.111868143081665,0.24758848547935486,0.04705352708697319
1761315426175171000,8.976171142578124,1.1317009925842285,0.22737962007522583,0.08804676681756973
1761315426185219000,8.986218994140625,1.1544995307922363,0.22449596226215363,0.10940372198820114
1761315426195267000,8.99626708984375,1.1815905570983887,0.21394024789333344,0.10657811164855957
1761315426205315000,9.006315185546875,1.2116751670837402,0.19504113495349884,0.08471089601516724
1761315426215363000,9.016363037109375,1.2331801652908325,0.18723167479038239,0.07804632931947708
1761315426225411000,9.0264111328125,1.233279824256897,0.22803343832492828,0.08156703412532806
1761315426235459000,9.036458984375,1.2269572019577026,0.28683629631996155,0.1016099825501442
1761315426245507000,9.046507080078126,1.230831265449524,0.35028690099716187,0.11629358679056168
1761315426255555000,9.05655517578125,1.2398924827575684,0.40394774079322815,0.12330009788274765
1761315426265603000,9.06660302734375,1.2593308687210083,0.4566633999347687,0.12388093024492264
1761315426275651000,9.076651123046876,1.292305588722229,0.49803003668785095,0.11654152721166611
1761315426285699000,9.086698974609375,1.328611135482788,0.4972630441188812,0.11321816593408585
1761315426295747000,9.0967470703125,1.3731876611709595,0.4727177619934082,0.13548831641674042
1761315426305795000,9.106795166015624,1.4272305965423584,0.4461172819137573,0.17973168194293976
1761315426315843000,9.116843017578125,1.4950519800186157,0.43561431765556335,0.22856047749519348
1761315426325891000,9.12689111328125,1.5842229127883911,0.4508446753025055,0.2751311659812927
1761315426335939000,9.13693896484375,1.674487829208374,0.46300333738327026,0.2963946461677551
1761315426345987000,9.146987060546875,1.739276647567749,0.45381543040275574,0.28522056341171265
1761315426356035000,9.15703515625,1.771401286125183,0.43691980838775635,0.23178209364414215
1761315426366083000,9.1670830078125,1.7705962657928467,0.4206332266330719,0.13286884129047394
1761315426376131000,9.177131103515626,1.7624621391296387,0.40465134382247925,0.0017984326696023345
1761315426386179000,9.187178955078124,1.7454395294189453,0.3720121681690216,-0.142785906791687
1761315426396227000,9.19722705078125,1.7308509349822998,0.34048861265182495,-0.27665770053863525
1761315426406275000,9.207275146484376,1.7204054594039917,0.34736010432243347,-0.36789119243621826
1761315426416323000,9.217322998046875,1.7413699626922607,0.3931584656238556,-0.40487077832221985
1761315426426371000,9.22737109375,1.7680928707122803,0.4486941695213318,-0.39409831166267395
1761315426436419000,9.237419189453124,1.8037054538726807,0.5114582180976868,-0.3332213759422302
1761315426446467000,9.247467041015625,1.8326835632324219,0.6004059314727783,-0.2334257960319519
1761315426456515000,9.25751513671875,1.8495209217071533,0.695325493812561,-0.12867462635040283
1761315426466563000,9.26756298828125,1.8548978567123413,0.7706740498542786,-0.0295546967536211
1761315426476611000,9.277611083984375,1.8537944555282593,0.8279802203178406,0.053163085132837296
1761315426486659000,9.2876591796875,1.8478316068649292,0.8336519598960876,0.11932026594877243
1761315426496707000,9.29770703125,1.8306012153625488,0.7928443551063538,0.17989173531532288
1761315426506755800,9.307755859375,1.8216317892074585,0.7316832542419434,0.22919856011867523
1761315426516804000,9.31780419921875,1.822867751121521,0.6670811176300049,0.2651839852333069
1761315426526851800,9.327851806640625,1.8338940143585205,0.6294335722923279,0.2771599590778351
1761315426536899800,9.33789990234375,1.846556544303894,0.619260311126709,0.27524247765541077
1761315426546947800,9.34794775390625,1.8605737686157227,0.6488885283470154,0.2616473138332367
1761315426556995800,9.357995849609376,1.869788646697998,0.7113401889801025,0.24817092716693878
1761315426567044000,9.368044189453125,1.8807976245880127,0.7520031929016113,0.21549740433692932
1761315426577091800,9.378091796875,1.8861547708511353,0.7739090323448181,0.1593390554189682
1761315426587139800,9.388139892578126,1.9049478769302368,0.8081793785095215,0.10533840954303741
1761315426597188000,9.39818798828125,1.93324613571167,0.8441680073738098,0.059785835444927216
1761315426607235800,9.40823583984375,1.9274513721466064,0.9048715829849243,0.022941002622246742
1761315426617282800,9.41828271484375,1.884956955909729,0.9831773042678833,-0.007477357517927885
1761315426627331000,9.4283310546875,1.8673523664474487,0.9945098161697388,-0.04109843447804451
1761315426637382000,9.4383818359375,1.875406265258789,0.9866337776184082,-0.05486804246902466
1761315426647430000,9.448429931640625,1.8944069147109985,0.9904434680938721,-0.05693652108311653
1761315426657478000,9.458477783203126,1.9006080627441406,0.9905726313591003,-0.0515899583697319
1761315426667526000,9.46852587890625,1.904475450515747,0.9893385171890259,-0.04265877977013588
1761315426677574000,9.478573974609375,1.9108021259307861,0.9915243983268738,-0.020956680178642273
1761315426687622000,9.488621826171874,1.91028892993927,1.041113018989563,0.020434968173503876
1761315426697670000,9.498669921875,1.899856448173523,1.1112761497497559,0.06716811656951904
1761315426707718000,9.5087177734375,1.8878493309020996,1.1774263381958008,0.09009260684251785
1761315426717766000,9.518765869140625,1.886385202407837,1.2256802320480347,0.10126136988401413
1761315426727814000,9.52881396484375,1.8906337022781372,1.2734026908874512,0.09496113657951355
1761315426737862000,9.53886181640625,1.8945538997650146,1.313527226448059,0.07294318079948425
1761315426747910100,9.54891015625,1.900666356086731,1.3449981212615967,0.05336868390440941
1761315426757958000,9.5589580078125,1.9149888753890991,1.3425029516220093,0.037580665200948715
1761315426768006000,9.569005859375,1.9220454692840576,1.305161952972412,0.014976286329329014
1761315426778054000,9.579053955078125,1.917698621749878,1.2620559930801392,-0.012851083651185036
1761315426788102000,9.589101806640626,1.9007720947265625,1.2508068084716797,-0.04262575879693031
1761315426798150000,9.59914990234375,1.8674389123916626,1.2506380081176758,-0.06412119418382645
1761315426808198000,9.609197998046875,1.826019525527954,1.2650846242904663,-0.07233305275440216
1761315426818246000,9.619245849609374,1.7965434789657593,1.2867834568023682,-0.05661853775382042
1761315426828294000,9.6292939453125,1.7813020944595337,1.303511142730713,-0.03803127259016037
1761315426838342000,9.639341796875,1.7940869331359863,1.3012298345565796,-0.026877952739596367
1761315426848390000,9.649389892578125,1.82737135887146,1.2619495391845703,-0.018927352502942085
1761315426858438000,9.65943798828125,1.876893401145935,1.2185364961624146,-0.016282299533486366
1761315426868486000,9.66948583984375,1.9241453409194946,1.1940317153930664,-0.022039787843823433
1761315426878534000,9.679533935546875,1.9561967849731445,1.1737099885940552,-0.03458034619688988
1761315426888582000,9.689581787109375,1.9886308908462524,1.1623952388763428,-0.04882106930017471
1761315426898630000,9.6996298828125,2.012568473815918,1.160817265510559,-0.08413298428058624
1761315426908678000,9.709677978515625,2.0337116718292236,1.1711537837982178,-0.12585273385047913
1761315426918726000,9.719725830078126,2.0610642433166504,1.1885483264923096,-0.1694585382938385
1761315426928774000,9.72977392578125,2.0757877826690674,1.1965910196304321,-0.2188447266817093
1761315426938822000,9.73982177734375,2.0734119415283203,1.1820440292358398,-0.2570909261703491
1761315426948870000,9.749869873046874,2.0513765811920166,1.1709160804748535,-0.28862646222114563
1761315426958918000,9.75991796875,2.0228207111358643,1.1652376651763916,-0.31890180706977844
1761315426968964900,9.76996484375,1.9884675741195679,1.1435458660125732,-0.34790417551994324
1761315426979012900,9.780012939453124,1.9572066068649292,1.1139906644821167,-0.3780873715877533
1761315426989060900,9.790060791015625,1.9388377666473389,1.077284812927246,-0.41428133845329285
1761315426999108900,9.80010888671875,1.8824756145477295,1.070919394493103,-0.348073810338974
1761315427009156900,9.810156982421875,1.857550024986267,0.8901671767234802,-0.26920536160469055
1761315427019204900,9.820204833984375,1.8909833431243896,0.7026960849761963,-0.19138087332248688
1761315427029253000,9.830253173828124,1.9480229616165161,0.5754920840263367,-0.10652084648609161
1761315427039300900,9.84030078125,1.9665896892547607,0.5222442746162415,-0.026189526543021202
1761315427049348900,9.850348876953126,1.9426785707473755,0.5617666840553284,0.02340385876595974
1761315427059396900,9.86039697265625,1.8959544897079468,0.6633409857749939,0.0377923846244812
1761315427069444900,9.87044482421875,1.834770917892456,0.7871774435043335,0.01309023518115282
1761315427079492900,9.880492919921876,1.7411028146743774,0.882045328617096,-0.020979050546884537
1761315427089540900,9.890540771484375,1.6371535062789917,0.9443315863609314,-0.042997267097234726
