time,seconds_elapsed,z,y,x
1761315067331533300,0.071533203125,-0.9756927490234375,-0.2042083740234375,0.0380096435546875
1761315067341581300,0.081581298828125,-0.970184326171875,-0.2015228271484375,0.0337066650390625
1761315067351629600,0.091629638671875,-0.9723663330078125,-0.1975860595703125,0.029571533203125
1761315067361677300,0.10167724609375,-0.97698974609375,-0.194305419921875,0.02978515625
1761315067371724300,0.111724365234375,-0.9755401611328125,-0.194671630859375,0.0306549072265625
1761315067381772300,0.121772216796875,-0.9741973876953125,-0.195465087890625,0.031524658203125
1761315067391820500,0.131820556640625,-0.98211669921875,-0.1964263916015625,0.029754638671875
1761315067401868300,0.141868408203125,-0.97955322265625,-0.1926422119140625,0.0235748291015625
1761315067411916500,0.15191650390625,-0.9699554443359375,-0.183258056640625,0.01922607421875
1761315067421963500,0.161963623046875,-0.9678192138671875,-0.18017578125,0.0176849365234375
1761315067432011300,0.17201123046875,-0.9661102294921875,-0.1819000244140625,0.0227508544921875
1761315067442059300,0.182059326171875,-0.968353271484375,-0.1838836669921875,0.0295867919921875
1761315067452107500,0.192107421875,-0.9716949462890625,-0.185211181640625,0.0353851318359375
1761315067462155300,0.2021552734375,-0.966827392578125,-0.187591552734375,0.03912353515625
1761315067472202200,0.2122021484375,-0.9633331298828125,-0.1906280517578125,0.0391845703125
1761315067482250500,0.22225048828125,-0.96575927734375,-0.19232177734375,0.03741455078125
1761315067492298200,0.23229833984375,-0.96087646484375,-0.1955108642578125,0.0340728759765625
1761315067502346200,0.24234619140625,-0.9597320556640625,-0.1944122314453125,0.030609130859375
1761315067512394500,0.25239453125,-0.9674530029296875,-0.196502685546875,0.0373992919921875
1761315067522441500,0.26244140625,-0.9852142333984375,-0.198272705078125,0.0450897216796875
1761315067532489200,0.2724892578125,-0.996337890625,-0.19866943359375,0.049835205078125
1761315067542537500,0.282537353515625,-0.994476318359375,-0.1983184814453125,0.0487060546875
1761315067552585500,0.29258544921875,-0.9889678955078125,-0.1979522705078125,0.04656982421875
1761315067562633200,0.30263330078125,-0.9787445068359375,-0.2006072998046875,0.0434112548828125
1761315067572680400,0.312680419921875,-0.9726715087890625,-0.2018280029296875,0.0403900146484375
1761315067582728400,0.322728515625,-0.9712982177734375,-0.2043609619140625,0.0392303466796875
1761315067592776200,0.332776123046875,-0.96923828125,-0.2063751220703125,0.03802490234375
1761315067602824400,0.342824462890625,-0.96234130859375,-0.2054595947265625,0.0368804931640625
1761315067612872400,0.35287255859375,-0.96917724609375,-0.2030487060546875,0.0344696044921875
1761315067622919400,0.36291943359375,-0.9754180908203125,-0.1989593505859375,0.02783203125
1761315067632967400,0.372967529296875,-0.966156005859375,-0.1972503662109375,0.02252197265625
1761315067643015400,0.383015380859375,-0.9573822021484375,-0.1975250244140625,0.0191650390625
1761315067653063400,0.3930634765625,-0.953460693359375,-0.20013427734375,0.0219573974609375
1761315067663111400,0.403111328125,-0.9602508544921875,-0.20220947265625,0.0304107666015625
1761315067673158400,0.413158447265625,-0.9611968994140625,-0.207366943359375,0.035980224609375
1761315067683206400,0.423206298828125,-0.947906494140625,-0.2107086181640625,0.0367279052734375
1761315067693254400,0.43325439453125,-0.9539642333984375,-0.213409423828125,0.037628173828125
1761315067703302400,0.443302490234375,-0.96063232421875,-0.2115478515625,0.0325775146484375
1761315067713350400,0.453350341796875,-0.9573516845703125,-0.2061767578125,0.02471923828125
1761315067723397400,0.4633974609375,-0.9549713134765625,-0.2031402587890625,0.01654052734375
1761315067733445400,0.4734453125,-0.962249755859375,-0.203857421875,0.01312255859375
1761315067743493400,0.483493408203125,-0.964202880859375,-0.2083282470703125,0.009429931640625
1761315067753541400,0.493541259765625,-0.95458984375,-0.2100830078125,0.0104827880859375
1761315067763589400,0.50358935546875,-0.961090087890625,-0.2089996337890625,0.01300048828125
1761315067773636400,0.51363623046875,-0.96673583984375,-0.2093505859375,0.014007568359375
1761315067783684600,0.5236845703125,-0.959228515625,-0.2098541259765625,0.01312255859375
1761315067793732400,0.533732421875,-0.954376220703125,-0.20965576171875,0.0075225830078125
1761315067803780400,0.5437802734375,-0.950042724609375,-0.2085723876953125,0.0064849853515625
1761315067813828400,0.553828369140625,-0.9485321044921875,-0.209259033203125,0.0068511962890625
1761315067823875300,0.563875244140625,-0.948760986328125,-0.2131195068359375,0.0115509033203125
1761315067833923300,0.57392333984375,-0.954345703125,-0.2178802490234375,0.0172576904296875
1761315067843971600,0.5839716796875,-0.9574737548828125,-0.2249908447265625,0.0244293212890625
1761315067854019300,0.594019287109375,-0.9569549560546875,-0.233123779296875,0.029388427734375
1761315067864067300,0.6040673828125,-0.9656829833984375,-0.23822021484375,0.0304107666015625
1761315067874114300,0.6141142578125,-0.96600341796875,-0.2409820556640625,0.03045654296875
1761315067884162300,0.624162353515625,-0.9694366455078125,-0.2436065673828125,0.0276031494140625
1761315067894210300,0.634210205078125,-0.9788665771484375,-0.246856689453125,0.02886962890625
1761315067904258600,0.644258544921875,-0.9820098876953125,-0.249267578125,0.035247802734375
1761315067914306300,0.654306396484375,-0.97698974609375,-0.253204345703125,0.038787841796875
1761315067924353300,0.664353271484375,-0.9788665771484375,-0.2584075927734375,0.0429840087890625
1761315067934401300,0.6744013671875,-0.968231201171875,-0.265777587890625,0.047332763671875
1761315067944449500,0.684449462890625,-0.9428253173828125,-0.2758026123046875,0.047088623046875
1761315067954497300,0.694497314453125,-0.9283599853515625,-0.282958984375,0.0454559326171875
1761315067964545500,0.704545654296875,-0.9214630126953125,-0.28668212890625,0.0424041748046875
1761315067974592500,0.714592529296875,-0.9192962646484375,-0.2895965576171875,0.0386962890625
1761315067984640300,0.72464013671875,-0.91534423828125,-0.2913665771484375,0.0386962890625
1761315067994688300,0.734688232421875,-0.9196624755859375,-0.2877349853515625,0.0359344482421875
1761315068004736500,0.744736572265625,-0.9230804443359375,-0.2810211181640625,0.036956787109375
1761315068014784300,0.7547841796875,-0.920135498046875,-0.2766876220703125,0.038360595703125
1761315068024831200,0.764831298828125,-0.9237518310546875,-0.277618408203125,0.0426483154296875
1761315068034879500,0.77487939453125,-0.9290771484375,-0.2783660888671875,0.047454833984375
1761315068044927200,0.78492724609375,-0.933197021484375,-0.2789306640625,0.056365966796875
1761315068054975200,0.794975341796875,-0.9455108642578125,-0.27899169921875,0.0680999755859375
1761315068065022500,0.8050224609375,-0.95208740234375,-0.2787017822265625,0.0743255615234375
1761315068075070500,0.815070556640625,-0.946624755859375,-0.274566650390625,0.074066162109375
1761315068085118200,0.8251181640625,-0.948394775390625,-0.27117919921875,0.0712738037109375
1761315068095166500,0.83516650390625,-0.9565582275390625,-0.2710418701171875,0.0687103271484375
1761315068105214500,0.84521435546875,-0.9574127197265625,-0.27069091796875,0.063201904296875
1761315068115261400,0.855261474609375,-0.9546356201171875,-0.2695770263671875,0.060394287109375
1761315068125309400,0.865309326171875,-0.9522247314453125,-0.267608642578125,0.0622711181640625
1761315068135357400,0.875357421875,-0.9499053955078125,-0.2692718505859375,0.0680999755859375
1761315068145405200,0.8854052734375,-0.951446533203125,-0.2754669189453125,0.0748291015625
1761315068155453400,0.895453369140625,-0.9506683349609375,-0.2830352783203125,0.0783538818359375
1761315068165500400,0.90550048828125,-0.942352294921875,-0.2878265380859375,0.0760650634765625
1761315068175548700,0.915548583984375,-0.9314117431640625,-0.28961181640625,0.0686798095703125
1761315068185596400,0.925596435546875,-0.930450439453125,-0.290863037109375,0.066650390625
1761315068195644700,0.935644775390625,-0.9363555908203125,-0.292999267578125,0.0689544677734375
1761315068205692400,0.9456923828125,-0.93646240234375,-0.2904510498046875,0.0677032470703125
1761315068215739400,0.955739501953125,-0.9370880126953125,-0.2868194580078125,0.0673065185546875
1761315068225787400,0.965787353515625,-0.9412078857421875,-0.28521728515625,0.06982421875
1761315068235835600,0.975835693359375,-0.9423065185546875,-0.289520263671875,0.0720672607421875
1761315068245883400,0.98588330078125,-0.9446258544921875,-0.2908477783203125,0.0736541748046875
1761315068255931600,0.995931640625,-0.9415435791015625,-0.287841796875,0.070556640625
1761315068265978600,1.005978515625,-0.936370849609375,-0.285614013671875,0.0691986083984375
1761315068276026400,1.0160263671875,-0.9360504150390625,-0.2831878662109375,0.06793212890625
1761315068286074400,1.026074462890625,-0.9376678466796875,-0.283416748046875,0.0663604736328125
1761315068296122600,1.03612255859375,-0.94085693359375,-0.283447265625,0.0670013427734375
1761315068306170400,1.04617041015625,-0.9443817138671875,-0.2824249267578125,0.0707244873046875
1761315068316217300,1.05621728515625,-0.9511566162109375,-0.2806243896484375,0.07135009765625
1761315068326265600,1.066265625,-0.9453887939453125,-0.2792510986328125,0.069183349609375
1761315068336313600,1.076313720703125,-0.9405059814453125,-0.27783203125,0.0698089599609375
1761315068346361300,1.086361328125,-0.941650390625,-0.27972412109375,0.06768798828125
1761315068356409600,1.09640966796875,-0.9401702880859375,-0.2800140380859375,0.0673065185546875
1761315068366456600,1.10645654296875,-0.938995361328125,-0.2804107666015625,0.0678558349609375
1761315068376504300,1.11650439453125,-0.9473419189453125,-0.281890869140625,0.0726776123046875
1761315068386552600,1.126552490234375,-0.9483489990234375,-0.2825164794921875,0.07586669921875
1761315068396600600,1.1366005859375,-0.94842529296875,-0.2813568115234375,0.078399658203125
1761315068406648300,1.1466484375,-0.948089599609375,-0.2811737060546875,0.0814361572265625
1761315068416695600,1.156695556640625,-0.9440155029296875,-0.28143310546875,0.0830535888671875
1761315068426743600,1.16674365234375,-0.937652587890625,-0.2803802490234375,0.0786590576171875
1761315068436791300,1.176791259765625,-0.9375,-0.278961181640625,0.075897216796875
1761315068446839600,1.186839599609375,-0.94482421875,-0.27691650390625,0.0750732421875
1761315068456887600,1.196887451171875,-0.947357177734375,-0.276397705078125,0.076324462890625
1761315068466934500,1.2069345703125,-0.9493255615234375,-0.275360107421875,0.0742340087890625
1761315068476982500,1.216982421875,-0.9466094970703125,-0.27532958984375,0.0726776123046875
1761315068487030500,1.227030517578125,-0.945098876953125,-0.2740478515625,0.071502685546875
1761315068497078500,1.23707861328125,-0.9437408447265625,-0.2730255126953125,0.0715179443359375
1761315068507125500,1.24712548828125,-0.943115234375,-0.2733306884765625,0.073455810546875
1761315068517173500,1.257173583984375,-0.9371185302734375,-0.2739105224609375,0.074127197265625
1761315068527221500,1.267221435546875,-0.9376068115234375,-0.2745208740234375,0.0714111328125
1761315068537269500,1.27726953125,-0.94647216796875,-0.2739715576171875,0.070587158203125
1761315068547317500,1.2873173828125,-0.9556427001953125,-0.271514892578125,0.069732666015625
1761315068557364500,1.297364501953125,-0.9562225341796875,-0.269195556640625,0.0683746337890625
1761315068567412700,1.307412841796875,-0.9566802978515625,-0.2692718505859375,0.072662353515625
1761315068577460500,1.31746044921875,-0.96673583984375,-0.2776336669921875,0.0821075439453125
1761315068587508500,1.327508544921875,-0.968109130859375,-0.2873687744140625,0.0906829833984375
1761315068597556500,1.337556396484375,-0.9572296142578125,-0.2885894775390625,0.09368896484375
1761315068607603500,1.347603515625,-0.9499053955078125,-0.2859039306640625,0.0934600830078125
1761315068617651500,1.3576513671875,-0.9393310546875,-0.2862396240234375,0.089996337890625
1761315068627699700,1.36769970703125,-0.9301605224609375,-0.2884521484375,0.0875091552734375
1761315068637747500,1.37774755859375,-0.92919921875,-0.289947509765625,0.0858154296875
1761315068647795500,1.38779541015625,-0.9284515380859375,-0.28985595703125,0.082366943359375
1761315068657842400,1.397842529296875,-0.9203948974609375,-0.2893524169921875,0.080413818359375
1761315068667890400,1.407890380859375,-0.923187255859375,-0.2899322509765625,0.0826873779296875
1761315068677938400,1.4179384765625,-0.927734375,-0.29022216796875,0.085662841796875
1761315068687986700,1.427986572265625,-0.9296112060546875,-0.2918853759765625,0.087921142578125
1761315068698034400,1.438034423828125,-0.936370849609375,-0.290618896484375,0.0906829833984375
1761315068708081400,1.448081298828125,-0.942840576171875,-0.2880401611328125,0.089385986328125
1761315068718129400,1.45812939453125,-0.941680908203125,-0.28778076171875,0.0853118896484375
1761315068728177700,1.468177734375,-0.942474365234375,-0.287689208984375,0.08563232421875
1761315068738225400,1.478225341796875,-0.949554443359375,-0.28765869140625,0.0892486572265625
1761315068748272400,1.4882724609375,-0.9544830322265625,-0.2895660400390625,0.091766357421875
1761315068758320600,1.498320556640625,-0.9498443603515625,-0.29034423828125,0.0919036865234375
1761315068768368400,1.508368408203125,-0.948394775390625,-0.291229248046875,0.0926361083984375
1761315068778416400,1.51841650390625,-0.94683837890625,-0.2928314208984375,0.0925445556640625
1761315068788464600,1.528464599609375,-0.9338531494140625,-0.293853759765625,0.0885467529296875
1761315068798511600,1.53851171875,-0.9255218505859375,-0.2953643798828125,0.08612060546875
1761315068808559400,1.548559326171875,-0.924560546875,-0.298492431640625,0.096038818359375
1761315068818607600,1.558607666015625,-0.941986083984375,-0.3007965087890625,0.11334228515625
1761315068828655400,1.5686552734375,-0.9372406005859375,-0.302825927734375,0.1097412109375
1761315068838703400,1.578703369140625,-0.9312286376953125,-0.30047607421875,0.1067962646484375
1761315068848750600,1.58875048828125,-0.9353179931640625,-0.2973480224609375,0.0994720458984375
1761315068858798600,1.598798583984375,-0.9337005615234375,-0.292083740234375,0.0946807861328125
1761315068868846300,1.608846435546875,-0.9332733154296875,-0.2871246337890625,0.08837890625
1761315068878894600,1.61889453125,-0.932525634765625,-0.2885589599609375,0.084503173828125
1761315068888942600,1.628942626953125,-0.9352569580078125,-0.292236328125,0.0861358642578125
1761315068898989300,1.6389892578125,-0.9406585693359375,-0.2942047119140625,0.0854644775390625
1761315068909037600,1.64903759765625,-0.94012451171875,-0.2926483154296875,0.0828094482421875
1761315068919085600,1.65908544921875,-0.9386138916015625,-0.2910003662109375,0.079010009765625
1761315068929133300,1.66913330078125,-0.9335479736328125,-0.2926788330078125,0.0829315185546875
1761315068939181600,1.679181640625,-0.9292449951171875,-0.2949371337890625,0.0940704345703125
1761315068949228500,1.689228515625,-0.923797607421875,-0.2814483642578125,0.098052978515625
1761315068959276500,1.699276611328125,-0.9232177734375,-0.2793426513671875,0.1013946533203125
1761315068969324500,1.709324462890625,-0.933441162109375,-0.2993621826171875,0.1068878173828125
1761315068979372500,1.71937255859375,-0.9331817626953125,-0.2998809814453125,0.1039886474609375
1761315068989419500,1.72941943359375,-0.9328460693359375,-0.29058837890625,0.09722900390625
1761315068999467500,1.739467529296875,-0.9324951171875,-0.283477783203125,0.0928497314453125
1761315069009515500,1.749515625,-0.93157958984375,-0.2795562744140625,0.08599853515625
1761315069019563500,1.7595634765625,-0.928070068359375,-0.2790374755859375,0.0799560546875
1761315069029611500,1.769611572265625,-0.926605224609375,-0.280059814453125,0.0810699462890625
1761315069039658500,1.779658447265625,-0.9319610595703125,-0.2840728759765625,0.0846405029296875
1761315069049706500,1.78970654296875,-0.9289703369140625,-0.28680419921875,0.08392333984375
1761315069059754500,1.79975439453125,-0.926666259765625,-0.28857421875,0.08197021484375
1761315069069802500,1.809802490234375,-0.9342498779296875,-0.2901763916015625,0.082611083984375
1761315069079850500,1.8198505859375,-0.935089111328125,-0.2933197021484375,0.0822906494140625
1761315069089897500,1.8298974609375,-0.9373016357421875,-0.2976837158203125,0.07867431640625
1761315069099945500,1.839945556640625,-0.93756103515625,-0.2983245849609375,0.0757293701171875
1761315069109993500,1.849993408203125,-0.93756103515625,-0.2967529296875,0.0739593505859375
1761315069120041700,1.860041748046875,-0.93792724609375,-0.291595458984375,0.073944091796875
1761315069130089500,1.87008935546875,-0.9404144287109375,-0.2904510498046875,0.07470703125
1761315069140136400,1.880136474609375,-0.9422149658203125,-0.2906951904296875,0.0756378173828125
1761315069150184400,1.890184326171875,-0.946075439453125,-0.28863525390625,0.0771636962890625
1761315069160232400,1.900232421875,-0.9525299072265625,-0.286407470703125,0.0748138427734375
1761315069170280400,1.910280517578125,-0.9521484375,-0.2851715087890625,0.0725555419921875
1761315069180328400,1.920328369140625,-0.94830322265625,-0.285369873046875,0.0715484619140625
1761315069190375400,1.93037548828125,-0.950164794921875,-0.2841949462890625,0.0705413818359375
1761315069200423400,1.94042333984375,-0.9511871337890625,-0.28326416015625,0.07281494140625
1761315069210471400,1.950471435546875,-0.953125,-0.2808380126953125,0.0738525390625
1761315069220519400,1.96051953125,-0.95458984375,-0.278411865234375,0.0747222900390625
1761315069230566400,1.97056640625,-0.9608154296875,-0.2774810791015625,0.0785369873046875
1761315069240614400,1.980614501953125,-0.96026611328125,-0.27978515625,0.0798797607421875
1761315069250662400,1.990662353515625,-0.9534454345703125,-0.2811431884765625,0.0829315185546875
1761315069260710400,2.00071044921875,-0.951141357421875,-0.2783355712890625,0.0811767578125
1761315069270758400,2.01075830078125,-0.9511566162109375,-0.27813720703125,0.083465576171875
1761315069280805400,2.020805419921875,-0.9426422119140625,-0.279449462890625,0.0846405029296875
1761315069290853400,2.030853271484375,-0.939971923828125,-0.28326416015625,0.0868072509765625
1761315069300901400,2.0409013671875,-0.9485626220703125,-0.28619384765625,0.09075927734375
1761315069310949400,2.050949462890625,-0.9491729736328125,-0.2831268310546875,0.09051513671875
1761315069320997400,2.060997314453125,-0.94091796875,-0.277862548828125,0.0884857177734375
1761315069331044400,2.07104443359375,-0.9388427734375,-0.2743377685546875,0.0848236083984375
1761315069341092400,2.08109228515625,-0.9392852783203125,-0.2760009765625,0.08587646484375
1761315069351140600,2.091140625,-0.93988037109375,-0.2789154052734375,0.0882720947265625
1761315069361188400,2.101188232421875,-0.9403228759765625,-0.27862548828125,0.09307861328125
1761315069371235300,2.1112353515625,-0.94036865234375,-0.2766876220703125,0.0966796875
1761315069381283600,2.12128369140625,-0.9377593994140625,-0.2776336669921875,0.09942626953125
1761315069391331300,2.131331298828125,-0.9372406005859375,-0.2788543701171875,0.0978546142578125
1761315069401379300,2.14137939453125,-0.933380126953125,-0.2777557373046875,0.09344482421875
1761315069411427600,2.151427490234375,-0.9255218505859375,-0.274688720703125,0.088287353515625
1761315069421474600,2.161474609375,-0.9241485595703125,-0.274322509765625,0.0877532958984375
1761315069431522300,2.171522216796875,-0.92828369140625,-0.2761077880859375,0.0902862548828125
1761315069441570600,2.181570556640625,-0.94781494140625,-0.2785491943359375,0.09368896484375
1761315069451618600,2.19161865234375,-0.957000732421875,-0.2766876220703125,0.0928802490234375
1761315069461666300,2.201666259765625,-0.9473114013671875,-0.268707275390625,0.0845947265625
1761315069471713500,2.211713623046875,-0.949951171875,-0.2654876708984375,0.0798187255859375
1761315069481761500,2.221761474609375,-0.954620361328125,-0.270599365234375,0.080413818359375
1761315069491809300,2.231809326171875,-0.953582763671875,-0.27392578125,0.0830078125
1761315069501857500,2.241857421875,-0.9456939697265625,-0.2716217041015625,0.081329345703125
1761315069511904500,2.251904541015625,-0.94671630859375,-0.2693023681640625,0.0814208984375
1761315069521952500,2.261952392578125,-0.9570465087890625,-0.2710418701171875,0.0836334228515625
1761315069532000500,2.27200048828125,-0.95269775390625,-0.2734375,0.0796966552734375
1761315069542048500,2.282048583984375,-0.938751220703125,-0.2721710205078125,0.0753631591796875
1761315069552096300,2.29209619140625,-0.938507080078125,-0.2706298828125,0.07421875
1761315069562143200,2.302143310546875,-0.9480438232421875,-0.2728118896484375,0.076568603515625
1761315069572191500,2.31219140625,-0.949676513671875,-0.2774200439453125,0.079620361328125
1761315069582239500,2.322239501953125,-0.9362945556640625,-0.277984619140625,0.0767669677734375
1761315069592287500,2.33228759765625,-0.93487548828125,-0.2784423828125,0.0759124755859375
1761315069602335500,2.34233544921875,-0.9452972412109375,-0.281768798828125,0.0793609619140625
1761315069612382500,2.352382568359375,-0.9475860595703125,-0.2818450927734375,0.0798187255859375
1761315069622430200,2.36243017578125,-0.9426422119140625,-0.27752685546875,0.0760955810546875
1761315069632478500,2.372478515625,-0.9393768310546875,-0.2742767333984375,0.0725250244140625
1761315069642526500,2.3825263671875,-0.9364471435546875,-0.2730560302734375,0.0691680908203125
1761315069652574500,2.392574462890625,-0.9368743896484375,-0.27362060546875,0.0635986328125
1761315069662621400,2.402621337890625,-0.9383697509765625,-0.275238037109375,0.063934326171875
1761315069672669400,2.41266943359375,-0.94390869140625,-0.275543212890625,0.0637969970703125
1761315069682717400,2.422717529296875,-0.947235107421875,-0.2734375,0.0623931884765625
1761315069692765400,2.432765380859375,-0.9431610107421875,-0.2735595703125,0.0623779296875
1761315069702812400,2.4428125,-0.9429931640625,-0.27587890625,0.0620574951171875
1761315069712860400,2.4528603515625,-0.94158935546875,-0.277313232421875,0.0634002685546875
1761315069722908400,2.462908447265625,-0.9432373046875,-0.2770538330078125,0.0626983642578125
1761315069732956400,2.472956298828125,-0.944915771484375,-0.2771759033203125,0.0620269775390625
1761315069743004400,2.48300439453125,-0.9452056884765625,-0.2781524658203125,0.0601959228515625
1761315069753051400,2.493051513671875,-0.949615478515625,-0.2778778076171875,0.0587158203125
1761315069763099400,2.503099365234375,-0.9531707763671875,-0.2774505615234375,0.0567169189453125
1761315069773147400,2.5131474609375,-0.946746826171875,-0.27777099609375,0.052276611328125
1761315069783195400,2.5231953125,-0.94781494140625,-0.276153564453125,0.0514678955078125
1761315069793243400,2.533243408203125,-0.9555206298828125,-0.275726318359375,0.0521087646484375
1761315069803290400,2.543290283203125,-0.9534149169921875,-0.2742462158203125,0.0512847900390625
1761315069813338600,2.553338623046875,-0.9493408203125,-0.2725677490234375,0.04986572265625
1761315069823386400,2.563386474609375,-0.949493408203125,-0.27020263671875,0.0507659912109375
1761315069833434400,2.573434326171875,-0.9497222900390625,-0.2699127197265625,0.0518951416015625
1761315069843481600,2.583481689453125,-0.9466094970703125,-0.27105712890625,0.052978515625
1761315069853529300,2.593529296875,-0.9404144287109375,-0.2730560302734375,0.0529937744140625
1761315069863577300,2.603577392578125,-0.9387664794921875,-0.274627685546875,0.0508880615234375
1761315069873625600,2.61362548828125,-0.940521240234375,-0.27685546875,0.0482635498046875
1761315069883673300,2.62367333984375,-0.94384765625,-0.27777099609375,0.04852294921875
1761315069893720300,2.63372021484375,-0.9470672607421875,-0.2788848876953125,0.04547119140625
1761315069903768600,2.6437685546875,-0.9412689208984375,-0.2796783447265625,0.0435943603515625
1761315069913816600,2.653816650390625,-0.93743896484375,-0.2798004150390625,0.041656494140625
1761315069923864300,2.6638642578125,-0.9346771240234375,-0.27960205078125,0.0418243408203125
1761315069933911300,2.673911376953125,-0.933013916015625,-0.28131103515625,0.0422515869140625
1761315069943959600,2.68395947265625,-0.936492919921875,-0.281463623046875,0.0444183349609375
1761315069954007300,2.69400732421875,-0.939605712890625,-0.2801055908203125,0.0457763671875
1761315069964055600,2.7040556640625,-0.9415435791015625,-0.276519775390625,0.0421142578125
1761315069974103600,2.714103515625,-0.943023681640625,-0.2718963623046875,0.0388031005859375
1761315069984150500,2.724150634765625,-0.953460693359375,-0.270355224609375,0.0374603271484375
1761315069994198300,2.7341982421875,-0.9535064697265625,-0.26885986328125,0.0354156494140625
1761315070004246500,2.74424658203125,-0.9491119384765625,-0.2667388916015625,0.034637451171875
1761315070014294300,2.754294189453125,-0.951690673828125,-0.266021728515625,0.03631591796875
1761315070024342500,2.764342529296875,-0.9515838623046875,-0.2682037353515625,0.040191650390625
1761315070034389500,2.774389404296875,-0.95086669921875,-0.2682037353515625,0.0398101806640625
1761315070044437500,2.7844375,-0.94854736328125,-0.2676239013671875,0.041290283203125
1761315070054485200,2.7944853515625,-0.9444580078125,-0.2686920166015625,0.042327880859375
1761315070064533500,2.804533447265625,-0.9420318603515625,-0.271087646484375,0.0412139892578125
1761315070074580500,2.81458056640625,-0.939208984375,-0.27276611328125,0.0372161865234375
1761315070084628200,2.824628173828125,-0.9383087158203125,-0.27459716796875,0.0383453369140625
1761315070094676500,2.834676513671875,-0.9434661865234375,-0.278045654296875,0.0398712158203125
1761315070104724500,2.844724365234375,-0.9453887939453125,-0.278778076171875,0.0409088134765625
1761315070114772200,2.854772216796875,-0.9444122314453125,-0.2778167724609375,0.0431365966796875
1761315070124819500,2.8648193359375,-0.9443206787109375,-0.2778167724609375,0.0428009033203125
1761315070134867500,2.874867431640625,-0.9431915283203125,-0.276947021484375,0.041351318359375
1761315070144915500,2.88491552734375,-0.9432373046875,-0.2749481201171875,0.0390472412109375
1761315070154964000,2.8949638671875,-0.94464111328125,-0.2740020751953125,0.0377960205078125
1761315070165011000,2.905010986328125,-0.95416259765625,-0.2752532958984375,0.0366058349609375
1761315070175059200,2.91505908203125,-0.955413818359375,-0.2767333984375,0.034912109375
1761315070185107000,2.92510693359375,-0.9518280029296875,-0.27728271484375,0.03265380859375
1761315070195155000,2.935155029296875,-0.9476318359375,-0.280609130859375,0.031341552734375
1761315070205203000,2.945202880859375,-0.95147705078125,-0.2802581787109375,0.03045654296875
1761315070215250000,2.95525,-0.9488372802734375,-0.2787017822265625,0.0309600830078125
1761315070225298000,2.9652978515625,-0.949981689453125,-0.2778778076171875,0.0316009521484375
1761315070235346200,2.97534619140625,-0.951141357421875,-0.27838134765625,0.030853271484375
1761315070245394000,2.985393798828125,-0.9485626220703125,-0.2798614501953125,0.0310516357421875
1761315070255442000,2.99544189453125,-0.9456787109375,-0.280548095703125,0.030914306640625
1761315070265489200,3.0054892578125,-0.944976806640625,-0.279754638671875,0.03192138671875
1761315070275537000,3.015536865234375,-0.9494476318359375,-0.2798004150390625,0.0327606201171875
1761315070285585000,3.0255849609375,-0.947601318359375,-0.279022216796875,0.030975341796875
1761315070295633200,3.035633056640625,-0.947601318359375,-0.2785186767578125,0.0299835205078125
1761315070305680100,3.04568017578125,-0.946502685546875,-0.277801513671875,0.0301666259765625
1761315070315728000,3.055727783203125,-0.9462432861328125,-0.276763916015625,0.0301361083984375
1761315070325776100,3.065776123046875,-0.94610595703125,-0.27734375,0.03057861328125
1761315070335824100,3.07582421875,-0.939056396484375,-0.276641845703125,0.0298919677734375
1761315070345872000,3.085871826171875,-0.9388275146484375,-0.276214599609375,0.02947998046875
1761315070355919000,3.095919189453125,-0.939483642578125,-0.276214599609375,0.0286407470703125
1761315070365967000,3.105967041015625,-0.9417877197265625,-0.275970458984375,0.02862548828125
1761315070376014800,3.116014892578125,-0.94677734375,-0.2742462158203125,0.0275726318359375
1761315070386063000,3.12606298828125,-0.9442291259765625,-0.2727813720703125,0.0306396484375
1761315070396110000,3.136110107421875,-0.9445343017578125,-0.2726287841796875,0.0330657958984375
1761315070406158000,3.146157958984375,-0.946533203125,-0.2759552001953125,0.0327606201171875
1761315070416206000,3.1562060546875,-0.94427490234375,-0.2795257568359375,0.0345306396484375
1761315070426254000,3.166254150390625,-0.9481048583984375,-0.2811126708984375,0.03497314453125
1761315070436301800,3.1763017578125,-0.94561767578125,-0.2812347412109375,0.0341033935546875
1761315070446348800,3.186348876953125,-0.9478607177734375,-0.280242919921875,0.0335693359375
1761315070456397000,3.19639697265625,-0.952972412109375,-0.278472900390625,0.0307159423828125
1761315070466445000,3.206445068359375,-0.9532012939453125,-0.2761383056640625,0.0290985107421875
1761315070476493000,3.2164931640625,-0.949798583984375,-0.2745208740234375,0.02728271484375
1761315070486540000,3.2265400390625,-0.9452362060546875,-0.273468017578125,0.0258331298828125
1761315070496588000,3.236588134765625,-0.943206787109375,-0.2738494873046875,0.02874755859375
1761315070506636000,3.246635986328125,-0.94287109375,-0.273651123046875,0.032501220703125
1761315070516684000,3.25668408203125,-0.9395904541015625,-0.275726318359375,0.0356597900390625
1761315070526732000,3.26673193359375,-0.94287109375,-0.27667236328125,0.0383148193359375
1761315070536779000,3.276779052734375,-0.9461822509765625,-0.2759857177734375,0.038177490234375
1761315070546827000,3.286826904296875,-0.9402313232421875,-0.270355224609375,0.034393310546875
1761315070556875000,3.296875,-0.9381256103515625,-0.2672576904296875,0.033233642578125
1761315070566923000,3.306923095703125,-0.937774658203125,-0.2688140869140625,0.0319671630859375
1761315070576970000,3.316969970703125,-0.936981201171875,-0.2731170654296875,0.0325927734375
1761315070587018000,3.32701806640625,-0.934722900390625,-0.2766571044921875,0.035675048828125
1761315070597066000,3.33706591796875,-0.9383392333984375,-0.2774200439453125,0.0398101806640625
1761315070607114000,3.347114013671875,-0.9463653564453125,-0.279876708984375,0.0379638671875
1761315070617162000,3.357161865234375,-0.9430999755859375,-0.2786712646484375,0.03363037109375
1761315070627209000,3.367208984375,-0.940185546875,-0.2766571044921875,0.03033447265625
1761315070637257200,3.37725732421875,-0.9445648193359375,-0.2745361328125,0.02935791015625
1761315070647305000,3.387304931640625,-0.95257568359375,-0.2725372314453125,0.0290679931640625
1761315070657353000,3.39735302734375,-0.955169677734375,-0.2705535888671875,0.026519775390625
1761315070667400200,3.407400146484375,-0.952056884765625,-0.270751953125,0.023651123046875
1761315070677448000,3.417447998046875,-0.9523162841796875,-0.2736663818359375,0.020111083984375
1761315070687496000,3.427495849609375,-0.953643798828125,-0.2789459228515625,0.0248870849609375
1761315070697544200,3.437544189453125,-0.95867919921875,-0.279876708984375,0.0330352783203125
1761315070707592000,3.447592041015625,-0.9591217041015625,-0.275115966796875,0.0399322509765625
1761315070717639000,3.457638916015625,-0.949005126953125,-0.2758636474609375,0.0407257080078125
1761315070727687200,3.467687255859375,-0.9462890625,-0.280059814453125,0.0397796630859375
1761315070737735000,3.47773486328125,-0.9514923095703125,-0.28070068359375,0.038543701171875
1761315070747783000,3.487782958984375,-0.9546966552734375,-0.2759246826171875,0.0423736572265625
1761315070757830000,3.497829833984375,-0.952880859375,-0.2725067138671875,0.04461669921875
1761315070767878100,3.507878173828125,-0.95159912109375,-0.2711181640625,0.041778564453125
1761315070777926000,3.51792578125,-0.9513092041015625,-0.271728515625,0.0399017333984375
1761315070787974100,3.52797412109375,-0.95458984375,-0.2716522216796875,0.0422210693359375
1761315070798022100,3.538022216796875,-0.9580078125,-0.2706298828125,0.0439300537109375
1761315070808068900,3.54806884765625,-0.9581146240234375,-0.26873779296875,0.0471343994140625
1761315070818116900,3.558116943359375,-0.9541778564453125,-0.2672576904296875,0.0484466552734375
1761315070828165000,3.5681650390625,-0.945343017578125,-0.266693115234375,0.0460052490234375
1761315070838212900,3.578212890625,-0.9439849853515625,-0.2675628662109375,0.0462188720703125
1761315070848259800,3.588259765625,-0.9460906982421875,-0.2679443359375,0.0468292236328125
1761315070858308000,3.59830810546875,-0.942626953125,-0.2658538818359375,0.04241943359375
1761315070868356000,3.608356201171875,-0.9413299560546875,-0.265380859375,0.04046630859375
1761315070878403800,3.61840380859375,-0.94110107421875,-0.26617431640625,0.0378570556640625
1761315070888451000,3.628451171875,-0.9378814697265625,-0.2674407958984375,0.0372772216796875
1761315070898499000,3.6384990234375,-0.9394683837890625,-0.2666778564453125,0.0380859375
1761315070908546800,3.648546875,-0.9418792724609375,-0.26898193359375,0.0398712158203125
1761315070918595000,3.658594970703125,-0.9424285888671875,-0.2718505859375,0.0410614013671875
1761315070928643000,3.66864306640625,-0.9462432861328125,-0.2711029052734375,0.04144287109375
1761315070938690000,3.67868994140625,-0.94793701171875,-0.2702789306640625,0.038421630859375
1761315070948738000,3.688738037109375,-0.9453582763671875,-0.2683868408203125,0.0363311767578125
1761315070958786000,3.6987861328125,-0.9454193115234375,-0.268646240234375,0.033172607421875
1761315070968834000,3.708833984375,-0.940032958984375,-0.2687530517578125,0.03045654296875
1761315070978882000,3.718882080078125,-0.9381256103515625,-0.2729644775390625,0.0311737060546875
1761315070988929000,3.728928955078125,-0.941375732421875,-0.2764129638671875,0.0340423583984375
1761315070998977000,3.73897705078125,-0.9436798095703125,-0.28143310546875,0.0363311767578125
1761315071009025000,3.74902490234375,-0.94940185546875,-0.2802886962890625,0.0363311767578125
1761315071019073000,3.759072998046875,-0.953277587890625,-0.272796630859375,0.032684326171875
1761315071029120000,3.7691201171875,-0.9537811279296875,-0.2697906494140625,0.032196044921875
1761315071039168000,3.77916796875,-0.961578369140625,-0.26885986328125,0.0338134765625
1761315071049216000,3.789216064453125,-0.961761474609375,-0.2682647705078125,0.033935546875
1761315071059264000,3.799263916015625,-0.95721435546875,-0.26531982421875,0.036285400390625
1761315071069311000,3.80931103515625,-0.9562835693359375,-0.26702880859375,0.0393524169921875
1761315071079359000,3.81935888671875,-0.9516448974609375,-0.2715911865234375,0.042022705078125
1761315071089407000,3.829406982421875,-0.94586181640625,-0.2722930908203125,0.040740966796875
1761315071099455200,3.839455322265625,-0.9373931884765625,-0.27069091796875,0.041656494140625
1761315071109503000,3.8495029296875,-0.9401092529296875,-0.2691650390625,0.043914794921875
1761315071119550000,3.859550048828125,-0.9487457275390625,-0.2695770263671875,0.0463714599609375
1761315071129598000,3.869597900390625,-0.9451446533203125,-0.2694854736328125,0.04705810546875
1761315071139646000,3.87964599609375,-0.9441375732421875,-0.264892578125,0.047943115234375
1761315071149694000,3.88969384765625,-0.9443817138671875,-0.2609405517578125,0.045440673828125
1761315071159740400,3.899740478515625,-0.942352294921875,-0.258087158203125,0.04437255859375
1761315071169788700,3.90978857421875,-0.94342041015625,-0.2588653564453125,0.04107666015625
1761315071179836400,3.91983642578125,-0.9477386474609375,-0.259918212890625,0.0386199951171875
1761315071189884400,3.929884521484375,-0.9503173828125,-0.258880615234375,0.0373687744140625
1761315071199931600,3.939931640625,-0.9538421630859375,-0.2604827880859375,0.035858154296875
1761315071209979600,3.949979736328125,-0.952178955078125,-0.2631072998046875,0.0340576171875
1761315071220027400,3.96002734375,-0.9486541748046875,-0.2653045654296875,0.034820556640625
1761315071230075600,3.97007568359375,-0.9490509033203125,-0.2643280029296875,0.0362091064453125
1761315071240123400,3.980123291015625,-0.9480438232421875,-0.2654876708984375,0.0372314453125
1761315071250170400,3.99017041015625,-0.945343017578125,-0.267333984375,0.039031982421875
1761315071260218600,4.000218505859375,-0.9462890625,-0.268707275390625,0.0428619384765625
1761315071270266600,4.0102666015625,-0.945404052734375,-0.2709808349609375,0.0443267822265625
1761315071280314400,4.020314453125,-0.942169189453125,-0.2680511474609375,0.045440673828125
1761315071290361300,4.030361328125,-0.940948486328125,-0.2658538818359375,0.0450897216796875
1761315071300409600,4.04040966796875,-0.9437408447265625,-0.2656402587890625,0.04718017578125
1761315071310457300,4.050457275390625,-0.948822021484375,-0.26397705078125,0.0487213134765625
1761315071320505600,4.060505615234375,-0.946014404296875,-0.2635345458984375,0.0493621826171875
1761315071330552600,4.070552490234375,-0.9485931396484375,-0.262115478515625,0.048736572265625
1761315071340600600,4.0806005859375,-0.9480743408203125,-0.2602081298828125,0.046661376953125
1761315071350648300,4.0906484375,-0.9477386474609375,-0.26007080078125,0.04534912109375
1761315071360696600,4.100696533203125,-0.949737548828125,-0.2600555419921875,0.0457611083984375
1761315071370744600,4.11074462890625,-0.951568603515625,-0.2577972412109375,0.0481719970703125
1761315071380791600,4.12079150390625,-0.9566497802734375,-0.2586517333984375,0.049163818359375
1761315071390839600,4.130839599609375,-0.9549713134765625,-0.2607269287109375,0.0515899658203125
1761315071400887600,4.140887451171875,-0.952178955078125,-0.2585296630859375,0.0512847900390625
1761315071410935300,4.150935302734375,-0.9552001953125,-0.257720947265625,0.04901123046875
1761315071420982500,4.160982421875,-0.95147705078125,-0.260467529296875,0.0449981689453125
1761315071431030500,4.171030517578125,-0.948486328125,-0.2620697021484375,0.04156494140625
1761315071441078500,4.18107861328125,-0.951995849609375,-0.2615203857421875,0.039825439453125
1761315071451126500,4.19112646484375,-0.9548492431640625,-0.2590484619140625,0.0394744873046875
1761315071461174500,4.201174560546875,-0.95416259765625,-0.25921630859375,0.035797119140625
1761315071471221500,4.211221435546875,-0.9599151611328125,-0.2615203857421875,0.035858154296875
1761315071481269500,4.22126953125,-0.9661865234375,-0.2604827880859375,0.0355377197265625
1761315071491317500,4.2313173828125,-0.9575042724609375,-0.256988525390625,0.03173828125
1761315071501365500,4.241365478515625,-0.9547882080078125,-0.2581787109375,0.0344390869140625
1761315071511412700,4.251412841796875,-0.963348388671875,-0.2582244873046875,0.036773681640625
1761315071521460500,4.26146044921875,-0.9613037109375,-0.2584381103515625,0.0348052978515625
1761315071531508500,4.271508544921875,-0.9504241943359375,-0.2582550048828125,0.0341033935546875
1761315071541556500,4.281556396484375,-0.947113037109375,-0.256011962890625,0.0299224853515625
1761315071551603500,4.291603515625,-0.9525604248046875,-0.258941650390625,0.03070068359375
1761315071561651500,4.3016513671875,-0.9570159912109375,-0.261444091796875,0.034088134765625
1761315071571699700,4.31169970703125,-0.95098876953125,-0.2600555419921875,0.0332183837890625
1761315071581747500,4.32174755859375,-0.9416656494140625,-0.2595367431640625,0.0351409912109375
1761315071591794400,4.33179443359375,-0.9412994384765625,-0.265045166015625,0.03912353515625
1761315071601842400,4.341842529296875,-0.946807861328125,-0.26727294921875,0.0411529541015625
1761315071611890400,4.351890380859375,-0.9448089599609375,-0.2630462646484375,0.037628173828125
1761315071621938400,4.3619384765625,-0.9434051513671875,-0.2584228515625,0.03546142578125
1761315071631986700,4.371986572265625,-0.9467620849609375,-0.2615966796875,0.03570556640625
1761315071642033700,4.38203369140625,-0.95220947265625,-0.2665252685546875,0.040313720703125
1761315071652081400,4.392081298828125,-0.949371337890625,-0.2642669677734375,0.0404205322265625
1761315071662129400,4.40212939453125,-0.947357177734375,-0.257354736328125,0.03900146484375
1761315071672177700,4.412177734375,-0.95361328125,-0.252197265625,0.0389862060546875
1761315071682224600,4.422224609375,-0.954345703125,-0.2525634765625,0.039154052734375
1761315071692272400,4.4322724609375,-0.94976806640625,-0.2545928955078125,0.03851318359375
1761315071702320600,4.442320556640625,-0.9505767822265625,-0.25634765625,0.0391998291015625
1761315071712368400,4.452368408203125,-0.9535064697265625,-0.2561492919921875,0.039031982421875
1761315071722415400,4.462415283203125,-0.9510498046875,-0.257415771484375,0.03851318359375
1761315071732463600,4.472463623046875,-0.9530029296875,-0.25653076171875,0.037811279296875
1761315071742511600,4.48251171875,-0.9573516845703125,-0.2553253173828125,0.03765869140625
1761315071752559400,4.492559326171875,-0.953948974609375,-0.255218505859375,0.036590576171875
1761315071762607600,4.502607666015625,-0.9510955810546875,-0.255950927734375,0.03765869140625
1761315071772654600,4.512654541015625,-0.95220947265625,-0.257843017578125,0.0400848388671875
1761315071782702300,4.522702392578125,-0.9466705322265625,-0.2623748779296875,0.0427398681640625
1761315071792750600,4.53275048828125,-0.94403076171875,-0.2624359130859375,0.04132080078125
1761315071802798600,4.542798583984375,-0.94561767578125,-0.2579345703125,0.03717041015625
1761315071812845600,4.552845458984375,-0.952484130859375,-0.257293701171875,0.035247802734375
1761315071822893600,4.5628935546875,-0.952484130859375,-0.2576141357421875,0.03216552734375
1761315071832941600,4.572941650390625,-0.951629638671875,-0.2569732666015625,0.030548095703125
1761315071842989600,4.582989501953125,-0.9560394287109375,-0.2576141357421875,0.031097412109375
1761315071853036300,4.593036376953125,-0.958099365234375,-0.2604522705078125,0.0327301025390625
1761315071863084500,4.60308447265625,-0.953216552734375,-0.263641357421875,0.0323028564453125
1761315071873132500,4.613132568359375,-0.94610595703125,-0.2628326416015625,0.031524658203125
1761315071883180500,4.6231806640625,-0.943115234375,-0.2632904052734375,0.0313873291015625
1761315071893227500,4.6332275390625,-0.9418182373046875,-0.2648773193359375,0.0323028564453125
1761315071903275500,4.643275634765625,-0.9356842041015625,-0.265625,0.0320281982421875
1761315071913323500,4.653323486328125,-0.9325714111328125,-0.2647247314453125,0.032196044921875
1761315071923371500,4.66337158203125,-0.932708740234375,-0.2630615234375,0.033966064453125
1761315071933418500,4.67341845703125,-0.929107666015625,-0.2591094970703125,0.0347900390625
1761315071943466500,4.683466552734375,-0.935211181640625,-0.2552490234375,0.0366058349609375
1761315071953514500,4.693514404296875,-0.9398040771484375,-0.251708984375,0.0400238037109375
1761315071963562500,4.7035625,-0.938629150390625,-0.2515869140625,0.0436553955078125
1761315071973610500,4.713610595703125,-0.949249267578125,-0.251312255859375,0.0439300537109375
1761315071983657500,4.723657470703125,-0.961456298828125,-0.25018310546875,0.0455780029296875
1761315071993705500,4.73370556640625,-0.9612579345703125,-0.247406005859375,0.0462646484375
1761315072003753500,4.74375341796875,-0.9662628173828125,-0.242889404296875,0.045318603515625
1761315072013801500,4.753801513671875,-0.9719085693359375,-0.24176025390625,0.0442962646484375
1761315072023848400,4.763848388671875,-0.97039794921875,-0.2443084716796875,0.04425048828125
1761315072033896400,4.773896484375,-0.966522216796875,-0.2479248046875,0.0445556640625
1761315072043944700,4.78394482421875,-0.9606781005859375,-0.2508697509765625,0.0460357666015625
1761315072053992400,4.793992431640625,-0.957794189453125,-0.2501220703125,0.045928955078125
1761315072064039400,4.804039306640625,-0.9548797607421875,-0.25091552734375,0.042694091796875
1761315072074087700,4.814087646484375,-0.9535980224609375,-0.2520904541015625,0.039093017578125
1761315072084135400,4.824135498046875,-0.9555511474609375,-0.2538909912109375,0.038543701171875
1761315072094183400,4.834183349609375,-0.9553375244140625,-0.2531280517578125,0.0341033935546875
1761315072104230400,4.84423046875,-0.95318603515625,-0.2533416748046875,0.0302276611328125
1761315072114278700,4.854278564453125,-0.9498291015625,-0.256805419921875,0.0271453857421875
1761315072124326400,4.864326416015625,-0.95416259765625,-0.2609100341796875,0.027923583984375
1761315072134374700,4.874374755859375,-0.9602813720703125,-0.2658538818359375,0.0287628173828125
1761315072144422700,4.884422607421875,-0.956573486328125,-0.2673187255859375,0.0293426513671875
1761315072154469600,4.8944697265625,-0.948944091796875,-0.266448974609375,0.0262298583984375
1761315072164517600,4.904517578125,-0.9480438232421875,-0.263275146484375,0.02099609375
1761315072174565600,4.914565673828125,-0.9484100341796875,-0.2622528076171875,0.0221405029296875
1761315072184613600,4.924613525390625,-0.94696044921875,-0.2583770751953125,0.02001953125
1761315072194660600,4.93466064453125,-0.9508209228515625,-0.25537109375,0.0179595947265625
1761315072204708600,4.94470849609375,-0.9595794677734375,-0.2596282958984375,0.018463134765625
1761315072214756600,4.954756591796875,-0.9613800048828125,-0.2620697021484375,0.0157318115234375
1761315072224804600,4.9648046875,-0.952728271484375,-0.26080322265625,0.01141357421875
1761315072234851600,4.9748515625,-0.9486236572265625,-0.261322021484375,0.013092041015625
1761315072244899800,4.98489990234375,-0.9508056640625,-0.2680206298828125,0.01904296875
1761315072254947600,4.994947509765625,-0.946136474609375,-0.2717742919921875,0.0268707275390625
1761315072264995600,5.00499560546875,-0.9385986328125,-0.271728515625,0.03082275390625
1761315072275042600,5.01504248046875,-0.9365081787109375,-0.268768310546875,0.0352325439453125
1761315072285090600,5.025090576171875,-0.9362945556640625,-0.2665252685546875,0.039154052734375
1761315072295138600,5.035138671875,-0.9410400390625,-0.2635650634765625,0.0401153564453125
1761315072305186800,5.045186767578125,-0.9477691650390625,-0.2584686279296875,0.0402984619140625
1761315072315233800,5.05523388671875,-0.9503021240234375,-0.2516937255859375,0.0404815673828125
1761315072325281500,5.065281494140625,-0.9503021240234375,-0.2463836669921875,0.039154052734375
1761315072335329500,5.07532958984375,-0.9542236328125,-0.24395751953125,0.040802001953125
1761315072345377800,5.085377685546875,-0.9541778564453125,-0.2452850341796875,0.0446014404296875
1761315072355425500,5.095425537109375,-0.9513092041015625,-0.245880126953125,0.0468902587890625
1761315072365472500,5.105472412109375,-0.9515228271484375,-0.24627685546875,0.04766845703125
1761315072375520800,5.115520751953125,-0.9539337158203125,-0.2467803955078125,0.0480804443359375
1761315072385568500,5.125568603515625,-0.956268310546875,-0.248382568359375,0.047332763671875
1761315072395616500,5.135616455078125,-0.9591522216796875,-0.2487030029296875,0.044586181640625
1761315072405663700,5.145663818359375,-0.95941162109375,-0.2494049072265625,0.040069580078125
1761315072415711700,5.155711669921875,-0.95697021484375,-0.25164794921875,0.0384521484375
1761315072425759500,5.165759521484375,-0.9560089111328125,-0.253509521484375,0.0406494140625
1761315072435807700,5.175807861328125,-0.9590301513671875,-0.257293701171875,0.0414276123046875
1761315072445854700,5.185854736328125,-0.958770751953125,-0.2595062255859375,0.0418853759765625
1761315072455902500,5.19590234375,-0.9545745849609375,-0.2597808837890625,0.0368499755859375
1761315072465950700,5.20595068359375,-0.9473724365234375,-0.2584381103515625,0.0331268310546875
1761315072475998700,5.215998779296875,-0.9511566162109375,-0.2584381103515625,0.0333404541015625
1761315072486045700,5.226045654296875,-0.95550537109375,-0.259307861328125,0.0333404541015625
1761315072496093700,5.23609375,-0.959991455078125,-0.2593231201171875,0.028564453125
1761315072506141700,5.2461416015625,-0.9566802978515625,-0.257171630859375,0.0234832763671875
1761315072516189700,5.256189697265625,-0.947967529296875,-0.2545623779296875,0.018646240234375
1761315072526236400,5.266236328125,-0.951141357421875,-0.25421142578125,0.019134521484375
1761315072536284700,5.27628466796875,-0.95635986328125,-0.257293701171875,0.0237579345703125
1761315072546332700,5.286332763671875,-0.9567413330078125,-0.2577972412109375,0.023345947265625
1761315072556380700,5.296380615234375,-0.95440673828125,-0.2535858154296875,0.0187835693359375
1761315072566427600,5.306427734375,-0.9567413330078125,-0.25091552734375,0.015777587890625
1761315072576475600,5.3164755859375,-0.954803466796875,-0.25286865234375,0.016632080078125
1761315072586523600,5.326523681640625,-0.9550018310546875,-0.2550201416015625,0.0203857421875
1761315072596571600,5.336571533203125,-0.954376220703125,-0.2560577392578125,0.02459716796875
1761315072606618600,5.34661865234375,-0.9526519775390625,-0.2582550048828125,0.0273895263671875
1761315072616666600,5.35666650390625,-0.950347900390625,-0.258453369140625,0.028228759765625
1761315072626714600,5.366714599609375,-0.9528045654296875,-0.2588958740234375,0.0324554443359375
1761315072636762600,5.3767626953125,-0.96014404296875,-0.26055908203125,0.03729248046875
1761315072646810600,5.386810546875,-0.959197998046875,-0.259918212890625,0.0383758544921875
1761315072656857900,5.39685791015625,-0.95367431640625,-0.25616455078125,0.0364837646484375
1761315072666905600,5.406905517578125,-0.9585723876953125,-0.251708984375,0.034637451171875
1761315072676953600,5.41695361328125,-0.961517333984375,-0.247802734375,0.033355712890625
1761315072687001600,5.427001708984375,-0.9569854736328125,-0.2465972900390625,0.0339508056640625
1761315072697048600,5.437048583984375,-0.9613037109375,-0.2450408935546875,0.03582763671875
1761315072707096600,5.4470966796875,-0.96893310546875,-0.2452545166015625,0.037628173828125
1761315072717144800,5.457144775390625,-0.9675140380859375,-0.2454681396484375,0.0386199951171875
1761315072727192600,5.467192626953125,-0.9669189453125,-0.245208740234375,0.03753662109375
1761315072737239600,5.477239501953125,-0.9617156982421875,-0.2467041015625,0.037261962890625
1761315072747287800,5.487287841796875,-0.9539794921875,-0.2496185302734375,0.0384674072265625
1761315072757335600,5.49733544921875,-0.95196533203125,-0.2515869140625,0.0398406982421875
1761315072767383600,5.507383544921875,-0.949951171875,-0.2555694580078125,0.042755126953125
1761315072777430500,5.517430419921875,-0.9491729736328125,-0.256439208984375,0.0412139892578125
1761315072787478800,5.527478759765625,-0.9519195556640625,-0.256072998046875,0.0388641357421875
1761315072797526500,5.537526611328125,-0.950042724609375,-0.2566070556640625,0.0342559814453125
1761315072807574800,5.54757470703125,-0.948394775390625,-0.257965087890625,0.0317230224609375
1761315072817621800,5.557621826171875,-0.949188232421875,-0.25860595703125,0.029998779296875
1761315072827669500,5.56766943359375,-0.947845458984375,-0.258819580078125,0.0298004150390625
1761315072837717500,5.577717529296875,-0.9477386474609375,-0.259185791015625,0.025604248046875
1761315072847765800,5.587765869140625,-0.948089599609375,-0.2606201171875,0.0263214111328125
1761315072857812700,5.597812744140625,-0.95111083984375,-0.2607421875,0.0253753662109375
1761315072867860500,5.607860595703125,-0.9478759765625,-0.2592620849609375,0.021514892578125
1761315072877908700,5.61790869140625,-0.944061279296875,-0.259429931640625,0.0216827392578125
1761315072887956700,5.627956787109375,-0.9478607177734375,-0.2607574462890625,0.023956298828125
1761315072898003500,5.63800341796875,-0.9478912353515625,-0.2626953125,0.0266265869140625
1761315072908051700,5.6480517578125,-0.94744873046875,-0.2641448974609375,0.0278472900390625
1761315072918099700,5.658099609375,-0.9466094970703125,-0.262725830078125,0.0281524658203125
1761315072928147500,5.6681474609375,-0.940948486328125,-0.2597503662109375,0.025970458984375
1761315072938194700,5.678194580078125,-0.939697265625,-0.2580413818359375,0.02642822265625
1761315072948242700,5.68824267578125,-0.9427032470703125,-0.259490966796875,0.0256805419921875
1761315072958290700,5.698290771484375,-0.94049072265625,-0.2598114013671875,0.0259552001953125
1761315072968338700,5.708338623046875,-0.9444580078125,-0.2601318359375,0.0279388427734375
1761315072978383600,5.718383544921875,-0.954193115234375,-0.2605438232421875,0.028594970703125
1761315072988430800,5.728430908203125,-0.953369140625,-0.26025390625,0.029541015625
1761315072998478600,5.738478515625,-0.9554443359375,-0.25836181640625,0.03125
1761315073008526600,5.748526611328125,-0.954681396484375,-0.2584686279296875,0.0314788818359375
1761315073018574600,5.75857470703125,-0.953826904296875,-0.26165771484375,0.0326080322265625
1761315073028621600,5.76862158203125,-0.9536590576171875,-0.2647705078125,0.034423828125
1761315073038669600,5.778669677734375,-0.9511260986328125,-0.2655029296875,0.0359039306640625
1761315073048717800,5.7887177734375,-0.9525299072265625,-0.265716552734375,0.0373382568359375
1761315073058765600,5.798765625,-0.953948974609375,-0.2642364501953125,0.035675048828125
1761315073068812500,5.8088125,-0.948394775390625,-0.2613983154296875,0.0355224609375
1761315073078860500,5.818860595703125,-0.9497833251953125,-0.25750732421875,0.036224365234375
1761315073088908800,5.82890869140625,-0.949249267578125,-0.2573394775390625,0.0360107421875
1761315073098956500,5.83895654296875,-0.946685791015625,-0.2535247802734375,0.0360260009765625
1761315073109003500,5.84900341796875,-0.944183349609375,-0.2515716552734375,0.037841796875
1761315073119051800,5.8590517578125,-0.945831298828125,-0.2515869140625,0.042449951171875
1761315073129099500,5.869099609375,-0.951080322265625,-0.251953125,0.044189453125
1761315073139147500,5.8791474609375,-0.9525604248046875,-0.252410888671875,0.0428619384765625
1761315073149194800,5.88919482421875,-0.9451141357421875,-0.250823974609375,0.0397491455078125
1761315073159242800,5.89924267578125,-0.9434356689453125,-0.2473297119140625,0.036956787109375
1761315073169290800,5.909290771484375,-0.94464111328125,-0.24786376953125,0.0348663330078125
1761315073179338800,5.9193388671875,-0.9449920654296875,-0.251434326171875,0.0342864990234375
1761315073189385700,5.9293857421875,-0.947418212890625,-0.25372314453125,0.033477783203125
1761315073199433700,5.939433837890625,-0.9503173828125,-0.2541656494140625,0.0315399169921875
1761315073209481700,5.949481689453125,-0.947540283203125,-0.2558135986328125,0.028717041015625
1761315073219530000,5.959530029296875,-0.94586181640625,-0.255340576171875,0.025543212890625
1761315073229576700,5.96957666015625,-0.95123291015625,-0.2573699951171875,0.0264129638671875
1761315073239624700,5.979624755859375,-0.9498443603515625,-0.2603607177734375,0.0288238525390625
1761315073249672700,5.989672607421875,-0.9425811767578125,-0.261138916015625,0.030975341796875
1761315073259720700,5.999720703125,-0.9415435791015625,-0.262115478515625,0.0326080322265625
1761315073269767700,6.009767578125,-0.9412841796875,-0.2638092041015625,0.034088134765625
1761315073279815700,6.019815673828125,-0.9381103515625,-0.2640380859375,0.0352630615234375
1761315073289864000,6.029864013671875,-0.939117431640625,-0.2628326416015625,0.0346527099609375
1761315073299911700,6.03991162109375,-0.9464874267578125,-0.2652435302734375,0.0369720458984375
1761315073309958700,6.049958740234375,-0.9505157470703125,-0.268310546875,0.03594970703125
1761315073320007000,6.0600068359375,-0.9522705078125,-0.2706756591796875,0.032623291015625
1761315073330054700,6.0700546875,-0.9549407958984375,-0.27117919921875,0.0279083251953125
1761315073340102700,6.0801025390625,-0.9610137939453125,-0.2682647705078125,0.0255889892578125
1761315073350150000,6.09014990234375,-0.962005615234375,-0.2678680419921875,0.0207061767578125
1761315073360198000,6.100197998046875,-0.9626007080078125,-0.26763916015625,0.0192718505859375
1761315073370245600,6.11024560546875,-0.9678802490234375,-0.268585205078125,0.021636962890625
1761315073380294000,6.1202939453125,-0.9687652587890625,-0.2699737548828125,0.0246429443359375
1761315073390340900,6.1303408203125,-0.9639892578125,-0.2722930908203125,0.029449462890625
1761315073400388600,6.140388671875,-0.9655609130859375,-0.2732696533203125,0.03179931640625
1761315073410436900,6.150436767578125,-0.962310791015625,-0.2722320556640625,0.03118896484375
1761315073420484900,6.16048486328125,-0.9553680419921875,-0.269866943359375,0.0295257568359375
1761315073430531800,6.17053173828125,-0.9528961181640625,-0.2666473388671875,0.02716064453125
1761315073440579600,6.18057958984375,-0.9544525146484375,-0.2638702392578125,0.028594970703125
1761315073450627800,6.1906279296875,-0.9524078369140625,-0.261138916015625,0.029205322265625
1761315073460675800,6.20067578125,-0.947998046875,-0.257049560546875,0.0272216796875
1761315073470722600,6.21072265625,-0.9503021240234375,-0.256103515625,0.030517578125
1761315073480770800,6.220770751953125,-0.95941162109375,-0.25592041015625,0.0333099365234375
1761315073490818800,6.23081884765625,-0.9578094482421875,-0.2535552978515625,0.030303955078125
1761315073500866600,6.240866455078125,-0.9499053955078125,-0.2512664794921875,0.031829833984375
1761315073510913800,6.250913818359375,-0.9527587890625,-0.251922607421875,0.034576416015625
1761315073520961800,6.2609619140625,-0.9481658935546875,-0.2522430419921875,0.0330810546875
1761315073531009800,6.271009765625,-0.939727783203125,-0.25506591796875,0.03515625
1761315073541057800,6.281057861328125,-0.941009521484375,-0.254852294921875,0.041656494140625
1761315073551104800,6.291104736328125,-0.945404052734375,-0.25335693359375,0.0456085205078125
1761315073561152800,6.30115283203125,-0.9470062255859375,-0.252838134765625,0.0475311279296875
1761315073571203600,6.31120361328125,-0.95184326171875,-0.25042724609375,0.0454559326171875
1761315073581251800,6.321251953125,-0.9482269287109375,-0.2482452392578125,0.041656494140625
1761315073591298800,6.331298828125,-0.9432373046875,-0.2498016357421875,0.041259765625
1761315073601346800,6.341346923828125,-0.9438323974609375,-0.25311279296875,0.044464111328125
1761315073611394600,6.35139453125,-0.947174072265625,-0.25787353515625,0.04852294921875
1761315073621442800,6.36144287109375,-0.9495391845703125,-0.2627105712890625,0.0489501953125
1761315073631489800,6.37148974609375,-0.947967529296875,-0.2640533447265625,0.0435333251953125
1761315073641537800,6.381537841796875,-0.945556640625,-0.2589263916015625,0.038909912109375
1761315073651585800,6.391585693359375,-0.945556640625,-0.2528839111328125,0.0340576171875
1761315073661633800,6.4016337890625,-0.9492340087890625,-0.2525787353515625,0.0363311767578125
1761315073671680800,6.4116806640625,-0.95501708984375,-0.251800537109375,0.0357666015625
1761315073681728800,6.421728759765625,-0.9497528076171875,-0.2493743896484375,0.0354461669921875
1761315073691776800,6.43177685546875,-0.9503021240234375,-0.250823974609375,0.0316925048828125
1761315073701824800,6.44182470703125,-0.9683380126953125,-0.2528076171875,0.039794921875
1761315073711871700,6.451871826171875,-0.980926513671875,-0.2528076171875,0.041961669921875
1761315073721919700,6.461919677734375,-0.9649810791015625,-0.25189208984375,0.0311279296875
1761315073731967700,6.4719677734375,-0.955718994140625,-0.25189208984375,0.0313262939453125
1761315073742015700,6.482015625,-0.96014404296875,-0.2553863525390625,0.0337066650390625
1761315073752062700,6.492062744140625,-0.95654296875,-0.2578887939453125,0.0381622314453125
1761315073762110700,6.50211083984375,-0.9517822265625,-0.2608642578125,0.0382232666015625
1761315073772159000,6.512158935546875,-0.9444580078125,-0.261871337890625,0.0314178466796875
1761315073782206700,6.522206787109375,-0.9384765625,-0.2631378173828125,0.02685546875
1761315073792253700,6.532253662109375,-0.94171142578125,-0.2619781494140625,0.024688720703125
1761315073802301700,6.5423017578125,-0.946044921875,-0.2550811767578125,0.0252227783203125
1761315073812349700,6.552349609375,-0.9472808837890625,-0.2482147216796875,0.0292816162109375
1761315073822397700,6.562397705078125,-0.95111083984375,-0.247802734375,0.029632568359375
1761315073832444700,6.572444580078125,-0.9535675048828125,-0.2558746337890625,0.0285797119140625
1761315073842493000,6.582492919921875,-0.9583740234375,-0.260528564453125,0.031402587890625
1761315073852540700,6.592540771484375,-0.9636077880859375,-0.2559661865234375,0.033843994140625
1761315073862588700,6.602588623046875,-0.9640350341796875,-0.25103759765625,0.0346832275390625
1761315073872636000,6.612635986328125,-0.95062255859375,-0.248504638671875,0.032684326171875
1761315073882683600,6.62268359375,-0.945831298828125,-0.2510986328125,0.03350830078125
1761315073892731600,6.632731689453125,-0.9517822265625,-0.25372314453125,0.0356597900390625
1761315073902780000,6.64277978515625,-0.953155517578125,-0.256591796875,0.0289764404296875
1761315073912827000,6.652826904296875,-0.9471435546875,-0.2590484619140625,0.018829345703125
1761315073922874600,6.66287451171875,-0.944671630859375,-0.25775146484375,0.0106964111328125
1761315073932923000,6.6729228515625,-0.9480133056640625,-0.250946044921875,0.021087646484375
1761315073942971000,6.682970947265625,-0.9576416015625,-0.2449188232421875,0.0385589599609375
1761315073953017600,6.693017578125,-0.960845947265625,-0.248626708984375,0.04425048828125
1761315073963065900,6.70306591796875,-0.9552154541015625,-0.257232666015625,0.0368499755859375
1761315073973113900,6.71311376953125,-0.96063232421875,-0.2611236572265625,0.0265350341796875
1761315073983161600,6.72316162109375,-0.9654083251953125,-0.2526702880859375,0.0245361328125
1761315073993208600,6.73320849609375,-0.9673004150390625,-0.23602294921875,0.0267486572265625
1761315074003256800,6.7432568359375,-0.9788360595703125,-0.23760986328125,0.032470703125
1761315074013304800,6.753304931640625,-0.974456787109375,-0.248779296875,0.035980224609375
1761315074023352800,6.763352783203125,-0.9630126953125,-0.2558441162109375,0.0402069091796875
1761315074033399800,6.77339990234375,-0.954071044921875,-0.2591094970703125,0.045196533203125
1761315074043447800,6.78344775390625,-0.942596435546875,-0.2610015869140625,0.048828125
1761315074053495600,6.79349560546875,-0.9296722412109375,-0.26129150390625,0.05169677734375
1761315074063543800,6.803543701171875,-0.92510986328125,-0.260711669921875,0.053924560546875
1761315074073590800,6.8135908203125,-0.9295654296875,-0.261871337890625,0.051666259765625
1761315074083638800,6.823638671875,-0.9200592041015625,-0.2596435546875,0.044708251953125
1761315074093686800,6.833686767578125,-0.9159088134765625,-0.2537384033203125,0.041259765625
1761315074103734800,6.84373486328125,-0.9328460693359375,-0.2488861083984375,0.0427703857421875
1761315074113781800,6.85378173828125,-0.948211669921875,-0.2531585693359375,0.0428619384765625
1761315074123829800,6.863829833984375,-0.951202392578125,-0.258392333984375,0.038848876953125
1761315074133877800,6.873877685546875,-0.9477996826171875,-0.2577056884765625,0.036346435546875
1761315074143925800,6.88392578125,-0.9486083984375,-0.2534942626953125,0.035980224609375
1761315074153973000,6.893972900390625,-0.9518890380859375,-0.2521514892578125,0.0372161865234375
1761315074164025000,6.904025146484375,-0.9504547119140625,-0.25445556640625,0.0379486083984375
1761315074174073300,6.9140732421875,-0.945709228515625,-0.25689697265625,0.0330963134765625
1761315074184121000,6.92412109375,-0.9432220458984375,-0.257476806640625,0.02978515625
1761315074194168000,6.93416796875,-0.948883056640625,-0.2567291259765625,0.0312652587890625
1761315074204216300,6.94421630859375,-0.9530029296875,-0.255859375,0.031768798828125
1761315074214264000,6.95426416015625,-0.95037841796875,-0.257568359375,0.02825927734375
1761315074224312000,6.96431201171875,-0.94952392578125,-0.2589569091796875,0.0239105224609375
1761315074234359300,6.974359375,-0.9526824951171875,-0.2576141357421875,0.0252532958984375
1761315074244407300,6.9844072265625,-0.9575653076171875,-0.2551116943359375,0.0318145751953125
1761315074254455000,6.994455078125,-0.9648284912109375,-0.2507781982421875,0.039215087890625
1761315074264503300,7.00450341796875,-0.9668426513671875,-0.245941162109375,0.0394134521484375
1761315074274550300,7.01455029296875,-0.9624786376953125,-0.2425689697265625,0.036468505859375
1761315074284598000,7.024597900390625,-0.9568634033203125,-0.2398223876953125,0.03619384765625
1761315074294646300,7.034646240234375,-0.95562744140625,-0.2395782470703125,0.0404510498046875
1761315074304694300,7.0446943359375,-0.9529876708984375,-0.2408905029296875,0.04107666015625
1761315074314741200,7.0547412109375,-0.948577880859375,-0.24176025390625,0.04217529296875
1761315074324789200,7.064789306640625,-0.96331787109375,-0.2472991943359375,0.0463409423828125
1761315074334837200,7.074837158203125,-0.962860107421875,-0.240386962890625,0.034759521484375
1761315074344884200,7.08488427734375,-0.95843505859375,-0.2404327392578125,0.03094482421875
1761315074354932000,7.094931884765625,-0.9586029052734375,-0.2373199462890625,0.0242156982421875
1761315074364980200,7.104980224609375,-0.9564056396484375,-0.2383270263671875,0.0180511474609375
1761315074375028200,7.1150283203125,-0.9519500732421875,-0.245208740234375,0.015716552734375
1761315074385075200,7.1250751953125,-0.94805908203125,-0.2518157958984375,0.0126800537109375
1761315074395123200,7.135123291015625,-0.9474334716796875,-0.258544921875,0.011444091796875
1761315074405171200,7.145171142578125,-0.9542083740234375,-0.2660064697265625,0.0114288330078125
1761315074415219000,7.155218994140625,-0.9565277099609375,-0.2709503173828125,0.0097808837890625
1761315074425266200,7.16526611328125,-0.953887939453125,-0.2718658447265625,0.004425048828125
1761315074435314200,7.175314208984375,-0.95489501953125,-0.269287109375,0.001129150390625
1761315074445362200,7.185362060546875,-0.9566192626953125,-0.2688446044921875,-0.00054931640625
1761315074455410200,7.19541015625,-0.9582977294921875,-0.269927978515625,-0.004364013671875
1761315074465457200,7.20545703125,-0.957427978515625,-0.271697998046875,-0.013214111328125
1761315074475505200,7.215505126953125,-0.9517364501953125,-0.2743988037109375,-0.0179290771484375
1761315074485553200,7.22555322265625,-0.9513397216796875,-0.2684478759765625,-0.00238037109375
1761315074495601200,7.23560107421875,-0.96649169921875,-0.2561798095703125,0.0164642333984375
1761315074505648000,7.245648193359375,-0.96795654296875,-0.2531585693359375,0.0242156982421875
1761315074515696400,7.2556962890625,-0.96197509765625,-0.257568359375,0.01531982421875
1761315074525744000,7.265744140625,-0.9603118896484375,-0.2576141357421875,0.0087127685546875
1761315074535792000,7.275792236328125,-0.9642181396484375,-0.24603271484375,0.0125274658203125
1761315074545839000,7.285839111328125,-0.9618072509765625,-0.23046875,0.02398681640625
1761315074555887000,7.29588720703125,-0.95550537109375,-0.22283935546875,0.0363006591796875
1761315074565935000,7.30593505859375,-0.9479827880859375,-0.2308502197265625,0.0380401611328125
1761315074575983400,7.3159833984375,-0.94549560546875,-0.2480926513671875,0.0342559814453125
1761315074586030300,7.3260302734375,-0.9526824951171875,-0.2545318603515625,0.0324859619140625
1761315074596078000,7.336078125,-0.9548187255859375,-0.24505615234375,0.0327301025390625
1761315074606126000,7.3461259765625,-0.9504852294921875,-0.2292327880859375,0.0324554443359375
1761315074616174300,7.35617431640625,-0.9513702392578125,-0.2245941162109375,0.035125732421875
1761315074626221000,7.366220947265625,-0.9536590576171875,-0.2370758056640625,0.0333709716796875
1761315074636269000,7.37626904296875,-0.9502410888671875,-0.25048828125,0.0305633544921875
1761315074646317300,7.3863173828125,-0.9494476318359375,-0.2535400390625,0.0305328369140625
1761315074656365000,7.396364990234375,-0.9535675048828125,-0.248748779296875,0.0281524658203125
1761315074666412000,7.406412109375,-0.9544677734375,-0.2434844970703125,0.0208587646484375
1761315074676460300,7.416460205078125,-0.9521331787109375,-0.2430572509765625,0.01409912109375
1761315074686508300,7.42650830078125,-0.948822021484375,-0.246856689453125,0.0098876953125
1761315074696556000,7.43655615234375,-0.948394775390625,-0.252532958984375,0.0096282958984375
1761315074706603300,7.446603271484375,-0.948516845703125,-0.2592315673828125,0.0112457275390625
1761315074716651300,7.4566513671875,-0.9468994140625,-0.2643890380859375,0.0141448974609375
1761315074726699000,7.466698974609375,-0.9494476318359375,-0.268707275390625,0.0107574462890625
1761315074736746000,7.47674609375,-0.95037841796875,-0.269805908203125,0.0115203857421875
1761315074746794200,7.486794189453125,-0.9492034912109375,-0.2631988525390625,0.009246826171875
1761315074756842200,7.49684228515625,-0.9423065185546875,-0.25872802734375,0.0063323974609375
1761315074766890200,7.50689013671875,-0.9475250244140625,-0.26080322265625,0.0078125
1761315074776937200,7.516937255859375,-0.9581298828125,-0.2646026611328125,0.0126953125
1761315074786985200,7.526985107421875,-0.9564208984375,-0.2651824951171875,0.014068603515625
1761315074797033000,7.537032958984375,-0.956573486328125,-0.2621307373046875,0.0175628662109375
1761315074807081200,7.547081298828125,-0.9611968994140625,-0.2587890625,0.01849365234375
1761315074817128200,7.557128173828125,-0.957611083984375,-0.259246826171875,0.0211334228515625
1761315074827176200,7.56717626953125,-0.959564208984375,-0.2575836181640625,0.026275634765625
1761315074837224200,7.57722412109375,-0.9679718017578125,-0.2522125244140625,0.0323028564453125
1761315074847272200,7.587272216796875,-0.9365386962890625,-0.2461090087890625,0.0247344970703125
1761315074857319200,7.597319091796875,-0.9303436279296875,-0.229461669921875,0.03057861328125
1761315074867367200,7.6073671875,-0.9793853759765625,-0.234100341796875,0.046722412109375
1761315074877415200,7.617415283203125,-0.9836578369140625,-0.2586822509765625,0.0480804443359375
1761315074887463200,7.627463134765625,-0.9766693115234375,-0.2710418701171875,0.05194091796875
1761315074897510400,7.637510498046875,-0.960296630859375,-0.25726318359375,0.0386962890625
1761315074907558100,7.64755810546875,-0.9450836181640625,-0.2468719482421875,0.0269317626953125
1761315074917606100,7.657606201171875,-0.941131591796875,-0.2478179931640625,0.0213775634765625
1761315074927654100,7.667654052734375,-0.9375152587890625,-0.25091552734375,0.019195556640625
1761315074937701000,7.677701171875,-0.93609619140625,-0.2547454833984375,0.0198822021484375
1761315074947749000,7.6877490234375,-0.943206787109375,-0.2484893798828125,0.0275421142578125
