time,seconds_elapsed,z,y,x
1761315067346605300,0.086605224609375,0.000391218374716118,-0.08058405667543411,0.011747470125555992
1761315067356653600,0.096653564453125,-0.00827870238572359,-0.0970972552895546,0.044503819197416306
1761315067366700300,0.1067001953125,-0.01932203210890293,-0.10942289978265762,0.06478112936019897
1761315067376748300,0.116748291015625,-0.027843082323670387,-0.11699293553829193,0.07662074267864227
1761315067386796500,0.126796630859375,-0.03380057215690613,-0.1253853589296341,0.08523580431938171
1761315067396844300,0.13684423828125,-0.04502633213996887,-0.1035090833902359,0.10301799327135086
1761315067406892300,0.146892333984375,-0.062138739973306656,-0.06125936284661293,0.1253983974456787
1761315067416939500,0.156939453125,-0.07450433075428009,-0.021438978612422943,0.14704670011997223
1761315067426987500,0.166987548828125,-0.07777122408151627,0.006649114191532135,0.15635071694850922
1761315067437035300,0.17703515625,-0.07673099637031555,0.005967877805233002,0.15341033041477203
1761315067447083500,0.18708349609375,-0.0749213770031929,-0.004394215997308493,0.14337339997291565
1761315067457131300,0.19713134765625,-0.073736272752285,-0.002709500025957823,0.12325642257928848
1761315067467179300,0.20717919921875,-0.06555237621068954,0.018366489559412003,0.09508257359266281
1761315067477226500,0.2172265625,-0.056947171688079834,0.04051467031240463,0.05506990849971771
1761315067487274500,0.2272744140625,-0.05030471459031105,0.07861492037773132,0.022462431341409683
1761315067497322200,0.237322265625,-0.043602604418992996,0.10379590094089508,0.009213471785187721
1761315067507370500,0.24737060546875,-0.04276131093502045,0.1038542240858078,0.008564991876482964
1761315067517418500,0.25741845703125,-0.04843224585056305,0.062079351395368576,0.022419821470975876
1761315067527465200,0.26746533203125,-0.04802478477358818,0.0018426411552354693,0.04921628162264824
1761315067537513500,0.277513427734375,-0.04379168897867203,-0.05377507954835892,0.08380168676376343
1761315067547561500,0.2875615234375,-0.03862382471561432,-0.09056318551301956,0.1096029281616211
1761315067557609200,0.297609130859375,-0.021443773061037064,-0.1011977270245552,0.13787557184696198
1761315067567657500,0.307657470703125,-0.000143544384627603,-0.10176364332437515,0.14523069560527802
1761315067577704400,0.317704345703125,0.02190023846924305,-0.10767532885074615,0.1368686407804489
1761315067587752400,0.32775244140625,0.039150066673755646,-0.10140225291252136,0.1219799667596817
1761315067597800400,0.337800537109375,0.048536643385887146,-0.08236411213874817,0.10254315286874771
1761315067607848400,0.347848388671875,0.04843837395310402,-0.06847839057445526,0.09631428867578506
1761315067617896200,0.357896240234375,0.038303446024656296,-0.04808656871318817,0.09777289628982544
1761315067627943200,0.367943115234375,0.028613802045583725,-0.0017041567480191588,0.10455037653446198
1761315067637991400,0.377991455078125,0.02598606050014496,0.052680253982543945,0.11399900913238525
1761315067648039400,0.388039306640625,0.034620560705661774,0.08709149062633514,0.12145452946424484
1761315067658087400,0.39808740234375,0.04066593572497368,0.0621749572455883,0.11032038182020187
1761315067668135400,0.408135498046875,0.03950959071516991,0.020049074664711952,0.08558254688978195
1761315067678182400,0.418182373046875,0.04698082432150841,-0.018618425354361534,0.058030545711517334
1761315067688230400,0.42823046875,0.05151858553290367,-0.06360134482383728,0.028327245265245438
1761315067698278400,0.4382783203125,0.054971374571323395,-0.10479219257831573,0.008257397450506687
1761315067708326400,0.448326416015625,0.06259573996067047,-0.11944250762462616,0.015856727957725525
1761315067718374400,0.45837451171875,0.05734052136540413,-0.10715974122285843,0.0369657427072525
1761315067728421400,0.46842138671875,0.049796849489212036,-0.09323620051145554,0.05153056979179382
1761315067738469400,0.478469482421875,0.045884668827056885,-0.07395065575838089,0.05979728698730469
1761315067748517400,0.488517333984375,0.04739627614617348,-0.042832151055336,0.0686965063214302
1761315067758565400,0.4985654296875,0.049312952905893326,-0.02581455372273922,0.07353253662586212
1761315067768613400,0.50861328125,0.05582837760448456,-0.015858059749007225,0.0775403305888176
1761315067778660400,0.518660400390625,0.06604160368442535,0.01684076525270939,0.0842491015791893
1761315067788708400,0.528708251953125,0.08100377023220062,0.07300363481044769,0.09521759301424026
1761315067798756400,0.53875634765625,0.09968637675046921,0.15692304074764252,0.11584378033876419
1761315067808804400,0.548804443359375,0.12144041061401367,0.2343781441450119,0.1319867968559265
1761315067818852400,0.558852294921875,0.1384793221950531,0.2851864695549011,0.1418074667453766
1761315067828899300,0.5688994140625,0.1455358862876892,0.2996138632297516,0.15090322494506836
1761315067838947300,0.578947265625,0.14813753962516785,0.2897668480873108,0.17648954689502716
1761315067848995300,0.588995361328125,0.1488720327615738,0.26781120896339417,0.23093734681606293
1761315067859043300,0.599043212890625,0.14467595517635345,0.22802944481372833,0.29981812834739685
1761315067869091300,0.60909130859375,0.14390631020069122,0.1940901130437851,0.3803976774215698
1761315067879138600,0.619138671875,0.14445997774600983,0.1472371220588684,0.4613391160964966
1761315067889186300,0.629186279296875,0.14096245169639587,0.090818852186203,0.5396549701690674
1761315067899234300,0.639234375,0.13996349275112152,0.02388589084148407,0.6137451529502869
1761315067909282600,0.649282470703125,0.1370002031326294,-0.032946232706308365,0.6653249859809875
1761315067919329300,0.659329345703125,0.13119876384735107,-0.09465619921684265,0.683587908744812
1761315067929377300,0.669377197265625,0.1138211041688919,-0.13490241765975952,0.6462826132774353
1761315067939425500,0.679425537109375,0.0993604063987732,-0.12023612856864929,0.5710405707359314
1761315067949473300,0.689473388671875,0.08093719184398651,-0.07336662709712982,0.4597865045070648
1761315067959521300,0.699521240234375,0.06618381291627884,-0.01593795418739319,0.3253277540206909
1761315067969568500,0.709568603515625,0.04683728143572807,0.05181179940700531,0.19039177894592285
1761315067979616500,0.719616455078125,0.02101100981235504,0.12817075848579407,0.07035379111766815
1761315067989664300,0.729664306640625,-0.0044072652235627174,0.191853329539299,-0.023930367082357407
1761315067999712500,0.73971240234375,-0.03747520223259926,0.24448084831237793,-0.09502611309289932
1761315068009760300,0.74976025390625,-0.06169851869344711,0.2935144305229187,-0.13898850977420807
1761315068019807200,0.75980712890625,-0.07491152733564377,0.3274140954017639,-0.15704473853111267
1761315068029855500,0.76985546875,-0.0791049376130104,0.3259621262550354,-0.15552887320518494
1761315068039903500,0.779903564453125,-0.06707064807415009,0.2991499602794647,-0.15059617161750793
1761315068049951200,0.789951171875,-0.05603157728910446,0.2370077520608902,-0.1333031952381134
1761315068059999500,0.79999951171875,-0.039565786719322205,0.17285965383052826,-0.10708677023649216
1761315068070046500,0.81004638671875,-0.018552646040916443,0.12305774539709091,-0.08016487956047058
1761315068080094500,0.820094482421875,-0.0012756541837006807,0.0788535326719284,-0.047622911632061005
1761315068090142500,0.830142578125,0.019038405269384384,0.03719237446784973,-0.01059192419052124
1761315068100190500,0.8401904296875,0.035418443381786346,0.009938917122781277,0.03116830624639988
1761315068110238200,0.85023828125,0.043660663068294525,0.012985839508473873,0.08243362605571747
1761315068120285200,0.86028515625,0.05530959367752075,0.024227041751146317,0.1259419471025467
1761315068130333400,0.87033349609375,0.07123503088951111,0.03187137842178345,0.15584871172904968
1761315068140381400,0.88038134765625,0.08201604336500168,0.020963871851563454,0.16478149592876434
1761315068150429400,0.890429443359375,0.07896699011325836,0.0032346753869205713,0.15896327793598175
1761315068160477400,0.9004775390625,0.06893619149923325,0.008199340663850307,0.12920431792736053
1761315068170524700,0.910524658203125,0.054253119975328445,0.02822551317512989,0.08232496678829193
1761315068180572400,0.920572509765625,0.052738312631845474,0.04867832362651825,0.026812972500920296
1761315068190620400,0.930620361328125,0.044499289244413376,0.05457988753914833,-0.018786471337080002
1761315068200668700,0.940668701171875,0.039377499371767044,0.06896974891424179,-0.046660445630550385
1761315068210715600,0.950715576171875,0.03465678170323372,0.08179260045289993,-0.06034909561276436
1761315068220763400,0.960763427734375,0.03172037750482559,0.07700290530920029,-0.06524877995252609
1761315068230811600,0.970811767578125,0.028666531667113304,0.07424972951412201,-0.0577852688729763
1761315068240859400,0.980859375,0.03104766458272934,0.05860472470521927,-0.04994598776102066
1761315068250907400,0.990907470703125,0.02587367594242096,0.04424389451742172,-0.045215681195259094
1761315068260955600,1.00095556640625,0.0215351190418005,0.032580845057964325,-0.04373176768422127
1761315068271002600,1.011002685546875,0.018643992021679878,0.024527713656425476,-0.04181109741330147
1761315068281050400,1.02105029296875,0.01960992068052292,0.024530377238988876,-0.02936321496963501
1761315068291098600,1.0310986328125,0.019041335210204124,0.02117719128727913,-0.014830078929662704
1761315068301146600,1.041146728515625,0.0157169122248888,0.012842562049627304,0.003335342975333333
1761315068311193300,1.051193359375,0.00634977500885725,-0.0028546424582600594,0.017252223566174507
1761315068321241600,1.06124169921875,0.000010120012120751198,0.0030839405953884125,0.032160867005586624
1761315068331289600,1.07128955078125,-0.0031137678306549788,0.027470240369439125,0.033371005207300186
1761315068341337300,1.08133740234375,-0.0031369375064969063,0.05145839601755142,0.02298547700047493
1761315068351385600,1.091385498046875,-0.004108458757400513,0.07633498311042786,0.00503870053216815
1761315068361432600,1.1014326171875,0.0001579254458192736,0.10194980353116989,-0.019878100603818893
1761315068371480600,1.11148046875,0.008220645599067211,0.10853739827871323,-0.03283464536070824
1761315068381528600,1.121528564453125,0.01618216559290886,0.10781434923410416,-0.034497521817684174
1761315068391576600,1.13157666015625,0.0209492240101099,0.09903603792190552,-0.03368658944964409
1761315068401624300,1.141624267578125,0.019328424707055092,0.06464530527591705,-0.03578729182481766
1761315068411671300,1.15167138671875,0.014879613183438778,0.03792474418878555,-0.039142608642578125
1761315068421719600,1.161719482421875,0.012799152173101902,0.019121762365102768,-0.03964648023247719
1761315068431767600,1.171767578125,0.014207432046532631,0.003750795964151621,-0.04615044966340065
1761315068441815600,1.181815673828125,0.007368167862296104,-0.011391405016183853,-0.041669681668281555
1761315068451863600,1.191863525390625,0.005019525997340679,-0.01446762215346098,-0.028386633843183517
1761315068461910500,1.20191064453125,0.0018311894964426756,-0.021950572729110718,-0.006125536747276783
1761315068471958300,1.211958251953125,0.0044200485572218895,-0.02045201137661934,0.010881676338613033
1761315068482006500,1.222006591796875,0.010018013417720795,-0.006573214195668697,0.024685638025403023
1761315068492054500,1.232054443359375,0.018801916390657425,0.007511445786803961,0.029275329783558846
1761315068502102500,1.2421025390625,0.023423567414283752,0.013492905534803867,0.022296249866485596
1761315068512149500,1.2521494140625,0.023436883464455605,0.02858450636267662,0.008953813463449478
1761315068522197500,1.262197509765625,0.022484801709651947,0.04896248131990433,0.004049336537718773
1761315068532245500,1.27224560546875,0.017168333753943443,0.05506058782339096,0.01329956017434597
1761315068542293500,1.28229345703125,0.014767227694392204,0.06457339972257614,0.05281953886151314
1761315068552341500,1.292341552734375,0.016112657263875008,0.07631341367959976,0.12127849459648132
1761315068562388500,1.302388427734375,0.02635171264410019,0.0857122391462326,0.19225679337978363
1761315068572436500,1.3124365234375,0.04344574362039566,0.059907276183366776,0.2386075109243393
1761315068582484500,1.322484375,0.0688011646270752,0.020171847194433212,0.2624124586582184
1761315068592532500,1.332532470703125,0.08433911204338074,-0.006993460934609175,0.26112455129623413
1761315068602580500,1.34258056640625,0.09045267105102539,-0.023006249219179153,0.22984571754932404
1761315068612627500,1.35262744140625,0.09032963216304779,-0.018123876303434372,0.18056072294712067
1761315068622675500,1.362675537109375,0.08597908914089203,0.004245611373335123,0.12175066769123077
1761315068632723500,1.372723388671875,0.07214529812335968,0.02183525823056698,0.056885119527578354
1761315068642771500,1.382771484375,0.04266383871436119,0.04743435978889465,0.002822950715199113
1761315068652818400,1.392818359375,0.010055829770863056,0.08703742921352386,-0.04104730114340782
1761315068662866700,1.40286669921875,-0.008892028592526913,0.10355675220489502,-0.06854470819234848
1761315068672914400,1.41291455078125,-0.014574148692190647,0.11087937653064728,-0.08003970980644226
1761315068682962400,1.42296240234375,-0.00577852688729763,0.11268793046474457,-0.08278010040521622
1761315068693010700,1.4330107421875,0.004481034819036722,0.10977603495121002,-0.0717274472117424
1761315068703057400,1.443057373046875,0.014615694060921669,0.10049917548894882,-0.050695136189460754
1761315068713105400,1.45310546875,0.021562017500400543,0.10564573854207993,-0.025645442306995392
1761315068723153700,1.463153564453125,0.025107484310865402,0.10113833844661713,0.0038448055274784565
1761315068733201400,1.473201416015625,0.018502844497561455,0.07421963661909103,0.0366019532084465
1761315068743249400,1.48324951171875,0.009728793986141682,0.039624907076358795,0.07429500669240952
1761315068753296600,1.493296630859375,0.008595884777605534,0.026690199971199036,0.103792704641819
1761315068763344600,1.5033447265625,0.011099256575107574,0.017898572608828545,0.12523993849754333
1761315068773392400,1.513392333984375,0.011841479688882828,0.0315142497420311,0.128159299492836
1761315068783440600,1.523440673828125,0.021097827702760696,0.07407582551240921,0.1142546683549881
1761315068793488400,1.53348828125,0.02876054123044014,0.11418409645557404,0.08977276086807251
1761315068803535400,1.543535400390625,0.02508671022951603,0.12061003595590591,0.051230695098638535
1761315068813583600,1.55358349609375,0.022850453853607178,0.0611184798181057,0.020866133272647858
1761315068823631600,1.563631591796875,0.02749633975327015,0.004369714763015509,-0.0002426139690214768
1761315068833679400,1.573679443359375,0.021442441269755363,-0.037096768617630005,-0.0101362569257617
1761315068843726300,1.583726318359375,0.013361611403524876,-0.07168590277433395,-0.008859803900122643
1761315068853774600,1.593774658203125,-0.010350908152759075,-0.08254281431436539,0.003355582943186164
1761315068863822300,1.603822265625,-0.029833795502781868,-0.08012466132640839,0.013319001533091068
1761315068873870600,1.61387060546875,-0.04256024211645126,-0.06872580200433731,0.016883907839655876
1761315068883918600,1.623918701171875,-0.04568706080317497,-0.06295473128557205,0.02028742805123329
1761315068893965600,1.633965576171875,-0.04279886186122894,-0.055093079805374146,0.018074341118335724
1761315068904013300,1.644013427734375,-0.03761874884366989,-0.03081676922738552,0.010322412475943565
1761315068914061600,1.6540615234375,-0.037042707204818726,0.016627445816993713,-0.00023622238950338215
1761315068924109600,1.664109619140625,-0.026697658002376556,0.059670787304639816,-0.02889423258602619
1761315068934157600,1.674157470703125,-0.014651913195848465,0.07397755235433578,-0.06545437127351761
1761315068944204500,1.68420458984375,-0.008525044657289982,0.05698126181960106,-0.08557695150375366
1761315068954252500,1.69425244140625,0.0028474517166614532,0.018973691388964653,-0.09242819994688034
1761315068964300300,1.70430029296875,0.022719958797097206,-0.036807816475629807,-0.08545604348182678
1761315068974348500,1.7143486328125,0.04481594264507294,-0.10058093816041946,-0.07812036573886871
1761315068984396500,1.724396484375,0.04711771011352539,-0.14474813640117645,-0.05452129989862442
1761315068994443500,1.734443603515625,0.037397973239421844,-0.16630642116069794,-0.029618877917528152
1761315069004491500,1.744491455078125,0.02588432841002941,-0.1663394421339035,-0.0005371595616452396
1761315069014539500,1.75453955078125,0.015634087845683098,-0.14331482350826263,0.01673264056444168
1761315069024587500,1.76458740234375,0.011696869507431984,-0.1123150885105133,0.01998009905219078
1761315069034635500,1.774635498046875,0.013402357697486877,-0.10368777811527252,0.013562946580350399
1761315069044682500,1.7846826171875,0.014061223715543747,-0.09074535220861435,0.007417436223477125
1761315069054730500,1.79473046875,0.011985822580754757,-0.08345574140548706,-0.005145759787410498
1761315069064778500,1.804778564453125,-0.005465605296194553,-0.09784373641014099,-0.020962806418538094
1761315069074826500,1.814826416015625,-0.023264575749635696,-0.1222100630402565,-0.03985527157783508
1761315069084873500,1.82487353515625,-0.0511995367705822,-0.1394606977701187,-0.06205058842897415
1761315069094921500,1.83492138671875,-0.06912021338939667,-0.1423422247171402,-0.07357248663902283
1761315069104969500,1.844969482421875,-0.08246850967407227,-0.14296913146972656,-0.08065756410360336
1761315069115017500,1.855017578125,-0.09362795203924179,-0.14093607664108276,-0.09762375801801682
1761315069125065500,1.8650654296875,-0.09559363126754761,-0.1393757313489914,-0.1113763228058815
1761315069135112400,1.875112548828125,-0.08496282994747162,-0.13411226868629456,-0.11949843168258667
1761315069145160400,1.885160400390625,-0.07384679466485977,-0.11557506769895554,-0.12031495571136475
1761315069155208400,1.89520849609375,-0.062371499836444855,-0.10170771926641464,-0.11741504073143005
1761315069165256400,1.90525634765625,-0.05529627948999405,-0.07084674388170242,-0.10777413100004196
1761315069175304400,1.915304443359375,-0.04874543473124504,-0.03734923526644707,-0.09746050834655762
1761315069185351400,1.925351318359375,-0.0399940200150013,-0.007812915369868279,-0.09844081848859787
1761315069195399400,1.9353994140625,-0.025725336745381355,0.015183214098215103,-0.09313207119703293
1761315069205447400,1.945447509765625,-0.01931457594037056,0.033061545342206955,-0.08175212144851685
1761315069215495400,1.955495361328125,-0.016584303230047226,0.049182992428541183,-0.06312410533428192
1761315069225543400,1.96554345703125,-0.015242869034409523,0.0457371287047863,-0.05007781460881233
1761315069235590400,1.97559033203125,-0.02510242350399494,0.042217761278152466,-0.037700772285461426
1761315069245638400,1.985638427734375,-0.032398153096437454,0.04729907214641571,-0.02388988621532917
1761315069255686400,1.995686279296875,-0.04494856670498848,0.05560493841767311,-0.016806676983833313
1761315069265734400,2.005734375,-0.05194548889994621,0.051415253430604935,-0.010500311851501465
1761315069275781400,2.015781494140625,-0.06351213157176971,0.053228333592414856,-0.015804262831807137
1761315069285829600,2.02582958984375,-0.06362717598676682,0.04749348387122154,-0.03242052346467972
1761315069295877400,2.03587744140625,-0.05957065150141716,0.018041318282485008,-0.05453461408615112
1761315069305925400,2.04592529296875,-0.06527327746152878,-0.005344697739928961,-0.05555886775255203
1761315069315973600,2.0559736328125,-0.07311335951089859,0.002947586588561535,-0.0450148805975914
1761315069326020400,2.066020263671875,-0.07013887166976929,0.01690228469669819,-0.0292391125112772
1761315069336068400,2.076068359375,-0.06515450030565262,0.032163530588150024,-0.010183927603065968
1761315069346116600,2.08611669921875,-0.05151166021823883,0.037524204701185226,0.005697034299373627
1761315069356164400,2.096164306640625,-0.03845418244600296,0.030348317697644234,0.01571637950837612
1761315069366212400,2.10621240234375,-0.03159254789352417,0.010691526345908642,0.024448884651064873
1761315069376259300,2.11625927734375,-0.020181167870759964,-0.022610770538449287,0.017979266121983528
1761315069386307600,2.1263076171875,-0.014447116293013096,-0.04969831556081772,0.006603308022022247
1761315069396355300,2.136355224609375,-0.017418405041098595,-0.05266427621245384,-0.0017917747609317303
1761315069406403600,2.146403564453125,-0.020389428362250328,-0.04148459434509277,-0.012656672857701778
1761315069416451300,2.156451416015625,-0.02732429839670658,-0.022280538454651833,-0.02690165489912033
1761315069426498300,2.166498291015625,-0.029642047360539436,-0.02682868391275406,-0.048890843987464905
1761315069436546300,2.17654638671875,-0.028920864686369896,-0.06773430854082108,-0.0693468526005745
1761315069446594600,2.186594482421875,-0.037341780960559845,-0.09203272312879562,-0.05867183580994606
1761315069456642300,2.196642333984375,-0.05264057591557503,-0.07450565695762634,-0.031212780624628067
1761315069466689300,2.206689208984375,-0.05866304785013199,-0.05751575529575348,-0.0070280819199979305
1761315069476737500,2.216737548828125,-0.05432608723640442,-0.056107211858034134,0.007375358138233423
1761315069486785500,2.22678564453125,-0.03928934782743454,-0.05149328336119652,0.016529440879821777
1761315069496833300,2.236833251953125,-0.021023260429501534,-0.039014775305986404,0.027150660753250122
1761315069506881500,2.246881591796875,-0.017067667096853256,-0.045230329036712646,0.02033696323633194
1761315069516928500,2.256928466796875,-0.015812784433364868,-0.07255835831165314,0.011440407484769821
1761315069526976300,2.266976318359375,-0.018336663022637367,-0.07078868895769119,0.008292817510664463
1761315069537024500,2.2770244140625,-0.015857793390750885,-0.04171442240476608,0.018019214272499084
1761315069547072500,2.287072509765625,-0.009743707254529,-0.024406805634498596,0.033007752150297165
1761315069557120300,2.297120361328125,-0.010909905657172203,-0.03615693747997284,0.035955071449279785
1761315069567167500,2.30716748046875,-0.01618083380162716,-0.059245478361845016,0.03646879643201828
1761315069577215500,2.317215576171875,-0.02105761505663395,-0.06409163773059845,0.03520725667476654
1761315069587263200,2.32726318359375,-0.026261698454618454,-0.07971693575382233,0.01830443926155567
1761315069597311500,2.3373115234375,-0.023120764642953873,-0.11607600748538971,0.003611512714996934
1761315069607358500,2.3473583984375,-0.022999592125415802,-0.15133066475391388,-0.003656253917142749
1761315069617406500,2.357406494140625,-0.020376911386847496,-0.17014643549919128,-0.004497013986110687
1761315069627454500,2.367454345703125,-0.021441908553242683,-0.1749667525291443,-0.004002198576927185
1761315069637502500,2.37750244140625,-0.02040700428187847,-0.1698702573776245,-0.007201453670859337
1761315069647550500,2.387550537109375,-0.015810655429959297,-0.16166692972183228,-0.01293657161295414
1761315069657597400,2.397597412109375,-0.013291037641465664,-0.1529109925031662,-0.006395847536623478
1761315069667645400,2.4076455078125,-0.01531690452247858,-0.15321005880832672,0.004114584065973759
1761315069677693400,2.417693359375,-0.018390990793704987,-0.150894433259964,0.020264524966478348
1761315069687741400,2.427741455078125,-0.013129916973412037,-0.13817597925662994,0.0274481363594532
1761315069697789400,2.43778955078125,-0.008551943115890026,-0.12530066072940826,0.033901508897542953
1761315069707836400,2.44783642578125,0.0006101301987655461,-0.11420779675245285,0.029922213405370712
1761315069717884400,2.457884521484375,0.0095082838088274,-0.11325598508119583,0.021343637257814407
1761315069727932400,2.467932373046875,0.010882741771638393,-0.1172480657696724,0.01595206931233406
1761315069737980400,2.47798046875,0.008624646812677383,-0.11667415499687195,0.012655341066420078
1761315069748027400,2.48802734375,0.010921889916062355,-0.1260540783405304,0.004825647920370102
1761315069758075400,2.498075439453125,0.002103897277265787,-0.13527074456214905,0.0007315703551284969
1761315069768123400,2.508123291015625,-0.009152752347290516,-0.1233067512512207,-0.009311210364103317
1761315069778171600,2.518171630859375,-0.017115071415901184,-0.11440806835889816,-0.023502130061388016
1761315069788219400,2.528219482421875,-0.02219318598508835,-0.11431645601987839,-0.03376036137342453
1761315069798266400,2.538266357421875,-0.021977204829454422,-0.10921251028776169,-0.03218962624669075
1761315069808314400,2.548314453125,-0.02094869129359722,-0.09806318581104279,-0.018445586785674095
1761315069818362400,2.5583623046875,-0.013216203078627586,-0.0908617302775383,-0.008078699000179768
1761315069828410400,2.568410400390625,-0.00023542344570159912,-0.08787845820188522,0.008537827990949154
1761315069838458600,2.578458740234375,0.010834005661308765,-0.08488985896110535,0.020977720618247986
1761315069848505600,2.588505615234375,0.023035811260342598,-0.07849907130002975,0.02635916881263256
1761315069858553300,2.59855322265625,0.031014375388622284,-0.07411657273769379,0.024053670465946198
1761315069868601300,2.608601318359375,0.030906783416867256,-0.07008800655603409,0.024479776620864868
1761315069878649600,2.618649658203125,0.022583872079849243,-0.07581140846014023,0.027481691911816597
1761315069888696300,2.6286962890625,0.008668056689202785,-0.08746486902236938,0.0297246053814888
1761315069898744300,2.638744384765625,-0.006819290108978748,-0.07977712154388428,0.02798929065465927
1761315069908792600,2.64879248046875,-0.018508436158299446,-0.07349738478660583,0.02430720441043377
1761315069918840300,2.65884033203125,-0.018806178122758865,-0.06202315539121628,0.009182579815387726
1761315069928888300,2.668888427734375,-0.012591425329446793,-0.052437640726566315,-0.012050537392497063
1761315069938935600,2.678935546875,-0.002294047037139535,-0.05065252631902695,-0.031028224155306816
1761315069948983600,2.688983642578125,0.0017156084068119526,-0.057362623512744904,-0.04850202053785324
1761315069959031300,2.69903125,0.004948419518768787,-0.06488499045372009,-0.056044626981019974
1761315069969079600,2.70907958984375,0.0005305017111822963,-0.061099838465452194,-0.05561026558279991
1761315069979126500,2.71912646484375,-0.01125292107462883,-0.06987389177083969,-0.04537840187549591
1761315069989174300,2.72917431640625,-0.023964188992977142,-0.05898422375321388,-0.025706695392727852
1761315069999222500,2.739222412109375,-0.031671375036239624,-0.04173785820603371,-0.00418489146977663
1761315070009270500,2.7492705078125,-0.029766418039798737,-0.03357713297009468,0.011204451322555542
1761315070019318300,2.759318359375,-0.02263607084751129,-0.03441017121076584,0.02105175517499447
1761315070029365500,2.769365478515625,-0.017710819840431213,-0.036860279738903046,0.018255436792969704
1761315070039413500,2.77941357421875,-0.013531255535781384,-0.03616253286600113,0.009495766833424568
1761315070049461200,2.789461181640625,0.0003914846747647971,-0.029224997386336327,0.0014447649009525776
1761315070059509500,2.799509521484375,0.01251126453280449,-0.012883308343589306,-0.006394516211003065
1761315070069557500,2.8095576171875,0.014155233278870583,0.008230498991906643,-0.012226039543747902
1761315070079604500,2.8196044921875,0.019703663885593414,0.016455672681331635,-0.016472449526190758
1761315070089652500,2.829652587890625,0.013036972843110561,0.0031158984638750553,-0.02111540548503399
1761315070099700500,2.839700439453125,0.005062136333435774,-0.01980140060186386,-0.016953948885202408
1761315070109748500,2.84974853515625,-0.0013366405619308352,-0.039327431470155716,-0.01967569999396801
1761315070119795200,2.859795166015625,-0.004501008428633213,-0.05577777698636055,-0.013817012310028076
1761315070129843500,2.869843505859375,-0.0009661948424763978,-0.06345753371715546,-0.010987403802573681
1761315070139891500,2.879891357421875,0.007703193463385105,-0.06686398386955261,-0.0031073763966560364
1761315070149939500,2.889939453125,0.01738138683140278,-0.0680118054151535,0.005350823048502207
1761315070159988000,2.899988037109375,0.02420174330472946,-0.08002905547618866,0.013906761072576046
1761315070170035200,2.91003515625,0.024591362103819847,-0.08540038764476776,0.018628278747200966
1761315070180083000,2.9200830078125,0.02582254260778427,-0.07378607243299484,0.01750682108104229
1761315070190131000,2.930130859375,0.03395450487732887,-0.052444830536842346,0.01763119176030159
1761315070200179200,2.94017919921875,0.028304608538746834,-0.035772111266851425,0.01124919205904007
1761315070210226200,2.95022607421875,0.022536201402544975,-0.013199691660702229,0.01142975501716137
1761315070220274000,2.96027392578125,0.01357253361493349,-0.005004345905035734,0.012856143526732922
1761315070230322200,2.970322265625,0.011598066426813602,-0.0020900487434118986,0.01299223117530346
1761315070240370000,2.980369873046875,0.01167742908000946,-0.005361475981771946,0.01233309879899025
1761315070250418000,2.99041796875,0.010914166457951069,-0.00845500361174345,0.01034531556069851
1761315070260465000,3.00046484375,0.01690707728266716,-0.013673733919858932,0.00875114742666483
1761315070270513200,3.01051318359375,0.018039187416434288,-0.022232068702578545,0.015242602676153183
1761315070280561000,3.020560791015625,0.0145887965336442,-0.026986876502633095,0.019899405539035797
1761315070290609200,3.030609130859375,0.008140218444168568,-0.03573083132505417,0.022550316527485847
1761315070300657200,3.0406572265625,-0.0010897654574364424,-0.0324130654335022,0.027163976803421974
1761315070310703900,3.050703857421875,-0.0016980315558612347,-0.03593083471059799,0.024338096380233765
1761315070320751900,3.060751953125,0.002088717184960842,-0.03334730491042137,0.016409600153565407
1761315070330800000,3.070800048828125,0.0070709590800106525,-0.013552560470998287,0.004988899454474449
1761315070340847900,3.080847900390625,0.012912603095173836,0.005307946354150772,-0.009969010949134827
1761315070350894800,3.090894775390625,0.015050321817398071,0.019100457429885864,-0.021193968132138252
1761315070360943000,3.100943115234375,0.00971308071166277,0.02221076376736164,-0.025652099400758743
1761315070370991000,3.1109912109375,0.0041305627673864365,0.021286379545927048,-0.016088156029582024
1761315070381038800,3.121038818359375,-0.002496447181329131,0.02274818904697895,-0.0007968177669681609
1761315070391087000,3.131087158203125,-0.004899950232356787,0.016285229474306107,0.01435044314712286
1761315070401134000,3.141134033203125,-0.003233610186725855,0.002067678142338991,0.022371618077158928
1761315070411181800,3.151181884765625,0.007241134997457266,-0.009035306982696056,0.02160302922129631
1761315070421230000,3.16122998046875,0.012089685536921024,-0.03063300997018814,0.01546311192214489
1761315070431278000,3.171278076171875,0.018427742645144463,-0.04507320374250412,0.006357498001307249
1761315070441325000,3.181324951171875,0.019834691658616066,-0.05379292368888855,0.007847536355257034
1761315070451373000,3.191373046875,0.011018828488886356,-0.06314647942781448,0.004540689755231142
1761315070461421000,3.201421142578125,-0.0003201119543518871,-0.05351196229457855,0.0037702370900660753
1761315070471468800,3.21146875,-0.0067961206659674644,-0.024765534326434135,0.006325273774564266
1761315070481517000,3.22151708984375,-0.010568222030997276,0.011519769206643105,0.006101035512983799
1761315070491564000,3.23156396484375,-0.009720537811517715,0.0430968701839447,-0.00043010051012970507
1761315070501612000,3.241612060546875,-0.007515972945839167,0.057856373488903046,-0.012537096627056599
1761315070511660000,3.251659912109375,-0.0018972359830513597,0.06095389649271965,-0.02648327313363552
1761315070521708000,3.2617080078125,0.00780625781044364,0.0435517393052578,-0.037571877241134644
1761315070531755000,3.271755126953125,0.010554905980825424,0.0200464129447937,-0.03584827855229378
1761315070541803000,3.281802978515625,0.008770854212343693,0.013728062622249126,-0.022367889061570168
1761315070551851000,3.29185107421875,0.006157760974019766,0.022768694907426834,-0.007244330830872059
1761315070561899000,3.30189892578125,0.007202785462141037,0.02936055138707161,0.009898703545331955
1761315070571947000,3.311947021484375,0.01347452960908413,0.03624109551310539,0.011683288030326366
1761315070581994000,3.321993896484375,0.014334997162222862,0.027642013505101204,0.009727462194859982
1761315070592042000,3.3320419921875,0.01468626782298088,0.004846686962991953,-0.004993160720914602
1761315070602090200,3.34209033203125,0.001107076066546142,-0.027284618467092514,-0.030011162161827087
1761315070612138000,3.352137939453125,-0.00376011710613966,-0.0425485260784626,-0.04965224117040634
1761315070622185000,3.36218505859375,-0.009415073320269585,-0.039035551249980927,-0.058945875614881516
1761315070632233000,3.37223291015625,-0.006870955694466829,-0.025959428399801254,-0.06477367132902145
1761315070642281000,3.382281005859375,-0.008959139697253704,-0.01275520958006382,-0.0651710107922554
1761315070652329000,3.392328857421875,-0.006206230726093054,0.0005912217311561108,-0.05806969478726387
1761315070662377200,3.402377197265625,-0.005672799423336983,0.02251409739255905,-0.03660168498754501
1761315070672424200,3.412424072265625,-0.012651080265641212,0.04462872073054314,-0.020298879593610764
1761315070682472000,3.422471923828125,-0.019894346594810486,0.057912569493055344,-0.007665376644581556
1761315070692520000,3.43252001953125,-0.028184765949845314,0.04856567084789276,0.00032330775866284966
1761315070702568000,3.44256787109375,-0.0302636306732893,0.018936673179268837,0.006653641816228628
1761315070712615000,3.452614990234375,-0.028058266267180443,0.013686517253518105,0.007100253831595182
1761315070722663000,3.462662841796875,-0.019772639498114586,0.016699351370334625,0.0013177321525290608
1761315070732711200,3.472711181640625,-0.014260162599384785,0.01041322574019432,-0.008519452065229416
1761315070742759000,3.482759033203125,-0.01854172721505165,-0.00649731419980526,-0.01648523285984993
1761315070752807000,3.492806884765625,-0.029872678220272064,-0.008701079525053501,-0.016230368986725807
1761315070762854100,3.502854248046875,-0.035946816205978394,-0.0036826191935688257,-0.013799435459077358
1761315070772902000,3.51290185546875,-0.0370006300508976,0.009415339678525925,-0.005331115797162056
1761315070782950000,3.522949951171875,-0.030839405953884125,0.012907808646559715,-0.0026043052785098553
1761315070792998100,3.532998046875,-0.0312894806265831,0.00018961707246489823,0.002275404753163457
1761315070803045000,3.543045166015625,-0.02719220519065857,-0.01332805585116148,0.008303469978272915
1761315070813092900,3.5530927734375,-0.018323346972465515,-0.018160628154873848,0.009374593384563923
1761315070823141000,3.56314111328125,-0.009221195243299007,-0.013882792554795742,0.014193316921591759
1761315070833189000,3.573189208984375,-0.0027292075101286173,-0.015210377983748913,0.012022840790450573
1761315070843236900,3.58323681640625,-0.00044341632747091353,-0.01824345253407955,0.010549313388764858
1761315070853284000,3.5932841796875,-0.0011110707418993115,-0.017828797921538353,0.01326973270624876
1761315070863332000,3.60333203125,-0.0025803367607295513,-0.019236013293266296,0.015472433529794216
1761315070873379800,3.6133798828125,-0.004254666157066822,-0.017486581578850746,0.023268837481737137
1761315070883428000,3.623427978515625,0.0023486416321247816,-0.011755725368857384,0.028421787545084953
1761315070893475000,3.63347509765625,0.008245146833360195,-0.017538513988256454,0.027276361361145973
1761315070903523000,3.643523193359375,0.01330142468214035,-0.031923845410346985,0.018925754353404045
1761315070913571000,3.653571044921875,0.018014952540397644,-0.04403084143996239,0.009663280099630356
1761315070923619000,3.663619140625,0.02357936091721058,-0.060078516602516174,0.0024535702541470528
1761315070933667000,3.6736669921875,0.021033113822340965,-0.06654147803783417,-0.0009827064350247383
1761315070943713800,3.6837138671875,0.015199459157884121,-0.05591493099927902,0.007908523082733154
1761315070953762000,3.693761962890625,0.0075881448574364185,-0.04140496253967285,0.009531719610095024
1761315070963810000,3.70381005859375,0.0007720504072494805,-0.02064615674316883,0.008237157016992569
1761315070973858000,3.713858154296875,-0.007443535141646862,0.003438939806073904,-0.007162305526435375
1761315070983905000,3.723905029296875,-0.011121626943349838,0.003954261541366577,-0.032038625329732895
1761315070993953000,3.733953125,-0.01691240444779396,0.0001613875647308305,-0.06028491258621216
1761315071004001000,3.7440009765625,-0.019084477797150612,-0.007284278050065041,-0.0737469270825386
1761315071014049000,3.754049072265625,-0.02665424719452858,-0.008184959180653095,-0.06932687759399414
1761315071024096000,3.764095947265625,-0.03690582141280174,0.0052027516067028046,-0.04695126414299011
1761315071034144000,3.77414404296875,-0.04153386130928993,0.006730873137712479,-0.01745249330997467
1761315071044192000,3.78419189453125,-0.04201695695519447,0.010132262483239174,0.013011406175792217
1761315071054240000,3.794239990234375,-0.03954261541366577,0.014896923676133156,0.036008600145578384
1761315071064288000,3.8042880859375,-0.039142876863479614,0.013034042902290821,0.036194488406181335
1761315071074335000,3.8143349609375,-0.03192970156669617,0.013686250895261765,0.0273852851241827
1761315071084383000,3.824383056640625,-0.025167936459183693,0.02647075615823269,0.007613711059093475
1761315071094431000,3.834430908203125,-0.02996029518544674,0.04506468027830124,-0.010807373560965061
1761315071104479000,3.84447900390625,-0.03674602881073952,0.04675445705652237,-0.03195180743932724
1761315071114526000,3.85452587890625,-0.044019922614097595,0.02165975607931614,-0.05283578485250473
1761315071124574000,3.864573974609375,-0.04536401852965355,0.007358047645539045,-0.057263556867837906
1761315071134622200,3.874622314453125,-0.04018310457468033,-0.00845766719430685,-0.05529867485165596
1761315071144670000,3.884669921875,-0.03347140550613403,-0.01997477374970913,-0.04785247519612312
1761315071154716400,3.89471630859375,-0.020561201497912407,-0.025471005588769913,-0.040772996842861176
1761315071164764400,3.904764404296875,-0.009357549250125885,-0.029414614662528038,-0.03477156162261963
1761315071174812700,3.914812744140625,-0.0025182850658893585,-0.033491380512714386,-0.02720259316265583
1761315071184860400,3.9248603515625,-0.0035206989850848913,-0.0342559739947319,-0.016466325148940086
1761315071194908700,3.93490869140625,-0.00430047232657671,-0.04134797304868698,-0.0127008818089962
1761315071204955600,3.94495556640625,-0.005769472103565931,-0.03694896399974823,-0.002481267089024186
1761315071215003400,3.95500341796875,-0.002636263146996498,-0.031205058097839355,0.004993693437427282
1761315071225051400,3.965051513671875,-0.005224322900176048,-0.025667013600468636,0.013132579624652863
1761315071235099600,3.975099609375,-0.010295514017343521,-0.023931432515382767,0.00893810112029314
1761315071245146600,3.985146728515625,-0.016988836228847504,-0.020772123709321022,-0.0007781756576150656
1761315071255194400,3.9951943359375,-0.019822174683213234,-0.01955905370414257,-0.019354788586497307
1761315071265242600,4.00524267578125,-0.021588116884231567,-0.013740845955908298,-0.03407488018274307
1761315071275290400,4.015290283203125,-0.02293381094932556,-0.004959604702889919,-0.03858281299471855
1761315071285338400,4.02533837890625,-0.018282335251569748,0.007182811852544546,-0.049256496131420135
1761315071295385600,4.035385498046875,-0.01835397258400917,0.0016439693281427026,-0.050687145441770554
1761315071305433600,4.04543359375,-0.01555552426725626,-0.010509099811315536,-0.05524194985628128
1761315071315481300,4.0554814453125,-0.016283897683024406,-0.01631399244070053,-0.05809126794338226
1761315071325529600,4.065529541015625,-0.018373681232333183,-0.02203153260052204,-0.05829659476876259
1761315071335576600,4.07557666015625,-0.01943095587193966,-0.018497517332434654,-0.05493515357375145
1761315071345624300,4.085624267578125,-0.014128602109849453,-0.008376174606382847,-0.0459618978202343
1761315071355672600,4.095672607421875,-0.016229037195444107,0.0036605149507522583,-0.036553218960762024
1761315071365720600,4.105720458984375,-0.009747968055307865,0.008112520910799503,-0.03056563250720501
1761315071375767600,4.115767578125,-0.0020013656467199326,-0.0019401127938181162,-0.025142638012766838
1761315071385815600,4.125815673828125,0.0075671058148145676,-0.012878780253231525,-0.015335546806454659
1761315071395863600,4.135863525390625,0.02052977681159973,-0.02581907995045185,-0.010016148909926414
1761315071405911600,4.14591162109375,0.021988922730088234,-0.039994820952415466,-0.01059378869831562
1761315071415959600,4.15595947265625,0.018213624134659767,-0.042273420840501785,-0.014189588837325573
1761315071426006500,4.166006591796875,0.015919044613838196,-0.03749624267220497,-0.020983312278985977
1761315071436054500,4.176054443359375,0.0064837317913770676,-0.03257552161812782,-0.026806846261024475
1761315071446102500,4.1861025390625,0.0013086773687973619,-0.033371273428201675,-0.031612787395715714
1761315071456150500,4.196150634765625,0.002975283656269312,-0.03135446086525917,-0.0314258337020874
1761315071466197500,4.206197509765625,0.000764593540225178,-0.038536738604307175,-0.030725954100489616
1761315071476245500,4.21624560546875,0.0010138654615730047,-0.05649976059794426,-0.02075854130089283
1761315071486293500,4.22629345703125,0.00018349179299548268,-0.053168147802352905,-0.001776594785042107
1761315071496341500,4.236341552734375,0.0013129384024068713,-0.0488160103559494,0.019213641062378883
1761315071506388500,4.246388427734375,0.002487925114110112,-0.06372012197971344,0.03387168049812317
1761315071516436500,4.2564365234375,0.007801996544003487,-0.0634588673710823,0.039862193167209625
1761315071526484500,4.266484375,0.018389126285910606,-0.05126025900244713,0.040956221520900726
1761315071536532500,4.276532470703125,0.016633039340376854,-0.03254569321870804,0.03634735569357872
1761315071546580500,4.28658056640625,0.004116448108106852,-0.02249971590936184,0.034701522439718246
1761315071556627500,4.29662744140625,-0.011228419840335846,-0.017945177853107452,0.025123462080955505
1761315071566675500,4.306675537109375,-0.025179654359817505,-0.007848601788282394,0.017735321074724197
1761315071576723500,4.316723388671875,-0.026693129912018776,0.010915231890976429,0.0005885586142539978
1761315071586771500,4.326771484375,-0.01128088403493166,0.023327160626649857,-0.018857045099139214
1761315071596818400,4.336818359375,0.0036306874826550484,0.015335014089941978,-0.02442012168467045
1761315071606866700,4.34686669921875,0.006859770510345697,0.015748869627714157,-0.021743111312389374
1761315071616914400,4.35691455078125,-0.0025566346012055874,0.010191118344664574,-0.023145532235503197
1761315071626962400,4.36696240234375,-0.012108860537409782,-0.004465854726731777,-0.024993499740958214
1761315071637009700,4.377009765625,-0.011320831254124641,-0.028664134442806244,-0.02141394466161728
1761315071647057400,4.387057373046875,-0.014769358560442924,-0.034743066877126694,-0.016584569588303566
1761315071657105400,4.39710546875,-0.019301259890198708,-0.032706547528505325,-0.010421215556561947
1761315071667153700,4.407153564453125,-0.01871643029153347,-0.03206392750144005,-0.005573729984462261
1761315071677200600,4.41720068359375,-0.014651114121079445,-0.02587900124490261,-0.005602225661277771
1761315071687248400,4.427248291015625,-0.0017776599852368236,-0.01071096770465374,-0.008961004205048084
1761315071697296600,4.437296630859375,0.017243435606360435,-0.0015427692560479045,-0.011563445441424847
1761315071707344600,4.4473447265625,0.02580949291586876,0.0011355718597769737,-0.014514227397739887
1761315071717392400,4.457392333984375,0.030604515224695206,0.008358597755432129,-0.010936803184449673
1761315071727439400,4.467439453125,0.022468291223049164,0.004848018288612366,0.0020037624053657055
1761315071737487600,4.477487548828125,0.015928899869322777,-0.0028189560398459435,0.023484820500016212
1761315071747535400,4.487535400390625,0.0036703685764223337,-0.004443750716745853,0.03863021731376648
1761315071757583600,4.49758349609375,-0.0011787151452153921,-0.015411979518830776,0.046669501811265945
1761315071767630600,4.507630615234375,0.005114600993692875,-0.03032142110168934,0.03470924496650696
1761315071777678600,4.5176787109375,0.01501410361379385,-0.03496970236301422,0.01471742708235979
1761315071787726300,4.527726318359375,0.024868598207831383,-0.029804766178131104,-0.0067849354818463326
1761315071797774600,4.537774658203125,0.029097165912389755,-0.02190343476831913,-0.028011128306388855
1761315071807821600,4.547821533203125,0.022345252335071564,-0.017963821068406105,-0.04092186689376831
1761315071817869300,4.557869384765625,0.014063620939850807,-0.009010805748403072,-0.03305089473724365
1761315071827917600,4.56791748046875,0.008506402373313904,0.0037262949626892805,-0.010645720176398754
1761315071837965600,4.577965576171875,0.005047755315899849,0.007843808270990849,0.009754626080393791
1761315071848012500,4.588012451171875,0.002906573936343193,0.000054328484111465514,0.025010278448462486
1761315071858060500,4.598060546875,0.009406285360455513,-0.0003944141499232501,0.03388392925262451
1761315071868108500,4.608108642578125,0.021085044369101524,0.0015153386630117893,0.041187651455402374
1761315071878156500,4.618156494140625,0.025684857740998268,0.004575843457132578,0.03889227285981178
1761315071888204500,4.62820458984375,0.020022710785269737,-0.001282045734114945,0.03061862848699093
1761315071898251500,4.63825146484375,0.014809572137892246,0.0010871023405343294,0.015588014386594296
1761315071908299500,4.648299560546875,0.01074159424751997,0.005011270288378,-0.0008146609761752188
1761315071918347500,4.658347412109375,0.012703810818493366,0.011378088966012001,-0.021269336342811584
1761315071928395500,4.6683955078125,0.014675615355372429,0.029386650770902634,-0.043530967086553574
1761315071938442500,4.6784423828125,0.011954663321375847,0.042761579155921936,-0.0736803486943245
1761315071948490500,4.688490478515625,0.00133877107873559,0.04872306436300278,-0.10152395814657211
1761315071958538500,4.69853857421875,-0.008410529233515263,0.06066121533513069,-0.1275816559791565
1761315071968586500,4.70858642578125,-0.014399978332221508,0.04959524795413017,-0.14602458477020264
1761315071978633500,4.718633544921875,-0.016378173604607582,0.029508357867598534,-0.1420556753873825
1761315071988681500,4.728681396484375,-0.016405871137976646,0.024881914258003235,-0.11392443627119064
1761315071998729500,4.7387294921875,-0.012920858338475227,0.017674067988991737,-0.06956815719604492
1761315072008777700,4.74877783203125,0.00012383698776829988,0.003944674041122198,-0.029705964028835297
1761315072018825500,4.758825439453125,0.013263074681162834,-0.01073786523193121,0.0057401773519814014
1761315072028872400,4.76887255859375,0.03598543256521225,-0.01679948717355728,0.02322755753993988
1761315072038920400,4.77892041015625,0.05096198245882988,-0.019945478066802025,0.033258888870477676
1761315072048968400,4.788968505859375,0.05620042234659195,-0.016166718676686287,0.0291214007884264
1761315072059016400,4.799016357421875,0.05698232725262642,-0.01722053252160549,0.011323494836688042
1761315072069063400,4.8090634765625,0.054720502346754074,-0.017472466453909874,-0.002174737397581339
1761315072079111700,4.819111572265625,0.05102616548538208,-0.016086824238300323,-0.004538825247436762
1761315072089159400,4.829159423828125,0.0453493706882,-0.012177304364740849,0.010004164651036263
1761315072099207400,4.83920751953125,0.03995940089225769,-0.00600409647449851,0.03329457342624664
1761315072109254700,4.849254638671875,0.03484213724732399,-0.0037087181117385626,0.05360117554664612
1761315072119302400,4.859302490234375,0.02617834135890007,-0.035723377019166946,0.06603308022022247
1761315072129350400,4.869350341796875,0.013630058616399765,-0.08393857628107071,0.06447060406208038
1761315072139398700,4.879398681640625,-0.0019856528379023075,-0.12170912325382233,0.06293661892414093
1761315072149445600,4.889445556640625,-0.007837949320673943,-0.13291144371032715,0.052018459886312485
1761315072159493600,4.89949365234375,-0.00951014831662178,-0.13893498480319977,0.04872998967766762
1761315072169541600,4.909541748046875,-0.010128534398972988,-0.14316168427467346,0.055629707872867584
1761315072179589600,4.919589599609375,-0.016658073291182518,-0.13991209864616394,0.06268548220396042
1761315072189636600,4.92963671875,-0.019154252484440804,-0.13824868202209473,0.0731825977563858
1761315072199684600,4.9396845703125,-0.025555428117513657,-0.1388007551431656,0.08401127904653549
1761315072209732600,4.949732666015625,-0.03370629623532295,-0.1146131306886673,0.10264994204044342
1761315072219780600,4.959780517578125,-0.043305929750204086,-0.06458671391010284,0.10572323203086853
1761315072229828600,4.96982861328125,-0.04856274276971817,-0.004209392238408327,0.09995909035205841
1761315072239875600,4.97987548828125,-0.04976063221693039,0.025020398199558258,0.0754910260438919
1761315072249923600,4.989923583984375,-0.05101551488041878,0.04021506384015083,0.04067472368478775
1761315072259971600,4.9999716796875,-0.05082722753286362,0.04614485800266266,0.005514874123036861
1761315072270019600,5.01001953125,-0.05272925645112991,0.03943023085594177,-0.028655080124735832
1761315072280066800,5.02006689453125,-0.05242379382252693,0.0255128163844347,-0.05223444104194641
1761315072290114600,5.030114501953125,-0.05365390703082085,0.0006500775925815105,-0.06956949084997177
1761315072300162600,5.04016259765625,-0.05125732719898224,-0.026146382093429565,-0.06495609879493713
1761315072310210800,5.0502109375,-0.05234762653708458,-0.040896035730838776,-0.04884876683354378
1761315072320257500,5.060257568359375,-0.05531278997659683,-0.04114291071891785,-0.027538683265447617
1761315072330305500,5.070305419921875,-0.05031536892056465,-0.03303784504532814,-0.012489693239331245
1761315072340353800,5.080353759765625,-0.04131974279880524,-0.028965871781110764,-0.008405469357967377
1761315072350401500,5.090401611328125,-0.018751051276922226,-0.01414378173649311,-0.016892964020371437
1761315072360448500,5.100448486328125,0.0009121326729655266,-0.00774793466553092,-0.036381177604198456
1761315072370496800,5.110496826171875,0.018855713307857513,-0.0036338833160698414,-0.0539868026971817
1761315072380544800,5.120544677734375,0.02406565472483635,0.002097239252179861,-0.06239306926727295
1761315072390592500,5.130592529296875,0.029171466827392578,0.011244931258261204,-0.07053488492965698
1761315072400639500,5.140639404296875,0.033488452434539795,0.03191718831658363,-0.07275303453207016
1761315072410687700,5.150687744140625,0.0416845977306366,0.06096747890114784,-0.06906961649656296
1761315072420735500,5.160735595703125,0.0554635263979435,0.07843968272209167,-0.06892526894807816
1761315072430783700,5.17078369140625,0.06867413222789764,0.07447769492864609,-0.06600937992334366
1761315072440830700,5.180830810546875,0.07686575502157211,0.04915156587958336,-0.06815162301063538
1761315072450878700,5.190878662109375,0.07916779071092606,0.04063477739691734,-0.06177574768662453
1761315072460926500,5.200926513671875,0.08399689942598343,0.028673456981778145,-0.050100717693567276
1761315072470974700,5.210974609375,0.07725217938423157,-0.00016644757124595344,-0.034145984798669815
1761315072481021700,5.221021728515625,0.06593747437000275,-0.027888355776667595,-0.010159692727029324
1761315072491069400,5.2310693359375,0.04945090785622597,-0.049246642738580704,0.01053493283689022
1761315072501117700,5.24111767578125,0.04033597186207771,-0.050390202552080154,0.03162823244929314
1761315072511165700,5.251165771484375,0.03526078537106514,-0.0334562286734581,0.045576538890600204
1761315072521213400,5.26121337890625,0.029205022379755974,-0.033184051513671875,0.0384477898478508
1761315072531260700,5.2712607421875,0.025671541690826416,-0.04874010756611824,0.014403972774744034
1761315072541308700,5.28130859375,0.022159097716212273,-0.05354312062263489,-0.0008543420699425042
1761315072551356700,5.291356689453125,0.01984853856265545,-0.04729108139872551,-0.012590359896421432
1761315072561404700,5.30140478515625,0.01335521973669529,-0.03460245206952095,-0.013686517253518105
1761315072571451600,5.31145166015625,0.005320463329553604,-0.011054514907300472,-0.007450193166732788
1761315072581499600,5.321499755859375,0.0033750240691006184,0.011988219805061817,0.0034141724463552237
1761315072591547600,5.331547607421875,-0.0011739213950932026,0.027585554867982864,0.006154565140604973
1761315072601595600,5.341595703125,-0.004240285139530897,0.036255475133657455,0.007273891940712929
1761315072611642600,5.351642578125,-0.005569468718022108,0.03609808161854744,0.0070674968883395195
1761315072621690600,5.361690673828125,-0.012373046018183231,0.020198479294776917,0.004914064891636372
1761315072631738600,5.371738525390625,-0.014843394979834557,-0.016803480684757233,0.0018064221367239952
1761315072641786600,5.38178662109375,-0.020830979570746422,-0.04219352453947067,-0.002579271560534835
1761315072651833600,5.39183349609375,-0.025046763941645622,-0.04689160734415054,-0.007871771231293678
1761315072661881600,5.401881591796875,-0.026511767879128456,-0.047450341284275055,-0.013972008600831032
1761315072671929600,5.4119296875,-0.02292049489915371,-0.034864772111177444,-0.014108628034591675
1761315072681977900,5.421977783203125,-0.0136612169444561,-0.008129033260047436,-0.004110589157789946
1761315072692024800,5.43202490234375,-0.003710582386702299,0.00030546457855962217,0.008132228627800941
1761315072702072600,5.442072509765625,0.008728510700166225,-0.006000900641083717,0.022534336894750595
1761315072712120600,5.45212060546875,0.01871643029153347,-0.008182828314602375,0.04310539364814758
1761315072722168600,5.46216845703125,0.01973828487098217,-0.009068862535059452,0.06602109223604202
1761315072732215600,5.472215576171875,0.015400527976453304,-0.002302569104358554,0.07853608578443527
1761315072742263600,5.482263671875,0.012859606184065342,0.004629106726497412,0.0861724317073822
1761315072752311800,5.492311767578125,0.015791213139891624,0.005637912079691887,0.07865646481513977
1761315072762359600,5.502359619140625,0.020307136699557304,-0.004461593925952911,0.06926269084215164
1761315072772406500,5.512406494140625,0.028569059446454048,-0.012121377512812614,0.06019196659326553
1761315072782454800,5.522454833984375,0.0329025574028492,-0.025791648775339127,0.051710598170757294
1761315072792502500,5.53250244140625,0.02960316650569439,-0.02870354987680912,0.044373590499162674
1761315072802550500,5.542550537109375,0.026225479319691658,-0.027362382039427757,0.04565110802650452
1761315072812598800,5.552598876953125,0.026076074689626694,-0.021404357627034187,0.04201829060912132
1761315072822645800,5.562645751953125,0.02117585949599743,-0.02056759223341942,0.039330363273620605
1761315072832693500,5.572693603515625,0.017360081896185875,-0.01961205154657364,0.03465624898672104
1761315072842741800,5.58274169921875,0.014229802414774895,-0.01733717881143093,0.03466476872563362
1761315072852789800,5.592789794921875,0.013700099661946297,-0.016229836270213127,0.03949015215039253
1761315072862836500,5.60283642578125,0.011948272585868835,-0.0015273229219019413,0.04476534202694893
1761315072872884700,5.612884765625,0.007814779877662659,0.009881659410893917,0.05644889548420906
1761315072882932700,5.6229326171875,-0.00040959418402053416,0.016454074531793594,0.053168945014476776
1761315072892980500,5.63298046875,-0.0027888622134923935,0.007026484236121178,0.03724217787384987
1761315072903027500,5.64302734375,-0.004910869058221579,-0.005244562868028879,0.01973695307970047
1761315072913075700,5.65307568359375,-0.006463225465267897,-0.003693005535751581,0.00401604687795043
1761315072923123700,5.663123779296875,-0.007436078507453203,0.008583367802202702,-0.0009643306257203221
1761315072933171700,5.673171630859375,-0.010159427300095558,0.016576314345002174,-0.004323908127844334
1761315072943218700,5.68321875,-0.0111621068790555,0.019226690754294395,-0.016170714050531387
1761315072953266700,5.6932666015625,-0.016576047986745834,0.019483420997858047,-0.01907116360962391
1761315072963314400,5.703314453125,-0.021797174587845802,0.014684404246509075,-0.024596156552433968
1761315072973359600,5.713359619140625,-0.026257969439029694,-0.003890611929818988,-0.02353435382246971
1761315072983406600,5.723406494140625,-0.024539165198802948,-0.00615296745672822,-0.015074823051691055
1761315072993454600,5.73345458984375,-0.025780463591217995,-0.0024951156228780746,-0.0013227921444922686
1761315073003502600,5.743502685546875,-0.02022058330476284,0.004832838196307421,0.009042763151228428
1761315073013550600,5.753550537109375,-0.01617683842778206,0.010588728822767735,0.01593822054564953
1761315073023597800,5.763597900390625,-0.009195095859467983,0.012193815782666206,0.010927482508122921
1761315073033645600,5.7736455078125,-0.007231547497212887,0.013548832386732101,0.00433029979467392
1761315073043693600,5.783693603515625,-0.010394584387540817,0.007171892561018467,-0.011680091731250286
1761315073053741600,5.793741455078125,-0.016709204763174057,0.0011315771844238043,-0.028607409447431564
1761315073063788500,5.80378857421875,-0.024464596062898636,0.011270497925579548,-0.03320375829935074
1761315073073836500,5.81383642578125,-0.029756564646959305,0.02069036476314068,-0.03182131424546242
1761315073083884800,5.823884765625,-0.025361016392707825,0.04507799446582794,-0.03512762859463692
1761315073093932500,5.8339326171875,-0.021018199622631073,0.06400828063488007,-0.023576965555548668
1761315073103979500,5.8439794921875,-0.016343552619218826,0.06896787881851196,-0.01882801577448845
1761315073114027800,5.85402783203125,-0.007799333427101374,0.05306375026702881,-0.008854744024574757
1761315073124075800,5.86407568359375,-0.00615110294893384,0.011635350994765759,-0.006931409239768982
1761315073134123500,5.87412353515625,-0.0008910936885513365,-0.02762044221162796,-0.003040797309949994
1761315073144170500,5.88417041015625,0.0019299928098917007,-0.04321218654513359,0.008964466862380505
1761315073154218800,5.89421875,0.002028529765084386,-0.04202574864029884,0.013884656131267548
1761315073164266800,5.904266845703125,0.0023489079903811216,-0.03948402777314186,0.010260893031954765
1761315073174314800,5.914314697265625,0.013484117574989796,-0.03449539095163345,0.0001328917423961684
1761315073184362800,5.92436279296875,0.020542824640870094,-0.03044499084353447,-0.012163455598056316
1761315073194409700,5.93440966796875,0.027181552723050117,-0.027342142537236214,-0.019103387370705605
1761315073204457700,5.944457763671875,0.02576315402984619,-0.013592774048447609,-0.015674300491809845
1761315073214505700,5.954505615234375,0.018398981541395187,0.0032924660481512547,-0.004677842371165752
1761315073224553700,5.9645537109375,0.012179967015981674,-0.00014434332842938602,0.0017630126094445586
1761315073234600700,5.9746005859375,0.006189985200762749,-0.00404534162953496,0.011949337087571621
1761315073244648700,5.984648681640625,0.0035369442775845528,-0.004520183429121971,0.021273862570524216
1761315073254697000,5.994697021484375,0.0038573225028812885,-0.01685195043683052,0.02279745787382126
1761315073264744700,6.00474462890625,0.014643125236034393,-0.030797060579061508,0.026808178052306175
1761315073274791700,6.014791748046875,0.02538684941828251,-0.04771026596426964,0.038309305906295776
1761315073284840000,6.02483984375,0.034515101462602615,-0.06595797836780548,0.041374072432518005
1761315073294887700,6.0348876953125,0.03573642671108246,-0.09587673097848892,0.02677302435040474
1761315073304935700,6.044935791015625,0.03904140740633011,-0.11872558295726776,0.006458698306232691
1761315073314982700,6.054982666015625,0.038546860218048096,-0.11853943020105362,-0.014402907341718674
1761315073325031000,6.065031005859375,0.029518477618694305,-0.09479229152202606,-0.028131769970059395
1761315073335078700,6.07507861328125,0.021397434175014496,-0.06095203384757042,-0.0426662378013134
1761315073345127000,6.085126953125,0.015982428565621376,-0.013628194108605385,-0.04488065466284752
1761315073355174000,6.095173828125,0.010448912158608437,0.032331839203834534,-0.03803952783346176
1761315073365221600,6.1052216796875,0.006687197368592024,0.058571167290210724,-0.03165513277053833
1761315073375269600,6.11526953125,0.003254382871091366,0.0697077065706253,-0.02719486877322197
1761315073385318000,6.12531787109375,0.000027696874894900247,0.06138746067881584,-0.019933493807911873
1761315073395364900,6.13536474609375,-0.004282096866518259,0.03489193692803383,-0.01386787835508585
1761315073405412600,6.14541259765625,-0.007646201644092798,0.010071808472275734,-0.0011092065833508968
1761315073415460900,6.1554609375,-0.012708071619272232,-0.005752161610871553,0.014134993776679039
1761315073425508900,6.1655087890625,-0.013741112314164639,-0.01865144819021225,0.020422184839844704
1761315073435555600,6.1755556640625,-0.014083595015108585,-0.030131271108984947,0.021698370575904846
1761315073445603800,6.185603759765625,-0.019524699077010155,-0.029566947370767593,0.015201057307422161
1761315073455651800,6.19565185546875,-0.023689616471529007,-0.012116583995521069,0.009042230434715748
1761315073465699600,6.205699462890625,-0.02401825040578842,0.009946640580892563,0.0021470405627042055
1761315073475746800,6.215746826171875,-0.020185429602861404,0.009870207868516445,0.0010988202411681414
1761315073485794800,6.225794921875,-0.02004081942141056,0.014279336668550968,0.006047772243618965
1761315073495842800,6.2358427734375,-0.021584387868642807,0.026387665420770645,0.010777014307677746
1761315073505890800,6.245890869140625,-0.024930384010076523,0.03322160243988037,0.009941314347088337
1761315073515937800,6.255937744140625,-0.02616981789469719,0.040706951171159744,-0.004771585576236248
1761315073525985800,6.26598583984375,-0.02454821951687336,0.05727500841021538,-0.01792600378394127
1761315073536033800,6.27603369140625,-0.021227257326245308,0.055819589644670486,-0.03857215866446495
1761315073546081800,6.286081787109375,-0.013685451820492744,0.03470498323440552,-0.05464380234479904
1761315073556128800,6.296128662109375,-0.0036991306114941835,0.01890578120946884,-0.05198011174798012
1761315073566176800,6.3061767578125,0.005905027035623789,0.0028812738601118326,-0.03777267783880234
1761315073576227600,6.3162275390625,0.015856727957725525,0.001023186487145722,-0.015122760087251663
1761315073586275800,6.32627587890625,0.026267290115356445,0.009761550463736057,0.014584003016352654
1761315073596322800,6.33632275390625,0.03157736733555794,0.0012578109744936228,0.02053030952811241
1761315073606370600,6.34637060546875,0.036144156008958817,-0.0324290469288826,0.013098224997520447
1761315073616418800,6.356418701171875,0.03817295283079147,-0.07377728819847107,-0.009196161292493343
1761315073626466800,6.366466796875,0.04308382049202919,-0.08871947973966599,-0.02425207570195198
1761315073636513800,6.376513671875,0.03743898496031761,-0.07959922403097153,-0.031033549457788467
1761315073646561800,6.386561767578125,0.027845479547977448,-0.052616607397794724,-0.03923235833644867
1761315073656609800,6.39660986328125,0.023240873590111732,-0.01859072782099247,-0.0546930730342865
1761315073666657800,6.40665771484375,0.02816292829811573,-0.00902891531586647,-0.070804663002491
1761315073676704800,6.416704833984375,0.03393959254026413,0.032766733318567276,-0.08385415375232697
1761315073686752800,6.426752685546875,0.051172640174627304,0.06961316615343094,-0.09385219216346741
1761315073696800800,6.43680078125,0.06513053178787231,0.06119757890701294,-0.09036079049110413
1761315073706848800,6.446848876953125,0.06845389306545258,0.025623071938753128,-0.06569219380617142
1761315073716895700,6.456895751953125,0.06474784016609192,0.010552243329584599,-0.02287335693836212
1761315073726943700,6.46694384765625,0.06198480725288391,0.014549381099641323,0.017604293301701546
1761315073736991700,6.47699169921875,0.054783888161182404,-0.01034504920244217,0.04875768721103668
1761315073747039700,6.487039794921875,0.051053594797849655,-0.03750263527035713,0.06294567883014679
1761315073757086700,6.497086669921875,0.04580051079392433,-0.06108332797884941,0.05281661078333855
1761315073767134700,6.507134765625,0.04546921327710152,-0.07029812783002853,0.029273999854922295
1761315073777182700,6.5171826171875,0.04107845947146416,-0.054667770862579346,-0.0009448895580135286
1761315073787229700,6.527229736328125,0.03766002878546715,-0.035885561257600784,-0.026762371882796288
1761315073797277700,6.537277587890625,0.025559954345226288,-0.02454928494989872,-0.038709044456481934
1761315073807326000,6.547325927734375,0.000857005245052278,-0.012346681207418442,-0.03235341235995293
1761315073817373700,6.557373779296875,-0.015163240022957325,-0.006892260629683733,-0.025180453434586525
1761315073827421700,6.567421630859375,-0.01660880446434021,-0.0034844798501580954,-0.018640263006091118
1761315073837469000,6.577468994140625,-0.0030866037122905254,-0.01882801577448845,-0.006975085008889437
1761315073847516700,6.5875166015625,0.005101817660033703,-0.046790141612291336,0.013011938892304897
1761315073857564700,6.597564697265625,0.005818474106490612,-0.061705972999334335,0.0300188846886158
1761315073867613000,6.607613037109375,0.008417985402047634,-0.05329704284667969,0.04168672487139702
1761315073877660000,6.617659912109375,0.015779228881001472,-0.041856102645397186,0.03663124889135361
1761315073887707600,6.627707763671875,0.023482955992221832,-0.04959338530898094,0.019652530550956726
1761315073897756000,6.637755859375,0.02280890941619873,-0.04754994064569473,-0.004285558592528105
1761315073907803000,6.647802978515625,0.011596201919019222,-0.021206751465797424,-0.013001552782952785
1761315073917850600,6.6578505859375,-0.005085039883852005,0.010062221437692642,-0.004024835303425789
1761315073927898600,6.667898681640625,-0.02936081774532795,0.02130874991416931,0.014549913816154003
1761315073937947000,6.67794677734375,-0.05453008785843849,-0.003698864486068487,0.026558905839920044
1761315073947993900,6.687993896484375,-0.05281501263380051,-0.03978203237056732,0.03044099546968937
1761315073958041600,6.69804150390625,-0.03145246580243111,-0.04087978973984718,0.019456256181001663
1761315073968089900,6.70808984375,0.0008839031797833741,-0.033134251832962036,0.014200774021446705
1761315073978137900,6.718137939453125,-0.003665574826300144,0.009403089061379433,0.03260854259133339
1761315073988184600,6.7281845703125,-0.031084949150681496,0.059296879917383194,0.07291814684867859
1761315073998232800,6.73823291015625,-0.05089380592107773,0.08267331123352051,0.10040383785963058
1761315074008280800,6.74828076171875,-0.049861565232276917,0.105453722178936,0.11381231993436813
1761315074018328600,6.75832861328125,-0.03165460005402565,0.12709642946720123,0.11211668699979782
1761315074028375800,6.768375732421875,-0.007951400242745876,0.13206802308559418,0.08915410935878754
1761315074038423800,6.778423828125,0.013571735471487045,0.12392780184745789,0.05464167520403862
1761315074048471800,6.788471923828125,0.031209317967295647,0.10248163342475891,0.016622386872768402
1761315074058519800,6.798519775390625,0.03792527690529823,0.06217309460043907,-0.02948305755853653
1761315074068566800,6.80856689453125,0.03591139614582062,0.01756834052503109,-0.059055596590042114
1761315074078614800,6.81861474609375,0.02623693086206913,0.005374258849769831,-0.06616943329572678
1761315074088662800,6.828662841796875,0.014619954861700535,0.0028184233233332634,-0.05101524665951729
1761315074098710800,6.838710693359375,0.005923136603087187,-0.027776503935456276,-0.037346307188272476
1761315074108757800,6.8487578125,0.0023212111555039883,-0.07511818408966064,-0.02407044917345047
1761315074118805800,6.8588056640625,0.01121883187443018,-0.10276499390602112,-0.010212424211204052
1761315074128853800,6.868853759765625,0.023927969858050346,-0.10581644624471664,0.003346794517710805
1761315074138901800,6.87890185546875,0.028609806671738625,-0.09795106202363968,0.01255041267722845
1761315074148948700,6.88894873046875,0.02858184278011322,-0.09447510540485382,0.0010197244118899107
1761315074159001000,6.8990009765625,0.030417826026678085,-0.08533354103565216,-0.021081317216157913
1761315074169049300,6.90904931640625,0.03886137902736664,-0.062067367136478424,-0.04759574681520462
1761315074179097000,6.91909716796875,0.049303632229566574,-0.033906567841768265,-0.07592805474996567
1761315074189144000,6.92914404296875,0.05008687078952789,-0.025904035195708275,-0.09593265503644943
1761315074199192300,6.9391923828125,0.05112922936677933,-0.03273690864443779,-0.10100384801626205
1761315074209240300,6.949240234375,0.047566186636686325,-0.025431323796510696,-0.09941740334033966
1761315074219288000,6.9592880859375,0.03953515738248825,-0.02437777817249298,-0.0894198939204216
1761315074229335000,6.9693349609375,0.03598170354962349,-0.034654650837183,-0.07551579922437668
1761315074239383300,6.97938330078125,0.029211414977908134,-0.06983554363250732,-0.055874183773994446
1761315074249431000,6.98943115234375,0.022552713751792908,-0.10533015429973602,-0.024899223819375038
1761315074259479300,6.999479248046875,0.022660305723547935,-0.12573981285095215,-0.0008303736103698611
1761315074269526300,7.0095263671875,0.03575560078024864,-0.10692112147808075,0.013942447490990162
1761315074279574300,7.01957421875,0.048040762543678284,-0.06456008553504944,0.011330152861773968
1761315074289622000,7.0296220703125,0.06797318905591965,-0.023781228810548782,-0.010083526372909546
1761315074299670300,7.039670166015625,0.08876208961009979,-0.0017888452857732773,-0.04357543960213661
1761315074309717200,7.04971728515625,0.10522016137838364,0.007361776195466518,-0.07291948050260544
1761315074319765000,7.059764892578125,0.12311048060655594,-0.035889558494091034,-0.09121806174516678
1761315074329813200,7.069813232421875,0.12088940292596817,-0.07742474973201752,-0.08673915266990662
1761315074339861200,7.079861328125,0.11052145063877106,-0.0950508788228035,-0.05501451715826988
1761315074349908200,7.089908203125,0.09553904086351395,-0.10620979219675064,-0.007043794728815556
1761315074359956200,7.099956298828125,0.08526322990655899,-0.10972782969474792,0.036787308752536774
1761315074370004200,7.110004150390625,0.07877843827009201,-0.10159879922866821,0.07423268258571625
1761315074380052000,7.120052001953125,0.07469474524259567,-0.08232949674129486,0.08489412069320679
1761315074390099200,7.13009912109375,0.07509634643793106,-0.07077377289533615,0.07262307405471802
1761315074400147200,7.140147216796875,0.07260629534721375,-0.07882903516292572,0.047635164111852646
1761315074410195200,7.1501953125,0.066898874938488,-0.08715087920427322,0.02568751946091652
1761315074420243200,7.1602431640625,0.060988519340753555,-0.08741959184408188,0.01446735579520464
1761315074430290200,7.170290283203125,0.04887726157903671,-0.07729212194681168,0.004286357667297125
1761315074440338200,7.180338134765625,0.035539351403713226,-0.06827706098556519,0.005179315805435181
1761315074450386200,7.19038623046875,0.02161315083503723,-0.04694274067878723,0.0019206717843189836
1761315074460434200,7.20043408203125,0.006839263718575239,-0.015476960688829422,-0.0059907808899879456
1761315074470481200,7.210481201171875,-0.006771087180823088,0.029774939641356468,-0.014147510752081871
1761315074480529200,7.220529052734375,-0.028790369629859924,0.04856966808438301,-0.01810656487941742
1761315074490577200,7.2305771484375,-0.05004985257983208,0.00845367182046175,-0.017485249787569046
1761315074500625200,7.240625244140625,-0.06606689840555191,-0.023960726335644722,-0.017251158133149147
1761315074510672100,7.250672119140625,-0.05603610351681709,-0.010914699174463749,-0.014346448704600334
1761315074520720100,7.26072021484375,-0.04176795110106468,0.024160197004675865,0.00021971078240312636
1761315074530768100,7.27076806640625,-0.04249579459428787,0.05426403880119324,0.0309310182929039
1761315074540815000,7.280815185546875,-0.04659013822674751,0.06593134254217148,0.06608793884515762
1761315074550863400,7.29086328125,-0.05344857648015022,0.07025045901536942,0.07909082621335983
1761315074560911000,7.3009111328125,-0.03844725713133812,0.0756755843758583,0.0560787171125412
1761315074570959000,7.310958984375,0.0016141419764608145,0.08232416957616806,0.014327806420624256
1761315074581006300,7.32100634765625,0.040766604244709015,0.0787627249956131,-0.022273879498243332
1761315074591054000,7.33105419921875,0.06374356150627136,0.07118017226457596,-0.024541562423110008
1761315074601102000,7.34110205078125,0.056182313710451126,0.06364502012729645,0.004989698529243469
1761315074611150300,7.351150390625,0.03770849481225014,0.04687030240893364,0.030047914013266563
1761315074621197300,7.361197265625,0.03960439935326576,0.026812173426151276,0.03804352134466171
1761315074631245000,7.3712451171875,0.061161890625953674,0.01420610025525093,0.026805248111486435
1761315074641293300,7.381293212890625,0.08085276931524277,0.0023499734234064817,0.009059274569153786
1761315074651341300,7.39134130859375,0.0828930214047432,-0.016439959406852722,-0.004234426189213991
1761315074661388000,7.401387939453125,0.07911452651023865,-0.021928468719124794,-0.008196410723030567
1761315074671436000,7.41143603515625,0.0715080052614212,-0.009242500178515911,0.0013941648649051785
1761315074681484300,7.421484375,0.0703175738453865,0.013771738857030869,0.015663914382457733
1761315074691532000,7.431531982421875,0.07425825297832489,0.029455093666911125,0.02106587029993534
1761315074701579000,7.4415791015625,0.07772435247898102,0.024958878755569458,0.022008895874023438
1761315074711627300,7.451627197265625,0.06902860105037689,0.017603760585188866,0.006947388406842947
1761315074721675300,7.46167529296875,0.058709386736154556,-0.0012942962348461151,-0.011985023505985737
1761315074731723000,7.471722900390625,0.04826020821928978,-0.014302772469818592,-0.024288028478622437
1761315074741770200,7.481770263671875,0.036432042717933655,-0.00520701240748167,-0.025970347225666046
1761315074751818200,7.491818359375,0.027579164132475853,0.02215483784675598,-0.023129820823669434
1761315074761866000,7.501865966796875,0.015382152050733566,0.03587917238473892,-0.026506176218390465
1761315074771914200,7.511914306640625,0.003977697342634201,0.028550151735544205,-0.03503681346774101
1761315074781961200,7.521961181640625,-0.004962267819792032,0.030823426321148872,-0.03263410925865173
1761315074792009200,7.53200927734375,-0.02321450784802437,0.03369458019733429,-0.02696583792567253
1761315074802057200,7.54205712890625,-0.037097565829753876,0.03133635222911835,-0.024507207795977592
1761315074812105200,7.552105224609375,-0.03368605673313141,0.03892023488879204,-0.019991816952824593
1761315074822152200,7.562152099609375,-0.030360568314790726,0.03710875287652016,-0.016871923580765724
1761315074832200200,7.5722001953125,-0.03413746505975723,0.0350852832198143,-0.02298014983534813
1761315074842248200,7.582248291015625,-0.033192042261362076,0.09762322902679443,0.022418756037950516
1761315074852295200,7.592295166015625,-0.06389109790325165,0.1309870481491089,0.09829168021678925
1761315074862343200,7.60234326171875,-0.08219820261001587,0.03931305184960365,0.13601908087730408
1761315074872391200,7.61239111328125,-0.054845936596393585,-0.08631358295679092,0.161762535572052
1761315074882439200,7.622439208984375,-0.0008253136184066534,-0.15831559896469116,0.1710018366575241
1761315074892486100,7.632486083984375,0.030168022960424423,-0.14106418192386627,0.1455976814031601
1761315074902534100,7.6425341796875,0.04571369290351868,-0.058758921921253204,0.07724098861217499
1761315074912582100,7.65258203125,0.04579624906182289,0.04307955875992775,-0.006135923322290182
1761315074922630100,7.662630126953125,0.04061879962682724,0.14367221295833588,-0.0858675017952919
1761315074932677400,7.672677490234375,0.029172532260417938,0.2079492062330246,-0.15179511904716492
1761315074942725000,7.68272509765625,-0.003689010627567768,0.204032763838768,-0.17529511451721191
1761315074952773000,7.692773193359375,-0.01341647282242775,0.14932769536972046,-0.14063221216201782
