time,seconds_elapsed,z,y,x
1761333904547459300,0.054459228515625,0,0,0
1761333904566159600,0.07315966796875,0.0885305404663086,-0.028292417526245117,0.059874534606933594
1761333904584860000,0.09185986328125,0.2474651336669922,-0.08332562446594238,0.18082022666931152
1761333904603560200,0.110560302734375,0.03586578369140625,-0.004488945007324219,0.04050475358963013
1761333904622260500,0.129260498046875,0.05852031707763672,0.06706094741821289,0.14318609237670898
1761333904640961000,0.1479609375,-0.21457672119140625,0.043463945388793945,0.23552203178405762
1761333904659661300,0.166661376953125,-0.6611661911010742,0.08324933052062988,0.10749614238739014
1761333904678361600,0.185361572265625,-0.6903200149536133,0.027336835861206055,0.09367811679840088
1761333904697062000,0.204061767578125,-0.5662708282470703,-0.022933006286621094,0.06426823139190674
1761333904715762200,0.22276220703125,-0.44532203674316406,-0.008569002151489258,-0.17804288864135742
1761333904734462700,0.241462646484375,-0.14409255981445312,-0.05267953872680664,-0.3552950620651245
1761333904753163000,0.2601630859375,0.25288963317871094,-0.14157867431640625,-0.3792036771774292
1761333904771863300,0.27886328125,0.45949459075927734,-0.13583159446716309,-0.5852068662643433
1761333904790563800,0.297563720703125,0.3233489990234375,-0.08803606033325195,-0.6816943883895874
1761333904809264000,0.31626416015625,0.1948833465576172,-0.04261350631713867,-0.8301910758018494
1761333904827964400,0.33496435546875,0.14060592651367188,-0.046422719955444336,-0.6281455159187317
1761333904846664700,0.353664794921875,0.15098857879638672,-0.002101421356201172,-0.5381401777267456
1761333904865365000,0.372364990234375,0.3462638854980469,-0.005072832107543945,-0.40208113193511963
1761333904884065300,0.391065185546875,0.5000219345092773,-0.05256795883178711,-0.309967041015625
1761333904902765800,0.409765869140625,0.4728670120239258,-0.04620194435119629,-0.2114872932434082
1761333904921466000,0.428466064453125,0.3818817138671875,-0.03214287757873535,-0.07895040512084961
1761333904940166400,0.44716650390625,0.10608482360839844,-0.02231574058532715,-0.06362015008926392
1761333904958867000,0.465866943359375,-0.25713443756103516,0.027796268463134766,-0.1784501075744629
1761333904977567200,0.484567138671875,-0.29467105865478516,-0.02192234992980957,-0.16269037127494812
1761333904996267500,0.503267578125,-0.06649494171142578,-0.14326143264770508,-0.02211242914199829
1761333905014967800,0.5219677734375,-0.0949716567993164,-0.15201759338378906,-0.09854117035865784
1761333905033668000,0.540668212890625,-0.2111339569091797,-0.11597919464111328,-0.2434818148612976
1761333905052368600,0.55936865234375,-0.19768047332763672,-0.06093430519104004,-0.2681750953197479
1761333905071069000,0.57806884765625,-0.0013561248779296875,-0.03280162811279297,-0.1910991370677948
1761333905089769200,0.596769287109375,0.15567302703857422,0.03248906135559082,-0.10240226984024048
1761333905108469500,0.615469482421875,0.22797298431396484,0.024549007415771484,-0.11341264843940735
1761333905127170000,0.634170166015625,0.054332733154296875,0.06783485412597656,-0.2642669677734375
1761333905145870300,0.652870361328125,-0.1764230728149414,0.06236577033996582,-0.33587008714675903
1761333905164570600,0.671570556640625,-0.29708194732666016,0.035137176513671875,-0.3802320063114166
1761333905183271000,0.69027099609375,-0.16608238220214844,0.023477792739868164,-0.33454933762550354
1761333905201971200,0.70897119140625,-0.08200836181640625,0.006852388381958008,-0.265533447265625
1761333905220671700,0.727671630859375,0.09102344512939453,-0.001706838607788086,-0.2331557720899582
1761333905239372000,0.7463720703125,0.2689800262451172,-0.10555672645568848,-0.16977882385253906
1761333905258072300,0.765072265625,0.44139575958251953,-0.14869904518127441,-0.015332609415054321
1761333905276772600,0.783772705078125,0.49964141845703125,-0.10495758056640625,0.13288813829421997
1761333905295473200,0.80247314453125,0.4809122085571289,-0.08427262306213379,0.21259504556655884
1761333905314173400,0.82117333984375,0.2002706527709961,0.04232454299926758,0.17445158958435059
1761333905332873700,0.839873779296875,-0.16874980926513672,0.09837603569030762,0.11624687910079956
1761333905351574000,0.858573974609375,-0.3959798812866211,0.18991541862487793,0.02395099401473999
1761333905370274600,0.877274658203125,-0.3776578903198242,0.12266921997070312,-0.029058247804641724
1761333905388974800,0.895974853515625,-0.2775735855102539,0.08423185348510742,-0.12194466590881348
1761333905407675100,0.914675048828125,-0.223541259765625,0.012525081634521484,-0.2520923614501953
1761333905426375400,0.93337548828125,-0.11301803588867188,-0.08416914939880371,-0.317476361989975
1761333905445076000,0.952075927734375,0.011452674865722656,-0.09300422668457031,-0.33438605070114136
1761333905463776300,0.9707763671875,0.048523902893066406,-0.0539250373840332,-0.3117356598377228
1761333905482476500,0.9894765625,0.17062759399414062,-0.04623723030090332,-0.22056695818901062
1761333905501176800,1.0081767578125,0.3730287551879883,-0.011061668395996094,-0.19281883537769318
1761333905519877400,1.02687744140625,0.42060375213623047,-0.014477729797363281,-0.1307978332042694
1761333905538577700,1.04557763671875,0.2699756622314453,0.05835556983947754,-0.1314566433429718
1761333905557278000,1.06427783203125,0.01316070556640625,0.09442949295043945,-0.10473364591598511
1761333905575978200,1.082978271484375,-0.17016124725341797,0.15067172050476074,-0.18456310033798218
1761333905594678800,1.1016787109375,-0.18722820281982422,0.08115220069885254,-0.17444129288196564
1761333905613379000,1.120379150390625,-0.04536724090576172,0.015611410140991211,-0.11197388172149658
1761333905632079400,1.139079345703125,0.13113117218017578,-0.05072617530822754,-0.062240779399871826
1761333905650779600,1.157779541015625,0.21592140197753906,-0.09932422637939453,-0.04483121633529663
1761333905669480200,1.176480224609375,0.1263103485107422,-0.11314201354980469,-0.1083880066871643
1761333905688180500,1.195180419921875,-0.018123626708984375,-0.14614176750183105,-0.17135290801525116
1761333905706880800,1.213880859375,-0.083221435546875,-0.17992472648620605,-0.14934313297271729
1761333905725581000,1.2325810546875,-0.025417327880859375,-0.1818103790283203,-0.08505536615848541
1761333905744281600,1.251281494140625,0.07363510131835938,-0.1569972038269043,0.04035136103630066
1761333905762982000,1.26998193359375,0.06461811065673828,-0.03816103935241699,0.004999279975891113
1761333905781682200,1.28868212890625,-0.07666206359863281,-0.02262401580810547,0.014478713274002075
1761333905800382500,1.307382568359375,-0.19739055633544922,0.0177004337310791,-0.022713035345077515
1761333905819083000,1.3260830078125,-0.2582435607910156,0.005064487457275391,-0.0439169704914093
1761333905837783300,1.344783203125,-0.1857900619506836,-0.027798175811767578,-0.003754645586013794
1761333905856483600,1.363483642578125,0.04996490478515625,-0.015439987182617188,0.05803018808364868
1761333905875184000,1.38218408203125,0.26374244689941406,-0.07755255699157715,0.10652518272399902
1761333905893884400,1.400884521484375,0.29432010650634766,-0.017828702926635742,0.10956799983978271
1761333905912584700,1.419584716796875,0.07763004302978516,-0.0267789363861084,0.032645344734191895
1761333905931285000,1.438284912109375,-0.08991527557373047,-0.0091552734375,-0.05530416965484619
1761333905949985300,1.4569853515625,-0.14084625244140625,-0.06765484809875488,-0.0014028549194335938
1761333905968685800,1.475685791015625,-0.06695175170898438,-0.0768284797668457,-0.025289177894592285
1761333905987386000,1.49438623046875,-0.06580734252929688,-0.14978265762329102,-0.006052225828170776
1761333906006086400,1.51308642578125,-0.09803581237792969,-0.10099554061889648,-0.01401674747467041
1761333906024787000,1.531786865234375,-0.07778549194335938,-0.06272530555725098,-0.02040576934814453
1761333906043487200,1.5504873046875,0.037217140197753906,-0.046842098236083984,-0.017667442560195923
1761333906062187500,1.5691875,0.05047607421875,0.01832127571105957,0.04472851753234863
1761333906080887800,1.5878876953125,0.02367115020751953,0.0978999137878418,0.015177875757217407
1761333906099588400,1.60658837890625,0.10053443908691406,0.08220171928405762,-0.00800672173500061
1761333906118288600,1.62528857421875,0.3970508575439453,-0.06212210655212402,0.03905478119850159
1761333906136989000,1.643989013671875,0.4496192932128906,-0.05221700668334961,-0.008606106042861938
1761333906155689500,1.662689453125,0.171234130859375,0.024626493453979492,-0.06546252965927124
1761333906174389800,1.6813896484375,-0.10014629364013672,-0.02408576011657715,-0.00721403956413269
1761333906193090000,1.700090087890625,-0.22884464263916016,-0.05397176742553711,0.019804179668426514
1761333906211790300,1.718790283203125,-0.3400869369506836,0.05130505561828613,-0.0914435088634491
1761333906230491000,1.737490966796875,-0.3764486312866211,0.09454727172851562,-0.2282436192035675
1761333906249191200,1.756191162109375,-0.19838809967041016,0.13632464408874512,-0.2842392027378082
1761333906267891500,1.774891357421875,0.17435550689697266,0.08205771446228027,-0.20391744375228882
1761333906286591700,1.793591796875,0.5078420639038086,0.0027883052825927734,-0.06528675556182861
1761333906305292000,1.8122919921875,0.7413845062255859,-0.05939650535583496,0.047372281551361084
1761333906323992600,1.83099267578125,0.6245870590209961,-0.1176755428314209,0.08798420429229736
1761333906342692900,1.84969287109375,0.2877998352050781,-0.09309005737304688,0.07585987448692322
1761333906361393400,1.868393310546875,-0.16799354553222656,-0.053130388259887695,0.020749926567077637
1761333906380093700,1.88709375,-0.5535593032836914,-0.03908658027648926,0.10004907846450806
1761333906398794000,1.9057939453125,-0.6841764450073242,-0.0016522407531738281,0.049811989068984985
1761333906417494300,1.924494384765625,-0.6011629104614258,-0.006499052047729492,0.1131598949432373
1761333906436194600,1.943194580078125,-0.44673919677734375,0.08241701126098633,0.0713898241519928
1761333906454895000,1.96189501953125,-0.045589447021484375,-0.0030786991119384766,0.1840662956237793
1761333906473595400,1.980595458984375,0.2792177200317383,0.022354602813720703,0.16160491108894348
1761333906492295700,1.999295654296875,0.30117321014404297,0.03541970252990723,0.04050922393798828
1761333906510996200,2.017996337890625,0.2136096954345703,0.0021293163299560547,-0.14114075899124146
1761333906529696500,2.036696533203125,0.19225215911865234,-0.05811953544616699,-0.22967489063739777
1761333906548396800,2.055396728515625,0.14435386657714844,-0.14681577682495117,-0.208605095744133
1761333906567097300,2.074097412109375,0.0526123046875,-0.10011172294616699,-0.27097392082214355
1761333906585797600,2.092797607421875,-0.09446144104003906,-0.11513113975524902,-0.09514868259429932
1761333906604498000,2.111497802734375,-0.0717172622680664,-0.09356021881103516,0.16836273670196533
1761333906623198200,2.1301982421875,-0.1114950180053711,-0.014029741287231445,0.3384750485420227
1761333906641898800,2.148898681640625,-0.3645439147949219,0.14239907264709473,0.15225067734718323
1761333906660599000,2.16759912109375,-0.49863433837890625,0.291546106338501,-0.061188459396362305
1761333906679299300,2.18629931640625,-0.30108642578125,0.3527414798736572,-0.14700037240982056
1761333906698000000,2.204999755859375,0.08963966369628906,0.27979207038879395,-0.19885343313217163
1761333906716700200,2.2237001953125,0.5578575134277344,0.0980074405670166,-0.1329030990600586
1761333906735400400,2.242400390625,0.8168020248413086,-0.03537869453430176,-0.003217726945877075
1761333906754100700,2.261100830078125,0.7499237060546875,-0.13484716415405273,-0.0031768977642059326
1761333906772801300,2.27980126953125,0.3547849655151367,-0.07455062866210938,-0.008574604988098145
1761333906791501600,2.29850146484375,-0.16850757598876953,-0.0054242610931396484,-0.057827115058898926
1761333906810201900,2.317201904296875,-0.5141735076904297,0.04453158378601074,-0.014338463544845581
1761333906828902100,2.335902099609375,-0.6083469390869141,0.023284912109375,0.13701197504997253
1761333906847602700,2.354602783203125,-0.47298526763916016,0.04739737510681152,0.20041730999946594
1761333906866303700,2.3733037109375,-0.2549934387207031,0.02306389808654785,0.28061896562576294
1761333906885003500,2.39200341796875,-0.14327526092529297,-0.023641347885131836,0.23909372091293335
1761333906903703800,2.410703857421875,-0.033288002014160156,0.009035587310791016,0.01903417706489563
1761333906922404000,2.429404052734375,0.08233642578125,-0.006728172302246094,-0.19882732629776
1761333906941104400,2.4481044921875,0.37883949279785156,-0.05004477500915527,-0.33741819858551025
1761333906959805000,2.466804931640625,0.5950107574462891,-0.1658792495727539,-0.3442947268486023
1761333906978505200,2.485505126953125,0.4772014617919922,-0.17628979682922363,-0.28845688700675964
1761333906997205500,2.50420556640625,0.2120342254638672,-0.14030981063842773,-0.2614746391773224
1761333907015905800,2.52290576171875,-0.05549430847167969,-0.16492056846618652,-0.1069069504737854
1761333907034606300,2.5416064453125,-0.24486923217773438,-0.11998605728149414,-0.038539886474609375
1761333907053306600,2.560306640625,-0.36417579650878906,-0.10045528411865234,0.10498836636543274
1761333907072007200,2.579007080078125,-0.37833595275878906,-0.006608009338378906,0.20396611094474792
1761333907090707500,2.59770751953125,-0.21833229064941406,0.0173947811126709,0.2626132667064667
1761333907109407700,2.61640771484375,-0.07179832458496094,0.04256772994995117,0.43996259570121765
1761333907128108000,2.63510791015625,-0.07036113739013672,0.10917997360229492,0.320711612701416
1761333907146808600,2.65380859375,-0.07373714447021484,0.07309246063232422,0.19717592000961304
1761333907165508900,2.6725087890625,-0.023805618286132812,0.035459041595458984,0.012380361557006836
1761333907184209200,2.691209228515625,0.08512306213378906,-0.018364906311035156,-0.08473223447799683
1761333907202909400,2.709909423828125,0.09737014770507812,-0.012365579605102539,-0.15971150994300842
1761333907221610000,2.72860986328125,0.011713027954101562,-0.025411367416381836,-0.2170863151550293
1761333907240310300,2.747310302734375,0.022553443908691406,-0.050881147384643555,-0.27592408657073975
1761333907259010800,2.7660107421875,0.11250972747802734,-0.0665125846862793,-0.19443142414093018
1761333907277711000,2.784711181640625,0.21341323852539062,-0.10586023330688477,-0.031145483255386353
1761333907296411400,2.803411376953125,0.18380451202392578,0.005990743637084961,-0.05555400252342224
1761333907315111700,2.822111572265625,0.05317497253417969,0.07226037979125977,0.004404604434967041
1761333907333812200,2.840812255859375,-0.1568279266357422,0.06448554992675781,0.14182528853416443
1761333907352512500,2.859512451171875,-0.2515268325805664,0.01605820655822754,0.03667205572128296
1761333907371212800,2.878212890625,-0.1277141571044922,-0.02989983558654785,-0.08095106482505798
1761333907389913300,2.896913330078125,0.0060749053955078125,-0.0269925594329834,-0.045954763889312744
1761333907408613600,2.915613525390625,0.06304931640625,0.012675046920776367,0.01821458339691162
1761333907427314000,2.93431396484375,0.11653709411621094,0.07169651985168457,-0.013306796550750732
1761333907446014500,2.953014404296875,0.026580810546875,0.08129596710205078,-0.051348209381103516
1761333907464714800,2.97171484375,-0.1066446304321289,0.11637616157531738,-0.10843217372894287
1761333907483415000,2.9904150390625,-0.1310873031616211,0.08221435546875,-0.049845218658447266
1761333907502115600,3.009115478515625,0.07068538665771484,0.007071018218994141,0.023774027824401855
1761333907520815900,3.02781591796875,0.17765522003173828,-0.030121564865112305,0.032963335514068604
1761333907539516200,3.04651611328125,0.16635704040527344,0.025734663009643555,0.009455621242523193
1761333907558216400,3.065216552734375,0.13589763641357422,0.005588531494140625,0.15000033378601074
1761333907576917000,3.0839169921875,0.16380691528320312,-0.08397722244262695,0.33801597356796265
1761333907595617300,3.1026171875,-0.05916023254394531,-0.05934309959411621,0.31995630264282227
1761333907614317600,3.121317626953125,-0.5175819396972656,-0.012009382247924805,0.07149666547775269
1761333907633018000,3.14001806640625,-0.7644557952880859,0.05315208435058594,-0.20935097336769104
1761333907651718400,3.158718505859375,-0.6561489105224609,0.07516670227050781,-0.321672648191452
1761333907670419000,3.1774189453125,-0.019362449645996094,0.002019166946411133,-0.11151435971260071
1761333907689119200,3.196119140625,0.5663042068481445,-0.11696028709411621,0.10792750120162964
1761333907707819500,3.214819580078125,0.6874885559082031,-0.14109373092651367,0.11694484949111938
1761333907726519800,3.233519775390625,0.4180574417114258,-0.06779170036315918,0.0007240176200866699
1761333907745220400,3.252220458984375,-0.02421283721923828,0.04192495346069336,-0.14229637384414673
1761333907763920600,3.270920654296875,-0.13550662994384766,0.04255795478820801,-0.09951245784759521
1761333907782620400,3.289620361328125,0.016509056091308594,0.042500972747802734,0.05076032876968384
1761333907801320000,3.30831982421875,0.15677452087402344,0.05719709396362305,0.14512115716934204
1761333907820020200,3.327020263671875,0.02976703643798828,0.07044172286987305,0.17027240991592407
1761333907838720800,3.345720703125,-0.19070053100585938,0.08670210838317871,0.19654971361160278
1761333907857421000,3.364421142578125,-0.3143482208251953,0.07980751991271973,0.1865643858909607
1761333907876121300,3.383121337890625,-0.284271240234375,0.08742141723632812,0.05811971426010132
1761333907894821600,3.401821533203125,-0.02235698699951172,0.07560515403747559,-0.09694504737854004
1761333907913522200,3.420522216796875,0.20028209686279297,-0.015623807907104492,-0.1789763867855072
1761333907932222500,3.439222412109375,0.1996479034423828,-0.061908721923828125,-0.2275080680847168
1761333907950922800,3.4579228515625,0.08544635772705078,-0.11474061012268066,-0.31463542580604553
1761333907969623300,3.476623291015625,-0.12954425811767578,-0.0798344612121582,-0.3660486042499542
1761333907988323600,3.495323486328125,-0.30788612365722656,-0.04050564765930176,-0.3187176585197449
1761333908007024000,3.514024169921875,-0.16452980041503906,-0.01077413558959961,-0.22268232703208923
1761333908025724400,3.532724365234375,0.11347007751464844,0.0049169063568115234,-0.12898650765419006
1761333908044424700,3.5514248046875,0.3597440719604492,-0.03348803520202637,-0.007507115602493286
1761333908063125200,3.570125244140625,0.3167848587036133,0.010034561157226562,0.0704498291015625
1761333908081825500,3.588825439453125,0.13150310516357422,0.07978248596191406,0.06206011772155762
1761333908100525800,3.60752587890625,-0.0022249221801757812,0.06757926940917969,0.1207200288772583
1761333908119226000,3.62622607421875,-0.09691810607910156,0.09202337265014648,0.07223337888717651
1761333908137926700,3.6449267578125,-0.20003890991210938,0.07291936874389648,0.1139981746673584
1761333908156627000,3.663626953125,-0.22062301635742188,0.1362299919128418,-0.020966529846191406
1761333908175327200,3.6823271484375,0.005751609802246094,0.06449627876281738,0.14934134483337402
1761333908194027800,3.70102783203125,0.3430299758911133,-0.06031036376953125,0.46838003396987915
1761333908212728000,3.71972802734375,0.24489498138427734,-0.05531716346740723,0.5205645561218262
1761333908231428600,3.7384287109375,-0.29372215270996094,0.10552144050598145,0.06399738788604736
1761333908250129000,3.75712890625,-0.49994564056396484,0.13005781173706055,-0.26346150040626526
1761333908268829200,3.7758291015625,-0.2587852478027344,0.09220337867736816,-0.24457520246505737
1761333908287529700,3.79452978515625,0.24010467529296875,0.032232046127319336,-0.23283329606056213
1761333908306230000,3.81322998046875,0.6978750228881836,-0.12282538414001465,-0.1103876531124115
1761333908324930300,3.831930419921875,0.7299060821533203,-0.1956779956817627,0.003295719623565674
1761333908343630800,3.850630859375,0.4590940475463867,-0.1583869457244873,-0.058910489082336426
1761333908362331100,3.8693310546875,0.07107830047607422,-0.08893609046936035,0.09418648481369019
1761333908381031400,3.888031494140625,-0.20232391357421875,-0.03200554847717285,0.30552512407302856
1761333908399731700,3.906731689453125,-0.41243934631347656,-0.07971382141113281,0.44468051195144653
1761333908418432300,3.925432373046875,-0.5827016830444336,-0.04193711280822754,0.3900212049484253
1761333908437132500,3.944132568359375,-0.7608919143676758,0.04285836219787598,0.2959381937980652
1761333908455833000,3.9628330078125,-0.6364917755126953,0.07657623291015625,0.2719707489013672
1761333908474533400,3.981533447265625,-0.21079444885253906,-0.014907121658325195,0.11532419919967651
1761333908493233700,4.000233642578125,0.16056060791015625,-0.05147242546081543,-0.08520203828811646
1761333908511934200,4.018934326171875,0.36066341400146484,-0.09996700286865234,-0.2500954568386078
1761333908530634500,4.037634521484375,0.4399576187133789,-0.09921956062316895,-0.39805904030799866
1761333908549334800,4.056334716796875,0.3923921585083008,-0.14734315872192383,-0.4565768539905548
1761333908568035300,4.075035400390625,0.27294349670410156,-0.0939033031463623,-0.3747737407684326
1761333908586735600,4.093735595703125,0.1700420379638672,-0.07009434700012207,-0.19629591703414917
1761333908605436000,4.112435791015625,0.04723548889160156,-0.0037267208099365234,-0.030987262725830078
1761333908624136400,4.131136474609375,-0.10639095306396484,0.02158331871032715,0.09541738033294678
1761333908642836700,4.149836669921875,-0.1474590301513672,0.09048104286193848,0.2160511016845703
1761333908661537000,4.168537109375,-0.16852474212646484,0.2403414249420166,0.2768198847770691
1761333908680237600,4.187237548828125,-0.0691070556640625,0.18449664115905762,0.45064640045166016
1761333908698937900,4.205937744140625,0.05170249938964844,0.12227678298950195,0.4635336399078369
1761333908717638400,4.224638427734375,-0.01591205596923828,0.08722066879272461,0.4115462899208069
1761333908736338700,4.243338623046875,-0.22385692596435547,0.13454842567443848,0.07448899745941162
1761333908755039000,4.2620390625,-0.41660213470458984,0.18828392028808594,-0.3329506516456604
1761333908773739500,4.280739501953125,-0.45479393005371094,0.19053912162780762,-0.6382142901420593
1761333908792439800,4.299439697265625,-0.13062667846679688,0.12716412544250488,-0.7889703512191772
1761333908811140000,4.31814013671875,0.5051784515380859,-0.10424232482910156,-0.6686866283416748
1761333908829840600,4.336840576171875,0.9263925552368164,-0.2532613277435303,-0.4468369483947754
1761333908848541000,4.355541015625,0.9018306732177734,-0.2796661853790283,-0.27194952964782715
1761333908867241200,4.3742412109375,0.5776844024658203,-0.2524690628051758,-0.17737431824207306
1761333908885941800,4.392941650390625,0.10274219512939453,-0.1406090259552002,0.027102768421173096
1761333908904642000,4.41164208984375,-0.2964763641357422,-0.051943063735961914,0.33579421043395996
1761333908923342300,4.43034228515625,-0.5215005874633789,0.0037603378295898438,0.5392204523086548
1761333908942043000,4.44904296875,-0.5943288803100586,0.049112796783447266,0.48563772439956665
1761333908960743200,4.4677431640625,-0.6362810134887695,0.10265541076660156,0.3643127381801605
1761333908979443700,4.486443603515625,-0.628173828125,0.09940576553344727,0.27649420499801636
1761333908998144000,4.50514404296875,-0.38501834869384766,0.07782387733459473,0.12462669610977173
1761333909016844300,4.52384423828125,-0.009204864501953125,-0.05980682373046875,-0.06862470507621765
1761333909035544800,4.542544921875,0.3221750259399414,-0.17559528350830078,-0.22033828496932983
1761333909054245000,4.5612451171875,0.40241146087646484,-0.20042181015014648,-0.3370969295501709
1761333909072945400,4.5799453125,0.29482269287109375,-0.14092278480529785,-0.3547603487968445
1761333909091646000,4.59864599609375,0.22212886810302734,-0.0616154670715332,-0.22912096977233887
1761333909110346200,4.61734619140625,0.3152332305908203,-0.10333704948425293,-0.104490727186203
1761333909129046500,4.636046630859375,0.3292112350463867,-0.03292250633239746,-0.06065186858177185
1761333909147747000,4.6547470703125,0.09961986541748047,-0.0003132820129394531,0.22505077719688416
1761333909166447400,4.673447265625,-0.043351173400878906,0.011436939239501953,0.47510701417922974
1761333909185147600,4.692147705078125,-0.2415761947631836,0.013623476028442383,0.5099426507949829
1761333909203848200,4.71084814453125,-0.5540008544921875,0.08403563499450684,0.24583286046981812
1761333909222548500,4.729548583984375,-0.7813596725463867,0.14946675300598145,-0.10404044389724731
1761333909241249000,4.7482490234375,-0.684575080871582,0.14582538604736328,-0.39862048625946045
1761333909259949300,4.76694921875,-0.1052255630493164,0.03271746635437012,-0.47620004415512085
1761333909278649900,4.78564990234375,0.6517658233642578,-0.06312131881713867,-0.45197683572769165
1761333909297350100,4.80435009765625,0.9299793243408203,-0.1281142234802246,-0.2594529092311859
1761333909316050400,4.823050537109375,0.6648063659667969,-0.08715963363647461,-0.07386729121208191
1761333909334751000,4.8417509765625,0.2479715347290039,-0.005307912826538086,-0.02940431237220764
1761333909353451300,4.860451171875,0.026941299438476562,0.07169127464294434,0.09231320023536682
1761333909372151600,4.879151611328125,-0.08738327026367188,0.07962775230407715,0.3190801441669464
1761333909390852000,4.89785205078125,-0.1594257354736328,0.06589961051940918,0.5648165345191956
1761333909409552400,4.916552490234375,-0.18511962890625,0.06607294082641602,0.5616241693496704
1761333909428252700,4.935252685546875,-0.16170787811279297,0.05255246162414551,0.4808134436607361
1761333909446953200,4.953953125,-0.1470623016357422,0.011602640151977539,0.27226924896240234
1761333909465653500,4.972653564453125,-0.1517620086669922,0.08014273643493652,-0.060496747493743896
1761333909484353800,4.991353759765625,-0.014794349670410156,-0.036760568618774414,-0.1386481523513794
1761333909503054300,5.010054443359375,0.18503475189208984,-0.15006542205810547,-0.11986669898033142
1761333909521754600,5.028754638671875,0.11558246612548828,-0.12952232360839844,-0.13497966527938843
1761333909540455200,5.047455078125,-0.19500160217285156,-0.010457992553710938,-0.40055590867996216
1761333909559155500,5.066155517578125,-0.2908487319946289,0.02369832992553711,-0.5320615768432617
1761333909577856000,5.08485595703125,-0.212188720703125,0.05633854866027832,-0.5100094676017761
1761333909596556300,5.103556396484375,0.024120330810546875,0.021579504013061523,-0.2928575575351715
1761333909615256600,5.122256591796875,0.41171932220458984,-0.04237222671508789,-0.06311950087547302
1761333909633957000,5.14095703125,0.6038885116577148,-0.15858030319213867,0.2346397042274475
1761333909652657400,5.159657470703125,0.3211355209350586,-0.07198190689086914,0.25184306502342224
1761333909671357700,5.178357666015625,-0.0961456298828125,-0.02737712860107422,0.25516411662101746
1761333909690058200,5.197058349609375,-0.45371055603027344,0.03876805305480957,0.18884360790252686
1761333909708758500,5.215758544921875,-0.577977180480957,0.06669306755065918,0.25391504168510437
1761333909727458800,5.234458740234375,-0.4672384262084961,0.11955642700195312,0.3024504482746124
1761333909746159400,5.253159423828125,-0.13110733032226562,0.11610889434814453,0.32696250081062317
1761333909764859600,5.271859619140625,0.2166128158569336,0.06610536575317383,0.22274279594421387
1761333909783560000,5.290559814453125,0.36083126068115234,0.02407383918762207,0.025340288877487183
1761333909802260500,5.309260498046875,0.26180171966552734,-0.029229402542114258,-0.20816344022750854
1761333909820960800,5.327960693359375,0.03447151184082031,-0.0636296272277832,-0.4156132936477661
1761333909839661300,5.346661376953125,0.014960289001464844,-0.1169736385345459,-0.4307052791118622
1761333909858361600,5.365361572265625,0.1287250518798828,-0.1813676357269287,-0.3035953640937805
1761333909877062100,5.384062255859375,0.06403064727783203,-0.13711905479431152,-0.22364895045757294
1761333909895762400,5.402762451171875,-0.1071929931640625,-0.04763960838317871,-0.18621638417243958
1761333909914462700,5.421462646484375,-0.23396587371826172,0.03861284255981445,-0.058168649673461914
1761333909933163300,5.440163330078125,-0.08135414123535156,0.014987945556640625,0.09899893403053284
1761333909951863600,5.458863525390625,0.04740142822265625,0.06946325302124023,0.17479002475738525
1761333909970563800,5.477563720703125,0.10709953308105469,0.02564835548400879,0.38034477829933167
1761333909989264400,5.496264404296875,0.16488075256347656,0.02297210693359375,0.517309844493866
1761333910007964700,5.514964599609375,-0.019637107849121094,0.08372187614440918,0.505132794380188
1761333910026665200,5.533665283203125,-0.3944978713989258,0.1880481243133545,0.11036297678947449
1761333910045365500,5.552365478515625,-0.6254491806030273,0.2650737762451172,-0.27393168210983276
1761333910064065800,5.571065673828125,-0.5593738555908203,0.30118560791015625,-0.4488700330257416
1761333910082766300,5.589766357421875,-0.03705596923828125,0.17945599555969238,-0.4481860399246216
1761333910101466600,5.608466552734375,0.6222333908081055,-0.037485361099243164,-0.31203693151474
1761333910120167000,5.6271669921875,1.0202760696411133,-0.21910953521728516,-0.17582181096076965
1761333910138867500,5.645867431640625,0.9196634292602539,-0.27070164680480957,-0.099276602268219
1761333910157567700,5.664567626953125,0.5460414886474609,-0.18303251266479492,-0.05962890386581421
1761333910176268300,5.683268310546875,0.01601409912109375,-0.02022552490234375,0.1175406277179718
1761333910194968600,5.701968505859375,-0.44208335876464844,0.007931232452392578,0.35056576132774353
1761333910213669000,5.720669189453125,-0.6377296447753906,0.007323265075683594,0.3628716766834259
1761333910232369400,5.739369384765625,-0.7128152847290039,-0.02914571762084961,0.3267562985420227
1761333910251069700,5.758069580078125,-0.6347513198852539,-0.03577113151550293,0.23903679847717285
1761333910269770200,5.776770263671875,-0.3938760757446289,-0.05841517448425293,0.14490139484405518
1761333910288470500,5.795470458984375,-0.02023792266845703,-0.11821246147155762,0.053884685039520264
1761333910307170800,5.8141708984375,0.27205371856689453,-0.056542158126831055,-0.17642343044281006
1761333910325871400,5.832871337890625,0.36938953399658203,-0.048235416412353516,-0.3137471675872803
1761333910344571600,5.851571533203125,0.3133058547973633,-0.0316157341003418,-0.38103336095809937
1761333910363272200,5.870272216796875,0.1972789764404297,-0.03484702110290527,-0.3988264799118042
1761333910381972500,5.888972412109375,0.13016510009765625,-0.1509714126586914,-0.3514458239078522
1761333910400672800,5.9076728515625,0.07489585876464844,-0.19164299964904785,-0.24164560437202454
1761333910419373300,5.926373291015625,-0.052580833435058594,-0.06183648109436035,-0.11916178464889526
1761333910438073600,5.945073486328125,-0.005875587463378906,-0.017807483673095703,0.20430254936218262
1761333910456774100,5.963774169921875,0.1465435028076172,0.07592606544494629,0.5968897938728333
1761333910475474400,5.982474365234375,-0.091827392578125,0.19859910011291504,0.7110892534255981
1761333910494174700,6.0011748046875,-0.5397100448608398,0.34981751441955566,0.4425874352455139
1761333910512875300,6.019875244140625,-0.7838211059570312,0.4022848606109619,0.04991436004638672
1761333910531575600,6.038575439453125,-0.5886802673339844,0.3711888790130615,-0.24367767572402954
1761333910550276000,6.057276123046875,0.0159454345703125,0.15836405754089355,-0.2993166446685791
1761333910568976400,6.075976318359375,0.6413669586181641,-0.08662652969360352,-0.33104321360588074
1761333910587677000,6.094677001953125,0.9460783004760742,-0.22020673751831055,-0.2378004789352417
1761333910606377200,6.113377197265625,0.6873493194580078,-0.19790887832641602,-0.1356980800628662
1761333910625077500,6.132077392578125,0.02703571319580078,-0.04953718185424805,-0.12622207403182983
1761333910643778000,6.150778076171875,-0.3925142288208008,0.08488154411315918,0.008131921291351318
1761333910662478300,6.169478271484375,-0.3920755386352539,0.2057809829711914,0.1756129264831543
1761333910681179000,6.188178955078125,-0.0087890625,0.1869339942932129,0.4096730351448059
1761333910699879200,6.206879150390625,0.15116119384765625,0.10095548629760742,0.5038168430328369
1761333910718579500,6.225579345703125,0.006400108337402344,0.06527972221374512,0.22432255744934082
1761333910737280000,6.244280029296875,-0.1868267059326172,-0.03911590576171875,-0.026204288005828857
1761333910755980300,6.262980224609375,-0.1317434310913086,-0.11611652374267578,-0.17716586589813232
1761333910774680600,6.2816806640625,0.09389686584472656,-0.10444211959838867,-0.33357685804367065
1761333910793381000,6.300381103515625,0.4113960266113281,-0.14757132530212402,-0.20500561594963074
1761333910812081400,6.319081298828125,0.6682424545288086,-0.1765270233154297,0.1676410436630249
1761333910830782000,6.337781982421875,0.398162841796875,-0.07682538032531738,0.28011608123779297
1761333910849482200,6.356482177734375,-0.3516826629638672,0.0525968074798584,0.021006226539611816
1761333910868182800,6.375182861328125,-0.9683971405029297,0.13762187957763672,-0.27943769097328186
1761333910886883000,6.393883056640625,-0.8693990707397461,0.09403228759765625,-0.34804561734199524
1761333910905583600,6.41258349609375,-0.36391258239746094,0.029000282287597656,-0.370017945766449
1761333910924284000,6.431283935546875,0.3754730224609375,-0.22151780128479004,-0.1348809003829956
1761333910942984200,6.449984130859375,0.79443359375,-0.33538818359375,0.17138522863388062
1761333910961684700,6.468684814453125,0.6482076644897461,-0.250866174697876,0.15717977285385132
1761333910980385000,6.487385009765625,0.35036373138427734,-0.16268682479858398,0.058422744274139404
1761333910999085600,6.50608544921875,0.12550830841064453,-0.0826268196105957,0.1615002155303955
1761333911017785900,6.524785888671875,-0.19466876983642578,-0.047483205795288086,0.17549055814743042
1761333911036486100,6.543486083984375,-0.5023584365844727,-0.0029113292694091797,0.26580309867858887
1761333911055186700,6.562186767578125,-0.5128602981567383,0.10597372055053711,0.17195731401443481
1761333911073887000,6.580886962890625,-0.4303169250488281,0.11090612411499023,0.1818801760673523
1761333911092587500,6.59958740234375,-0.2653951644897461,0.12836170196533203,0.05439651012420654
1761333911111287800,6.618287841796875,-0.04135417938232422,0.01582646369934082,-0.025413930416107178
1761333911129988000,6.636988037109375,0.17552947998046875,-0.10066509246826172,-0.2572951912879944
1761333911148688600,6.655688720703125,0.3467531204223633,-0.14969563484191895,-0.3872228264808655
1761333911167389000,6.674388916015625,0.3338642120361328,-0.136488676071167,-0.3587722182273865
1761333911186089500,6.69308935546875,0.19451427459716797,-0.10100102424621582,-0.35085299611091614
1761333911204789800,6.711789794921875,0.18236637115478516,-0.04305315017700195,-0.3715595006942749
1761333911223490000,6.730489990234375,0.15537166595458984,0.016431570053100586,-0.12833940982818604
1761333911242190600,6.749190673828125,0.12882328033447266,-0.026227474212646484,0.22554364800453186
1761333911260891000,6.767890869140625,-0.07694244384765625,-0.019271373748779297,0.5086895227432251
1761333911279591400,6.78659130859375,-0.4698915481567383,0.07808876037597656,0.46494483947753906
1761333911298291700,6.805291748046875,-0.6654891967773438,0.23625779151916504,0.19447866082191467
1761333911316992300,6.8239921875,-0.7311763763427734,0.3307936191558838,-0.030747950077056885
1761333911335692500,6.842692626953125,-0.35178375244140625,0.37682318687438965,-0.2590983808040619
1761333911354393000,6.86139306640625,0.41082000732421875,0.11575126647949219,-0.29465264081954956
1761333911373093400,6.88009326171875,0.9081020355224609,-0.13413476943969727,-0.2753218710422516
1761333911391793700,6.898793701171875,0.9690475463867188,-0.18175339698791504,-0.2199701964855194
1761333911410494200,6.917494140625,0.7008447647094727,-0.21099305152893066,-0.17373821139335632
1761333911429194500,6.936194580078125,0.35526371002197266,-0.12840938568115234,-0.14321446418762207
1761333911447895000,6.95489501953125,-0.0069904327392578125,-0.12062287330627441,0.1897861361503601
1761333911466595300,6.97359521484375,-0.3929862976074219,-0.08887624740600586,0.41469424962997437
1761333911485295600,6.992295654296875,-0.618809700012207,-0.017038345336914062,0.32760101556777954
1761333911503996200,7.01099609375,-0.6366481781005859,0.04835391044616699,0.2840386629104614
1761333911522696400,7.029696533203125,-0.5026626586914062,0.013355255126953125,0.285533607006073
1761333911541397000,7.04839697265625,-0.37522411346435547,0.0393071174621582,0.10702216625213623
1761333911560097300,7.06709716796875,-0.07821178436279297,-0.0005178451538085938,-0.1127098798751831
1761333911578797600,7.085797607421875,0.29327869415283203,-0.01816558837890625,-0.22670257091522217
1761333911597498000,7.104498046875,0.44602012634277344,-0.0352168083190918,-0.3340367376804352
1761333911616198400,7.123198486328125,0.4010477066040039,0.021234750747680664,-0.36716920137405396
1761333911634899000,7.14189892578125,0.3257637023925781,0.05971121788024902,-0.3147628605365753
1761333911653599200,7.16059912109375,0.3715238571166992,-0.019032955169677734,-0.10521253943443298
1761333911672299800,7.1792998046875,0.1325359344482422,0.049513816833496094,-0.024021029472351074
1761333911691000000,7.198,-0.034590721130371094,-0.015424966812133789,0.2921505570411682
1761333911709700400,7.216700439453125,-0.0016775131225585938,-0.09107708930969238,0.5896492600440979
1761333911728401000,7.23540087890625,-0.23726654052734375,-0.08844184875488281,0.6692295670509338
1761333911747101200,7.25410107421875,-0.6800289154052734,0.046561241149902344,0.32038742303848267
1761333911765801700,7.2728017578125,-0.7824382781982422,0.14864563941955566,0.007824957370758057
1761333911784502000,7.291501953125,-0.6180782318115234,0.279285192489624,-0.28973227739334106
1761333911803202600,7.31020263671875,-0.08323860168457031,0.175154447555542,-0.4764428734779358
1761333911821902800,7.32890283203125,0.5949287414550781,0.022029876708984375,-0.3089962601661682
1761333911840603400,7.347603271484375,1.0299768447875977,-0.13402557373046875,-0.14682546257972717
1761333911859303700,7.3663037109375,0.8581295013427734,-0.22292733192443848,-0.18575426936149597
1761333911878004200,7.385004150390625,0.2383136749267578,-0.1635587215423584,-0.1522882878780365
1761333911896704500,7.40370458984375,-0.20451831817626953,-0.08312439918518066,0.033165812492370605
1761333911915404800,7.42240478515625,-0.4360208511352539,-0.01574420928955078,0.15131214261054993
1761333911934105300,7.441105224609375,-0.5713090896606445,0.09006261825561523,0.22866696119308472
1761333911952805600,7.4598056640625,-0.5688390731811523,0.13302063941955566,0.26786696910858154
1761333911971506200,7.478506103515625,-0.3606224060058594,0.1606285572052002,0.3231285512447357
1761333911990206500,7.49720654296875,-0.02083587646484375,0.09334564208984375,0.2809581756591797
1761333912008906800,7.51590673828125,0.16788291931152344,0.05446028709411621,-0.029306083917617798
1761333912027607300,7.534607177734375,0.36141014099121094,0.010621309280395508,-0.26597779989242554
1761333912046307600,7.5533076171875,0.5663347244262695,-0.1082923412322998,-0.19346347451210022
1761333912065008000,7.572008056640625,0.6669797897338867,-0.23601436614990234,-0.0034981966018676758
1761333912083708400,7.59070849609375,0.2763071060180664,-0.24901199340820312,0.16719311475753784
1761333912102408700,7.60940869140625,-0.5315885543823242,-0.005303621292114258,0.04218614101409912
1761333912121109200,7.628109130859375,-1.0032472610473633,0.19069290161132812,-0.1286359429359436
1761333912139809500,7.6468095703125,-0.7848844528198242,0.2903015613555908,-0.1635749340057373
1761333912158510000,7.665510009765625,0.029592514038085938,0.13031959533691406,0.06982359290122986
1761333912177210400,7.68421044921875,0.8034296035766602,-0.08027195930480957,0.33078378438949585
1761333912195911000,7.702910888671875,0.760401725769043,-0.20070576667785645,0.30315101146698
1761333912214611200,7.721611083984375,0.12955093383789062,-0.11995601654052734,-0.08933380246162415
1761333912233311500,7.7403115234375,-0.4641237258911133,-0.02604389190673828,-0.3781166076660156
1761333912252012000,7.759011962890625,-0.48968029022216797,-0.02786540985107422,-0.413295179605484
1761333912270712300,7.77771240234375,-0.08329486846923828,-0.053360939025878906,-0.22977104783058167
1761333912289412900,7.796412841796875,0.25862979888916016,-0.0521550178527832,-0.015855222940444946
1761333912308113200,7.815113037109375,0.30789756774902344,-0.014943122863769531,0.1318248212337494
1761333912326813700,7.833813720703125,0.14034461975097656,0.036910057067871094,0.1920723021030426
1761333912345514000,7.852513916015625,-0.0753011703491211,0.046515703201293945,0.11322614550590515
1761333912364214500,7.871214599609375,-0.3036212921142578,0.036458492279052734,-0.02177700400352478
1761333912382914800,7.889914794921875,-0.3344573974609375,-0.009006261825561523,-0.06328019499778748
1761333912401615400,7.908615478515625,-0.11656761169433594,-0.04947018623352051,-0.06185445189476013
1761333912420315600,7.927315673828125,0.15981769561767578,-0.060907602310180664,-0.07955756783485413
1761333912439016000,7.946015869140625,0.2852602005004883,-0.05598759651184082,-0.018227458000183105
1761333912457716500,7.964716552734375,0.09791374206542969,0.03195500373840332,-0.12514114379882812
1761333912476416800,7.983416748046875,-0.1272258758544922,0.09101223945617676,-0.1509265899658203
1761333912495117000,8.002116943359376,-0.06733131408691406,0.049288272857666016,-0.10313272476196289
1761333912513817600,8.020817626953125,0.12086200714111328,0.07929778099060059,0.016491204500198364
1761333912532518100,8.03951806640625,0.3530845642089844,-0.048113346099853516,0.32731014490127563
1761333912551218400,8.058218505859376,0.4967832565307617,-0.12122368812561035,0.5595158338546753
1761333912569918700,8.076918701171875,0.20092391967773438,-0.09935879707336426,0.6248101592063904
1761333912588619300,8.095619384765625,-0.5285940170288086,0.014504432678222656,0.3283644914627075
1761333912607319600,8.114319580078124,-0.9164257049560547,0.1990056037902832,-0.1561630666255951
1761333912626020000,8.13302001953125,-0.6816844940185547,0.24600601196289062,-0.3141512870788574
1761333912644720400,8.151720458984375,-0.07931804656982422,0.18673276901245117,-0.2906240224838257
1761333912663420700,8.170420654296874,0.6441497802734375,0.01454925537109375,-0.19268587231636047
1761333912682121200,8.189121337890626,0.9759492874145508,-0.1787123680114746,-0.12844035029411316
1761333912700821500,8.207821533203125,0.7805891036987305,-0.26695966720581055,-0.136103093624115
1761333912719522000,8.22652197265625,0.2749776840209961,-0.1978144645690918,-0.1674196422100067
1761333912738222300,8.245222412109374,-0.16189956665039062,-0.08958888053894043,-0.12151607871055603
1761333912756923000,8.2639228515625,-0.5416049957275391,-0.0005335807800292969,-0.03571128845214844
1761333912775623200,8.282623046875,-0.6103448867797852,0.09638357162475586,0.0896863043308258
1761333912794323700,8.30132373046875,-0.41176795959472656,0.08965539932250977,0.26098719239234924
1761333912813024000,8.32002392578125,-0.12714004516601562,0.060730934143066406,0.22219520807266235
1761333912831724500,8.338724609375,-0.0037221908569335938,-0.058733224868774414,0.02834448218345642
1761333912850424800,8.3574248046875,0.027828216552734375,-0.04552125930786133,-0.14475110173225403
1761333912869125400,8.37612548828125,0.0695505142211914,-0.07457518577575684,-0.17845267057418823
1761333912887825700,8.39482568359375,-0.002048492431640625,-0.0634610652923584,-0.2811368703842163
1761333912906526000,8.41352587890625,-0.04775238037109375,-0.06365704536437988,-0.34238672256469727
1761333912925226500,8.4322265625,0.07161331176757812,-0.0307614803314209,-0.24102993309497833
1761333912943926800,8.4509267578125,0.3317842483520508,0.026605844497680664,0.14495211839675903
1761333912962627300,8.46962744140625,0.35658740997314453,0.12563395500183105,0.2731800377368927
1761333912981327600,8.48832763671875,0.1371784210205078,0.18351292610168457,0.3685092329978943
1761333913000028200,8.507028076171874,-0.047013282775878906,0.10575556755065918,0.49899721145629883
1761333913018728400,8.525728515625,-0.22437667846679688,-0.01211094856262207,0.502918541431427
1761333913037428700,8.5444287109375,-0.5045909881591797,-0.052654266357421875,0.24369925260543823
1761333913056129300,8.56312939453125,-0.6888008117675781,0.032750844955444336,-0.15993061661720276
1761333913074829600,8.58182958984375,-0.563410758972168,0.14670515060424805,-0.40048718452453613
1761333913093530000,8.600530029296875,-0.014597892761230469,0.0876166820526123,-0.3791561424732208
1761333913112230400,8.61923046875,0.6326789855957031,0.005789041519165039,-0.15784931182861328
1761333913130931000,8.637930908203124,0.7447681427001953,-0.02375197410583496,-0.036838412284851074
1761333913149631200,8.65663134765625,0.678370475769043,-0.009000778198242188,-0.01818910241127014
1761333913168331500,8.67533154296875,0.29575443267822266,0.05157876014709473,-0.1084909737110138
1761333913187032000,8.694031982421874,-0.02228069305419922,0.1338496208190918,-0.04882234334945679
1761333913205732400,8.712732421875,-0.051166534423828125,0.16811585426330566,0.20768356323242188
1761333913224433000,8.731432861328125,-0.007237434387207031,0.08741235733032227,0.292241632938385
1761333913243133200,8.75013330078125,-0.15395545959472656,-0.00009989738464355469,0.2175292670726776
1761333913261833700,8.768833740234374,-0.2634716033935547,-0.05926990509033203,0.10096621513366699
1761333913280534000,8.787533935546875,-0.37462806701660156,-0.07679629325866699,-0.028544366359710693
1761333913299234300,8.806234375,-0.33866405487060547,-0.08926081657409668,-0.11568385362625122
1761333913317934800,8.824934814453124,-0.1326007843017578,-0.0928955078125,-0.16521775722503662
1761333913336635100,8.84363525390625,0.14957809448242188,-0.12559247016906738,-0.08041787147521973
1761333913355335700,8.862335693359375,0.3884572982788086,-0.14498162269592285,0.11889541149139404
1761333913374036000,8.881035888671875,0.2947711944580078,-0.11570572853088379,0.20933300256729126
1761333913392736500,8.899736572265626,-0.23041915893554688,0.06410908699035645,-0.04683476686477661
1761333913411437000,8.91843701171875,-0.5577507019042969,0.20247673988342285,-0.21519047021865845
1761333913430137300,8.937137451171875,-0.39873409271240234,0.1816256046295166,-0.2718275785446167
1761333913448837600,8.955837646484374,0.12228775024414062,0.08792424201965332,-0.2027832567691803
1761333913467538200,8.9745380859375,0.5806941986083984,-0.019835710525512695,-0.024951398372650146
1761333913486238500,8.993238525390625,0.6624383926391602,-0.12252306938171387,0.08719229698181152
1761333913504939000,9.01193896484375,0.41034412384033203,-0.14017510414123535,0.010405302047729492
1761333913523639300,9.030639404296876,-0.06265449523925781,-0.07224345207214355,-0.07438313961029053
1761333913542339800,9.04933984375,-0.3970346450805664,-0.004073143005371094,-0.06022945046424866
1761333913561040100,9.0680400390625,-0.3777580261230469,-0.026030778884887695,0.09805566072463989
1761333913579740400,9.086740478515624,-0.23562049865722656,-0.03307223320007324,0.14667940139770508
1761333913598441000,9.10544091796875,-0.1683511734008789,0.05753469467163086,0.09725603461265564
1761333913617141200,9.124141357421875,-0.24351119995117188,0.09034585952758789,0.02469274401664734
1761333913635841800,9.142841796875,-0.2658815383911133,0.07228302955627441,-0.08736467361450195
1761333913654542000,9.1615419921875,-0.009160995483398438,-0.0021369457244873047,-0.22468213737010956
1761333913673242600,9.18024267578125,0.3210296630859375,-0.10855770111083984,-0.24883350729942322
1761333913691943000,9.19894287109375,0.42333984375,-0.09771966934204102,-0.2987314462661743
1761333913710643500,9.2176435546875,0.36056041717529297,-0.10544896125793457,-0.28425297141075134
1761333913729343700,9.23634375,0.1563253402709961,-0.03313493728637695,-0.27914631366729736
1761333913748044000,9.2550439453125,-0.054805755615234375,0.07190465927124023,-0.24770277738571167
1761333913766744600,9.27374462890625,-0.10749053955078125,0.013650655746459961,0.08657988905906677
1761333913785444900,9.29244482421875,-0.014948844909667969,-0.04163980484008789,0.43366777896881104
1761333913804145400,9.3111455078125,-0.14291858673095703,-0.0366053581237793,0.5846089124679565
1761333913822845700,9.329845703125,-0.45392513275146484,0.10784697532653809,0.35105252265930176
1761333913841546200,9.348546142578124,-0.6300983428955078,0.20409750938415527,0.062083423137664795
1761333913860246500,9.36724658203125,-0.4313983917236328,0.26621413230895996,-0.10780441761016846
1761333913878946800,9.38594677734375,0.21881771087646484,0.15717148780822754,-0.16156160831451416
1761333913897647400,9.4046474609375,0.8813247680664062,-0.027156352996826172,-0.016623109579086304
1761333913916347600,9.42334765625,1.0798616409301758,-0.13884925842285156,0.05833563208580017
1761333913935048200,9.442048095703125,0.6520786285400391,-0.16493535041809082,-0.06250664591789246
1761333913953748500,9.46074853515625,0.031042098999023438,-0.11951208114624023,-0.2470877319574356
1761333913972449000,9.479448974609374,-0.32470130920410156,-0.06972789764404297,-0.15028317272663116
1761333913991149300,9.4981494140625,-0.3984403610229492,-0.024754047393798828,0.06475809216499329
1761333914009849900,9.516849853515625,-0.2455921173095703,-0.017268657684326172,0.3174556493759155
1761333914028550100,9.535550048828124,-0.08536148071289062,-0.10440635681152344,0.4904091954231262
1761333914047250700,9.554250732421876,-0.2869539260864258,-0.04497790336608887,0.326866090297699
1761333914065951000,9.572950927734375,-0.687713623046875,0.06534743309020996,0.06866464018821716
1761333914084651500,9.591651611328125,-0.6613788604736328,0.057285308837890625,-0.14926689863204956
1761333914103351800,9.610351806640624,-0.048211097717285156,-0.04635977745056152,-0.167141854763031
1761333914122052400,9.62905224609375,0.6168403625488281,-0.16154146194458008,-0.07903122901916504
1761333914140752600,9.647752685546875,0.5889205932617188,-0.1055748462677002,-0.10686206817626953
1761333914159453000,9.666452880859374,0.2342672348022461,0.013426542282104492,-0.21344539523124695
1761333914178153500,9.685153564453126,0.008838653564453125,0.043723106384277344,-0.3039385676383972
1761333914196853800,9.703853759765625,0.029814720153808594,0.004106283187866211,-0.17342133820056915
1761333914215554300,9.72255419921875,-0.03374290466308594,0.03151679039001465,-0.05565309524536133
1761333914234254600,9.741254638671874,-0.1206502914428711,0.058681488037109375,0.04956170916557312
1761333914252955100,9.759955078125,-0.015348434448242188,0.08584165573120117,0.2618626058101654
1761333914271655400,9.778655517578125,0.22116565704345703,-0.003472566604614258,0.49160036444664
1761333914290356000,9.79735595703125,0.16989803314208984,0.0061528682708740234,0.5286110639572144
1761333914309056300,9.81605615234375,-0.2408285140991211,0.07206344604492188,0.35265541076660156
1761333914327756500,9.834756591796875,-0.5739879608154297,0.14166593551635742,-0.056367307901382446
1761333914346457000,9.85345703125,-0.58587646484375,0.2103588581085205,-0.2972133159637451
1761333914365157400,9.872157470703126,-0.24250030517578125,0.17218685150146484,-0.4899592101573944
1761333914383858000,9.89085791015625,0.4752683639526367,-0.03452038764953613,-0.37392595410346985
1761333914402558200,9.90955810546875,0.9615039825439453,-0.14495038986206055,-0.08612889051437378
1761333914421258800,9.9282587890625,0.7600259780883789,-0.11949658393859863,-0.02848970890045166
1761333914439959000,9.946958984375,0.22893524169921875,-0.10433053970336914,-0.06441816687583923
1761333914458659600,9.96565966796875,-0.3332996368408203,-0.037183284759521484,-0.15292349457740784
1761333914477359900,9.98435986328125,-0.5871372222900391,-0.0444643497467041,-0.11620280146598816
1761333914496060200,10.00306005859375,-0.4611339569091797,-0.11322236061096191,0.03099730610847473
1761333914514760700,10.0217607421875,-0.31350135803222656,-0.06712603569030762,0.2771732807159424
1761333914533461000,10.0404609375,0.0276336669921875,0.0014166831970214844,0.461758553981781
1761333914552161500,10.05916162109375,0.11224365234375,0.05649232864379883,0.33962029218673706
1761333914570861800,10.07786181640625,0.16548442840576172,-0.023283004760742188,0.2504747807979584
1761333914589562400,10.096562255859375,0.24764060974121094,-0.062369585037231445,0.23841282725334167
1761333914608262700,10.1152626953125,0.5940361022949219,-0.141249418258667,0.21648260951042175
