time,seconds_elapsed,z,y,x
1761333904567250400,0.07425048828125,9.856036186218262,2.383251428604126,0.9954141974449158
1761333904585951000,0.092950927734375,9.927821159362793,2.359323024749756,1.069591760635376
1761333904604651300,0.1116513671875,9.750752449035645,2.493321180343628,1.0217353105545044
1761333904623351600,0.1303515625,9.710074424743652,2.5292134284973145,1.2610175609588623
1761333904642051800,0.1490517578125,9.20997428894043,2.6009981632232666,1.2323036193847656
1761333904660752400,0.16775244140625,8.82233715057373,2.60339093208313,1.1629117727279663
1761333904679452700,0.18645263671875,8.83669376373291,2.5746772289276123,1.2442678213119507
1761333904698153000,0.205153076171875,8.891729354858398,2.500499725341797,1.0863415002822876
1761333904716853200,0.223853271484375,9.016156196594238,2.5148565769195557,0.7872386574745178
1761333904735553800,0.2425537109375,9.45164966583252,2.376072883605957,0.7034898400306702
1761333904754254000,0.261254150390625,9.78664493560791,2.2923240661621094,0.5359922647476196
1761333904772954400,0.279954345703125,9.868000984191895,2.2923240661621094,0.28953152894973755
1761333904791654700,0.298654541015625,9.688538551330566,2.321038007736206,0.07896314561367035
1761333904810355000,0.31735498046875,9.647860527038574,2.344966173171997,0.07896314561367035
1761333904829055200,0.33605517578125,9.595218658447266,2.3258235454559326,0.1746760457754135
1761333904847755800,0.354755859375,9.757930755615234,2.3617160320281982,0.21296121180057526
1761333904866456000,0.3734560546875,9.980463027954102,2.321038007736206,0.2847459018230438
1761333904885156400,0.39215625,10.102497100830078,2.2923240661621094,0.31824541091918945
1761333904903857000,0.41085693359375,10.040284156799316,2.2707886695861816,0.4091726839542389
1761333904922557200,0.42955712890625,9.882357597351074,2.3018953800201416,0.5670989751815796
1761333904941257500,0.448257568359375,9.513862609863281,2.383251428604126,0.45224347710609436
1761333904959957800,0.466957763671875,9.262616157531738,2.3497519493103027,0.3206382393836975
1761333904978658000,0.485657958984375,9.408578872680664,2.251646041870117,0.46899324655532837
1761333904997358300,0.5043583984375,9.53061294555664,2.1846470832824707,0.48574298620224
1761333905016059000,0.523058837890625,9.43489933013916,2.210968017578125,0.33020952343940735
1761333905034759200,0.54175927734375,9.351150512695312,2.2372891902923584,0.2273181527853012
1761333905053459500,0.56045947265625,9.475577354431152,2.2755744457244873,0.275174617767334
1761333905072160000,0.579159912109375,9.664610862731934,2.3162522315979004,0.3397808074951172
1761333905090860300,0.5978603515625,9.810572624206543,2.3569302558898926,0.3756731450557709
1761333905109560600,0.616560546875,9.717252731323242,2.3497519493103027,0.2991028428077698
1761333905128260900,0.6352607421875,9.535398483276367,2.390429735183716,0.1459621787071228
1761333905146961200,0.653961181640625,9.305686950683594,2.3473589420318604,0.064606212079525
1761333905165661700,0.67266162109375,9.34157943725586,2.3234307765960693,0.05503492057323456
1761333905184362000,0.691362060546875,9.456435203552246,2.2947168350219727,0.10289137065410614
1761333905203062300,0.710062255859375,9.590433120727539,2.306680917739868,0.12681959569454193
1761333905221762600,0.728762451171875,9.757930755615234,2.2061824798583984,0.23688943684101105
1761333905240463000,0.747463134765625,9.963713645935059,2.1200408935546875,0.33738797903060913
1761333905259163400,0.766163330078125,10.078569412231445,2.1128623485565186,0.5048855543136597
1761333905277863700,0.78486376953125,10.119247436523438,2.170290231704712,0.641276478767395
1761333905296564000,0.80356396484375,10.013962745666504,2.2755744457244873,0.6604190468788147
1761333905315264500,0.822264404296875,9.652647018432617,2.3569302558898926,0.6029912829399109
1761333905333964800,0.84096484375,9.308079719543457,2.462214469909668,0.5527420043945312
1761333905352665000,0.8596650390625,9.20997428894043,2.4813570976257324,0.4737788736820221
1761333905371365400,0.878365478515625,9.267401695251465,2.4119651317596436,0.3565305769443512
1761333905390066000,0.89706591796875,9.34157943725586,2.3545374870300293,0.27038896083831787
1761333905408766000,0.915765869140625,9.382257461547852,2.2612173557281494,0.12921242415905
1761333905427466500,0.934466552734375,9.554540634155273,2.2085752487182617,0.064606212079525
1761333905446166800,0.953166748046875,9.600004196166992,2.1894326210021973,0.06939185410737991
1761333905464867300,0.971867431640625,9.688538551330566,2.227717876434326,0.10767702013254166
1761333905483567600,0.990567626953125,9.877572059631348,2.2396819591522217,0.16031911969184875
1761333905502268000,1.009267822265625,10.037891387939453,2.2325034141540527,0.2105683982372284
1761333905520968200,1.02796826171875,9.997213363647461,2.2923240661621094,0.2273181527853012
1761333905539668500,1.04666845703125,9.779465675354004,2.3330020904541016,0.23688943684101105
1761333905558369000,1.065369140625,9.540184020996094,2.4191436767578125,0.1579262912273407
1761333905577069300,1.0840693359375,9.432506561279297,2.416750907897949,0.11485548317432404
1761333905595769600,1.10276953125,9.492327690124512,2.3473589420318604,0.14835500717163086
1761333905614470100,1.12147021484375,9.671789169311523,2.282752752304077,0.26560330390930176
1761333905633170400,1.14017041015625,9.81535816192627,2.2085752487182617,0.27756741642951965
1761333905651870700,1.15887060546875,9.810572624206543,2.1822543144226074,0.22971096634864807
1761333905670571000,1.177571044921875,9.681360244750977,2.1678972244262695,0.1818545162677765
1761333905689271600,1.196271484375,9.55214786529541,2.1367905139923096,0.12442677468061447
1761333905707971800,1.214971923828125,9.535398483276367,2.1439690589904785,0.19621145725250244
1761333905726672100,1.233672119140625,9.664610862731934,2.139183521270752,0.275174617767334
1761333905745372400,1.252372314453125,9.712467193603516,2.1822543144226074,0.34695929288864136
1761333905764073000,1.271072998046875,9.621540069580078,2.297109842300415,0.30628129839897156
1761333905782773200,1.289773193359375,9.494720458984375,2.3018953800201416,0.3206382393836975
1761333905801473500,1.3084736328125,9.34157943725586,2.3401806354522705,0.3086741268634796
1761333905820173800,1.327173828125,9.375079154968262,2.304288148880005,0.27038896083831787
1761333905838874400,1.345874267578125,9.504291534423828,2.266003131866455,0.3517449200153351
1761333905857574700,1.36457470703125,9.798608779907227,2.2133610248565674,0.4163511395454407
1761333905876275000,1.38327490234375,9.93978500366211,2.2085752487182617,0.48095735907554626
1761333905894975200,1.401975341796875,9.832108497619629,2.266003131866455,0.39960137009620667
1761333905913675800,1.42067578125,9.604789733886719,2.2683959007263184,0.3086741268634796
1761333905932376000,1.4393759765625,9.494720458984375,2.251646041870117,0.30149564146995544
1761333905951076400,1.458076416015625,9.497113227844238,2.1990039348602295,0.3206382393836975
1761333905969777000,1.47677685546875,9.535398483276367,2.115255117416382,0.3397808074951172
1761333905988477200,1.495477294921875,9.547362327575684,2.1367905139923096,0.32303106784820557
1761333906007177500,1.514177490234375,9.499505996704102,2.1607189178466797,0.349352091550827
1761333906025877800,1.532877685546875,9.580862045288086,2.179861545562744,0.32303106784820557
1761333906044578000,1.551578125,9.671789169311523,2.194218397140503,0.3756731450557709
1761333906063278600,1.570278564453125,9.659825325012207,2.311466693878174,0.3684946894645691
1761333906081979000,1.588978759765625,9.650253295898438,2.3258235454559326,0.380458801984787
1761333906100679200,1.60767919921875,9.856036186218262,2.2061824798583984,0.380458801984787
1761333906119379700,1.626379638671875,10.112068176269531,2.1056840419769287,0.4091726839542389
1761333906138080000,1.645080078125,9.978070259094238,2.1774685382843018,0.3086741268634796
1761333906156780300,1.6637802734375,9.643074989318848,2.2085752487182617,0.34695929288864136
1761333906175480600,1.68248046875,9.477970123291016,2.1750757694244385,0.39481574296951294
1761333906194181000,1.70118115234375,9.34875774383545,2.210968017578125,0.35413774847984314
1761333906212881400,1.71988134765625,9.241081237792969,2.289931297302246,0.1746760457754135
1761333906231581700,1.738581787109375,9.31047248840332,2.3258235454559326,0.08135596662759781
1761333906250282000,1.757281982421875,9.592825889587402,2.3234307765960693,0.062213387340307236
1761333906268982500,1.775982421875,9.975677490234375,2.249253273010254,0.2225325107574463
1761333906287682800,1.794682861328125,10.310672760009766,2.146361827850342,0.3517449200153351
1761333906306383000,1.813383056640625,10.408778190612793,2.139183521270752,0.4043870270252228
1761333906325083600,1.832083740234375,10.169496536254883,2.060220241546631,0.4977070987224579
1761333906343784000,1.850783935546875,9.765109062194824,2.1894326210021973,0.35413774847984314
1761333906362484200,1.869484130859375,9.269794464111328,2.2085752487182617,0.4426721930503845
1761333906381184500,1.8881845703125,9.016156196594238,2.2707886695861816,0.4666004180908203
1761333906399885000,1.906885009765625,9.042476654052734,2.3186452388763428,0.38763725757598877
1761333906418585300,1.92558544921875,9.011369705200195,2.3497519493103027,0.5096712112426758
1761333906437285600,1.94428564453125,9.346364974975586,2.3186452388763428,0.5240281820297241
1761333906455986200,1.962986083984375,9.760323524475098,2.2707886695861816,0.6029912829399109
1761333906474686500,1.9816865234375,9.92542839050293,2.287538528442383,0.5264210104942322
1761333906493386800,2.00038671875,9.90149974822998,2.313859462738037,0.3613162338733673
1761333906512087000,2.019087158203125,9.841679573059082,2.2396819591522217,0.1986042857170105
1761333906530787600,2.03778759765625,9.803394317626953,2.1583259105682373,0.18903298676013947
1761333906549487900,2.05648779296875,9.731609344482422,2.093719720840454,0.1818545162677765
1761333906568188200,2.075188232421875,9.607182502746582,2.1607189178466797,0.19142581522464752
1761333906586888400,2.093888427734375,9.511469841003418,2.1535403728485107,0.4713860750198364
1761333906605589000,2.112589111328125,9.56650447845459,2.201396942138672,0.7082754969596863
1761333906633639400,2.140639404296875,9.253045082092285,2.4047868251800537,0.5647061467170715
1761333906652339700,2.159339599609375,9.104690551757812,2.555534601211548,0.34217363595962524
1761333906671040300,2.178040283203125,9.293723106384277,2.610569477081299,0.2512463629245758
1761333906689740500,2.196740478515625,9.688538551330566,2.526820659637451,0.20338992774486542
1761333906708441000,2.215441162109375,10.17428207397461,2.335394859313965,0.28235307335853577
1761333906727141400,2.234141357421875,10.459028244018555,2.1990039348602295,0.42831525206565857
1761333906745841700,2.252841552734375,10.415956497192383,2.108076810836792,0.43549370765686035
1761333906764542000,2.2715419921875,10.030712127685547,2.1894326210021973,0.4331009089946747
1761333906783242500,2.290242431640625,9.499505996704102,2.2851455211639404,0.38763725757598877
1761333906801942800,2.30894287109375,9.133403778076172,2.3569302558898926,0.44027936458587646
1761333906820643000,2.32764306640625,9.016156196594238,2.3473589420318604,0.6029912829399109
1761333906839343400,2.34634326171875,9.133403778076172,2.3736801147460938,0.6771687865257263
1761333906858044000,2.3650439453125,9.34157943725586,2.3473589420318604,0.7680960893630981
1761333906876744200,2.383744140625,9.449256896972656,2.2947168350219727,0.7322037220001221
1761333906895444500,2.402444580078125,9.559326171875,2.3186452388763428,0.5096712112426758
1761333906914145000,2.42114501953125,9.678967475891113,2.2923240661621094,0.2847459018230438
1761333906932845300,2.43984521484375,9.987641334533691,2.2396819591522217,0.13878370821475983
1761333906951545600,2.458545654296875,10.222138404846191,2.1200408935546875,0.12203395366668701
1761333906970246100,2.47724609375,10.119247436523438,2.117648124694824,0.16749759018421173
1761333906988946400,2.495946533203125,9.858428955078125,2.170290231704712,0.1866401731967926
1761333907007646700,2.514646728515625,9.585647583007812,2.163111686706543,0.33738797903060913
1761333907026347000,2.533346923828125,9.384650230407715,2.2229323387145996,0.40677985548973083
1761333907045047600,2.552047607421875,9.250652313232422,2.251646041870117,0.5575276613235474
1761333907063747800,2.570747802734375,9.221938133239746,2.3497519493103027,0.6699903607368469
1761333907082448100,2.5894482421875,9.372686386108398,2.3736801147460938,0.7441678643226624
1761333907101148700,2.608148681640625,9.516255378723145,2.3976082801818848,0.9379864931106567
1761333907119849000,2.626848876953125,9.516255378723145,2.4646072387695312,0.8327022790908813
1761333907138549200,2.64554931640625,9.511469841003418,2.4263222217559814,0.7178468108177185
1761333907157249800,2.664249755859375,9.561718940734863,2.383251428604126,0.5359922647476196
1761333907175950000,2.6829501953125,9.674181938171387,2.3234307765960693,0.43549370765686035
1761333907194650400,2.701650390625,9.69093132019043,2.3258235454559326,0.35413774847984314
1761333907213350700,2.7203505859375,9.607182502746582,2.3090739250183105,0.28953152894973755
1761333907232051200,2.73905126953125,9.619147300720215,2.2779672145843506,0.22492532432079315
1761333907250751500,2.75775146484375,9.712467193603516,2.256431818008423,0.3038884699344635
1761333907269451800,2.77645166015625,9.820143699645996,2.2133610248565674,0.4666004180908203
1761333907288152300,2.79515234375,9.796216011047363,2.328216314315796,0.43549370765686035
1761333907306852600,2.8138525390625,9.667003631591797,2.4023938179016113,0.49292147159576416
1761333907325553000,2.832552978515625,9.45164966583252,2.4023938179016113,0.638883650302887
1761333907344253400,2.85125341796875,9.34875774383545,2.3545374870300293,0.5407779216766357
1761333907362953700,2.86995361328125,9.468399047851562,2.3018953800201416,0.42352959513664246
1761333907381654000,2.888654052734375,9.602396965026855,2.297109842300415,0.4618147611618042
1761333907400354300,2.907354248046875,9.66221809387207,2.3330020904541016,0.5312066078186035
1761333907419054800,2.926054931640625,9.719645500183105,2.392822742462158,0.5000999569892883
1761333907437755100,2.944755126953125,9.631111145019531,2.407179594039917,0.45942193269729614
1761333907456455400,2.963455322265625,9.494720458984375,2.447857618331909,0.4019941985607147
1761333907475156000,2.982156005859375,9.4660062789917,2.414358139038086,0.4618147611618042
1761333907493856300,3.000856201171875,9.66939640045166,2.335394859313965,0.5359922647476196
1761333907512556800,3.019556884765625,9.781859397888184,2.297109842300415,0.5455635786056519
1761333907531257000,3.038257080078125,9.774680137634277,2.359323024749756,0.5288137793540955
1761333907549957400,3.056957275390625,9.745966911315918,2.3473589420318604,0.6819544434547424
1761333907568657700,3.07565771484375,9.77707290649414,2.266003131866455,0.8781659007072449
1761333907587358200,3.094358154296875,9.55214786529541,2.3018953800201416,0.8566305041313171
1761333907606058500,3.11305859375,9.078369140625,2.359323024749756,0.5958128571510315
1761333907624758800,3.1317587890625,8.80798053741455,2.423929452896118,0.30149564146995544
1761333907643459000,3.150458984375,8.896514892578125,2.4287149906158447,0.18424734473228455
1761333907662159600,3.16915966796875,9.533005714416504,2.328216314315796,0.4019941985607147
1761333907680860000,3.18785986328125,10.138389587402344,2.1846470832824707,0.6293123364448547
1761333907699560400,3.206560546875,10.284351348876953,2.148754835128784,0.6340979933738708
1761333907718260700,3.2252607421875,10.030712127685547,2.227717876434326,0.5096712112426758
1761333907736961000,3.2439609375,9.588040351867676,2.3497519493103027,0.363709032535553
1761333907755661600,3.26266162109375,9.470791816711426,2.3569302558898926,0.4091726839542389
1761333907774361900,3.28136181640625,9.621540069580078,2.359323024749756,0.5623133182525635
1761333907793060600,3.300060546875,9.765109062194824,2.3808584213256836,0.6604190468788147
1761333907811761200,3.31876123046875,9.638289451599121,2.407179594039917,0.6915257573127747
1761333907830461400,3.33746142578125,9.410971641540527,2.4358935356140137,0.7226324677467346
1761333907849162000,3.356161865234375,9.276973724365234,2.4335005283355713,0.7154539823532104
1761333907867862300,3.3748623046875,9.298508644104004,2.438286304473877,0.5886343717575073
1761333907886562600,3.3935625,9.559326171875,2.4191436767578125,0.43549370765686035
1761333907905262800,3.412262939453125,9.789037704467773,2.321038007736206,0.349352091550827
1761333907923963400,3.43096337890625,9.796216011047363,2.2707886695861816,0.28953152894973755
1761333907942663700,3.44966357421875,9.686145782470703,2.2157537937164307,0.1866401731967926
1761333907961364000,3.468364013671875,9.468399047851562,2.249253273010254,0.12203395366668701
1761333907980064500,3.487064453125,9.281759262084961,2.282752752304077,0.16271193325519562
1761333907998764800,3.505764892578125,9.42054271697998,2.2995026111602783,0.2584248483181
1761333908017465000,3.524465087890625,9.702896118164062,2.2995026111602783,0.3565305769443512
1761333908036165600,3.54316552734375,9.961320877075195,2.249253273010254,0.48574298620224
1761333908054866000,3.561865966796875,9.930213928222656,2.289931297302246,0.5742774605751038
1761333908073566200,3.580566162109375,9.750752449035645,2.3641088008880615,0.5742774605751038
1761333908092266800,3.599266845703125,9.616754531860352,2.3569302558898926,0.638883650302887
1761333908110967000,3.617967041015625,9.518648147583008,2.3880369663238525,0.5982056856155396
1761333908129667300,3.636667236328125,9.408578872680664,2.3736801147460938,0.6508477330207825
1761333908148368000,3.655367919921875,9.379864692687988,2.438286304473877,0.5335994362831116
1761333908167068200,3.674068115234375,9.604789733886719,2.3617160320281982,0.727418065071106
1761333908185768400,3.6927685546875,9.951749801635742,2.2325034141540527,1.0648061037063599
1761333908204469000,3.711468994140625,9.863214492797852,2.2444677352905273,1.1174482107162476
1761333908223169300,3.730169189453125,9.317651748657227,2.4191436767578125,0.6460621356964111
1761333908241869600,3.74886962890625,9.095118522644043,2.447857618331909,0.30149564146995544
1761333908260570000,3.767570068359375,9.32722282409668,2.4023938179016113,0.31345975399017334
1761333908279270400,3.7862705078125,9.832108497619629,2.3306093215942383,0.3278166949748993
1761333908297971000,3.804970947265625,10.310672760009766,2.1678972244262695,0.45224347710609436
1761333908316671200,3.823671142578125,10.365707397460938,2.100898265838623,0.5647061467170715
1761333908335371500,3.84237158203125,10.107282638549805,2.1583259105682373,0.5048855543136597
1761333908354071800,3.86107177734375,9.717252731323242,2.2540390491485596,0.6675975322723389
1761333908372772400,3.8797724609375,9.432506561279297,2.335394859313965,0.8901300430297852
1761333908391472600,3.89847265625,9.205188751220703,2.306680917739868,1.038485050201416
1761333908410173000,3.9171728515625,9.013762474060059,2.359323024749756,0.9906286001205444
1761333908428873500,3.93587353515625,8.810373306274414,2.447857618331909,0.9020941257476807
1761333908447573800,3.95457373046875,8.915657043457031,2.469393014907837,0.8805587291717529
1761333908466274000,3.973274169921875,9.336793899536133,2.3545374870300293,0.7202396392822266
1761333908484974600,3.991974609375,9.717252731323242,2.2947168350219727,0.5096712112426758
1761333908503675000,4.0106748046875,9.93260669708252,2.227717876434326,0.3278166949748993
1761333908522375400,4.02937548828125,10.028319358825684,2.218146562576294,0.16031911969184875
1761333908541075700,4.04807568359375,9.994820594787598,2.1655044555664062,0.08135596662759781
1761333908559776000,4.06677587890625,9.884750366210938,2.2205393314361572,0.1459621787071228
1761333908578476300,4.085476318359375,9.78664493560791,2.249253273010254,0.31345975399017334
1761333908597176800,4.1041767578125,9.664610862731934,2.3234307765960693,0.4737788736820221
1761333908615877000,4.122877197265625,9.506684303283691,2.3569302558898926,0.6005984544754028
1761333908634577700,4.14157763671875,9.45882797241211,2.4358935356140137,0.727418065071106
1761333908653278000,4.16027783203125,9.430113792419434,2.5986053943634033,0.8039883971214294
1761333908671978200,4.178978271484375,9.525827407836914,2.550748825073242,0.9954141974449158
1761333908690678500,4.197678466796875,9.647860527038574,2.493321180343628,1.0193424224853516
1761333908709379000,4.216379150390625,9.580862045288086,2.4646072387695312,0.9667003750801086
1761333908728079400,4.235079345703125,9.367900848388672,2.5196423530578613,0.6101697683334351
1761333908746780000,4.25377978515625,9.164510726928711,2.5770699977874756,0.16749759018421173
1761333908765480200,4.272480224609375,9.114261627197266,2.5746772289276123,-0.1746760457754135
1761333908784180700,4.2911806640625,9.43489933013916,2.4981069564819336,-0.3517449200153351
1761333908802881000,4.309881103515625,10.085747718811035,2.249253273010254,-0.24646073579788208
1761333908821581300,4.328581298828125,10.535597801208496,2.091326951980591,-0.03349951654672623
1761333908840281900,4.34728173828125,10.53799057006836,2.0721843242645264,0.13878370821475983
1761333908858982100,4.365982177734375,10.229316711425781,2.1200408935546875,0.23688943684101105
1761333908877682400,4.384682373046875,9.753145217895508,2.258824586868286,0.45224347710609436
1761333908896383000,4.403383056640625,9.339186668395996,2.3736801147460938,0.7776673436164856
1761333908915083300,4.422083251953125,9.09272575378418,2.4502503871917725,0.9978070259094238
1761333908933783600,4.440783447265625,8.997013092041016,2.510071039199829,0.9571290612220764
1761333908952484000,4.459484130859375,8.93240737915039,2.572284460067749,0.8470591902732849
1761333908971184400,4.478184326171875,8.920442581176758,2.5674986839294434,0.7680960893630981
1761333908989884700,4.496884765625,9.152546882629395,2.531606435775757,0.6221339106559753
1761333909008585200,4.515585205078125,9.53061294555664,2.3712873458862305,0.42831525206565857
1761333909027285500,4.534285400390625,9.875179290771484,2.2325034141540527,0.27038896083831787
1761333909045986000,4.552986083984375,9.970891952514648,2.1918256282806396,0.14356936514377594
1761333909064686300,4.571686279296875,9.875179290771484,2.242074728012085,0.11724831163883209
1761333909083386600,4.59038671875,9.810572624206543,2.313859462738037,0.24167509377002716
1761333909102087200,4.609087158203125,9.913464546203613,2.266003131866455,0.3684946894645691
1761333909120787500,4.627787353515625,9.937392234802246,2.3401806354522705,0.4211367964744568
1761333909139487700,4.64648779296875,9.710074424743652,2.383251428604126,0.7250252366065979
1761333909158188300,4.665188232421875,9.564111709594727,2.4047868251800537,0.9930213689804077
1761333909176888600,4.683888671875,9.358329772949219,2.414358139038086,1.0336993932724
1761333909195588900,4.7025888671875,9.030512809753418,2.4885356426239014,0.760917603969574
1761333909214289400,4.721289306640625,8.781659126281738,2.548356056213379,0.39481574296951294
1761333909232989700,4.73998974609375,8.86062240600586,2.5220351219177246,0.08374879509210587
1761333909251690000,4.75868994140625,9.439684867858887,2.3736801147460938,-0.004785645287483931
1761333909270390500,4.777390625,10.219745635986328,2.2468605041503906,0.014356935396790504
1761333909289090800,4.7960908203125,10.53081226348877,2.1678972244262695,0.20338992774486542
1761333909307791400,4.814791259765625,10.289137840270996,2.2133610248565674,0.38763725757598877
1761333909326491600,4.83349169921875,9.879964828491211,2.3090739250183105,0.43549370765686035
1761333909345192000,4.85219189453125,9.657432556152344,2.4023938179016113,0.5670989751815796
1761333909363892500,4.870892578125,9.53779125213623,2.423929452896118,0.8087740540504456
1761333909382592800,4.8895927734375,9.45882797241211,2.421536445617676,1.074377417564392
1761333909401293300,4.908293212890625,9.425328254699707,2.431107759475708,1.0911271572113037
1761333909419993600,4.92699365234375,9.442078590393066,2.423929452896118,1.0241280794143677
1761333909438694000,4.94569384765625,9.45164966583252,2.3856441974639893,0.8183453679084778
1761333909457394400,4.96439453125,9.442078590393066,2.455035924911499,0.4833501875400543
1761333909476094700,4.9830947265625,9.578469276428223,2.3330020904541016,0.39960137009620667
1761333909494795000,5.001794921875,9.784252166748047,2.2133610248565674,0.40677985548973083
1761333909513495600,5.02049560546875,9.719645500183105,2.234896421432495,0.37088751792907715
1761333909532195800,5.03919580078125,9.403793334960938,2.359323024749756,0.07657032459974289
1761333909550896000,5.057896240234375,9.298508644104004,2.3952155113220215,-0.08374879509210587
1761333909569596700,5.0765966796875,9.370293617248535,2.423929452896118,-0.08135596662759781
1761333909588297000,5.095296875,9.607182502746582,2.3808584213256836,0.13160525262355804
1761333909606997500,5.11399755859375,10.006784439086914,2.3090739250183105,0.3684946894645691
1761333909625697800,5.13269775390625,10.217352867126465,2.194218397140503,0.6747759580612183
1761333909644398000,5.151398193359375,9.944570541381836,2.2947168350219727,0.698704183101654
1761333909663098600,5.1700986328125,9.523433685302734,2.3569302558898926,0.7034898400306702
1761333909681799000,5.188798828125,9.150154113769531,2.4358935356140137,0.641276478767395
1761333909700499500,5.20749951171875,9.006584167480469,2.4670002460479736,0.7178468108177185
1761333909719199700,5.22619970703125,9.10229778289795,2.5124638080596924,0.7848458290100098
1761333909737900000,5.244900146484375,9.43489933013916,2.495713949203491,0.8255237936973572
1761333909756600600,5.2636005859375,9.791430473327637,2.4335005283355713,0.7250252366065979
1761333909775300900,5.28230078125,9.949356079101562,2.3856441974639893,0.519242525100708
1761333909794001200,5.301001220703125,9.860821723937988,2.3330020904541016,0.27038896083831787
1761333909812701700,5.31970166015625,9.635896682739258,2.2995026111602783,0.04785645380616188
1761333909831402000,5.338402099609375,9.616754531860352,2.242074728012085,0.019142581149935722
1761333909850102300,5.357102294921875,9.734002113342285,2.172683000564575,0.1339980661869049
1761333909868802800,5.375802734375,9.671789169311523,2.2157537937164307,0.20578274130821228
1761333909887503000,5.394503173828125,9.497113227844238,2.306680917739868,0.2392822653055191
1761333909906203600,5.41320361328125,9.363115310668945,2.392822742462158,0.37088751792907715
1761333909924904000,5.431904052734375,9.511469841003418,2.366501569747925,0.5407779216766357
1761333909943604500,5.4506044921875,9.640682220458984,2.421536445617676,0.6364908218383789
1761333909962304800,5.4693046875,9.702896118164062,2.3784656524658203,0.8662018179893494
1761333909981005000,5.488005126953125,9.765109062194824,2.3784656524658203,1.0217353105545044
1761333909999705600,5.50670556640625,9.580862045288086,2.447857618331909,1.0145567655563354
1761333910018406000,5.525406005859375,9.19561767578125,2.562713146209717,0.607776939868927
1761333910037106200,5.544106201171875,8.94676399230957,2.644068956375122,0.20099709928035736
1761333910055806700,5.562806640625,8.997013092041016,2.6727828979492188,0.007178467698395252
1761333910074507000,5.581507080078125,9.518648147583008,2.53399920463562,0
1761333910093207600,5.60020751953125,10.198209762573242,2.297109842300415,0.13878370821475983
1761333910111907800,5.618907958984375,10.628918647766113,2.1056840419769287,0.2799602448940277
1761333910130608000,5.637608154296875,10.557133674621582,2.060220241546631,0.35892340540885925
1761333910149308700,5.65630859375,10.198209762573242,2.170290231704712,0.4019941985607147
1761333910168009000,5.675009033203125,9.664610862731934,2.3641088008880615,0.5886343717575073
1761333910186709200,5.693709228515625,9.18843936920166,2.4191436767578125,0.8327022790908813
1761333910205409800,5.712409912109375,8.96829891204834,2.4358935356140137,0.8542376756668091
1761333910224110300,5.7311103515625,8.86780071258545,2.4047868251800537,0.8279166221618652
1761333910242810600,5.749810546875,8.925228118896484,2.390429735183716,0.7513462901115417
1761333910261511000,5.768510986328125,9.154939651489258,2.3473589420318604,0.6652047038078308
1761333910280211500,5.78721142578125,9.53061294555664,2.2612173557281494,0.576670229434967
1761333910298911700,5.805911865234375,9.834501266479492,2.3018953800201416,0.34217363595962524
1761333910317612000,5.824612060546875,9.9469633102417,2.297109842300415,0.19621145725250244
1761333910336312600,5.8433125,9.903892517089844,2.306680917739868,0.11964113265275955
1761333910355012900,5.862012939453125,9.796216011047363,2.2995026111602783,0.0933200865983963
1761333910373713400,5.88071337890625,9.734002113342285,2.1774685382843018,0.1339980661869049
1761333910392413700,5.89941357421875,9.681360244750977,2.132004976272583,0.24167509377002716
1761333910411114000,5.918114013671875,9.55214786529541,2.258824586868286,0.3732803463935852
1761333910429814500,5.936814453125,9.597611427307129,2.2995026111602783,0.7178468108177185
1761333910448514800,5.955514892578125,9.753145217895508,2.3952155113220215,1.1341979503631592
1761333910467215000,5.974215087890625,9.513862609863281,2.5292134284973145,1.2610175609588623
1761333910485915600,5.99291552734375,9.052047729492188,2.6943182945251465,0.9906286001205444
1761333910504616000,6.011615966796875,8.786444664001465,2.7493531703948975,0.5862415432929993
1761333910523316500,6.03031640625,8.965906143188477,2.7038896083831787,0.28235307335853577
1761333910542016800,6.049016845703125,9.573683738708496,2.4646072387695312,0.2225325107574463
1761333910560717300,6.06771728515625,10.222138404846191,2.1918256282806396,0.1866401731967926
1761333910579417600,6.08641748046875,10.559526443481445,2.043470621109009,0.2727817893028259
1761333910598118100,6.1051181640625,10.325029373168945,2.069791555404663,0.3684946894645691
1761333910616818400,6.123818359375,9.667003631591797,2.2325034141540527,0.3756731450557709
1761333910635518700,6.142518798828125,9.233902931213379,2.3784656524658203,0.519242525100708
1761333910654219300,6.16121923828125,9.219545364379883,2.5052852630615234,0.7082754969596863
1761333910672919600,6.17991943359375,9.600004196166992,2.4885356426239014,0.9619147181510925
1761333910691620000,6.1986201171875,9.765109062194824,2.407179594039917,1.062413215637207
1761333910710320400,6.2173203125,9.621540069580078,2.3808584213256836,0.7800601720809937
1761333910729020700,6.236020751953125,9.422935485839844,2.280359983444214,0.5216353535652161
1761333910747721000,6.254720947265625,9.473184585571289,2.1990039348602295,0.3613162338733673
1761333910766421500,6.27342138671875,9.7005033493042,2.203789710998535,0.20099709928035736
1761333910785121800,6.292121826171875,10.028319358825684,2.155933141708374,0.33499518036842346
1761333910803822300,6.310822265625,10.303494453430176,2.132004976272583,0.7130611538887024
1761333910822522600,6.329522705078125,10.045069694519043,2.2540390491485596,0.8183453679084778
1761333910841223200,6.34822314453125,9.284152030944824,2.414358139038086,0.5383850932121277
1761333910859923500,6.36692333984375,8.635697364807129,2.5196423530578613,0.21296121180057526
1761333910878623700,6.385623779296875,8.70508861541748,2.4741785526275635,0.12442677468061447
1761333910897324300,6.40432421875,9.198010444641113,2.3880369663238525,0.10049854964017868
1761333910916024600,6.423024658203125,9.949356079101562,2.108076810836792,0.3445664644241333
1761333910934725000,6.44172509765625,10.394421577453613,1.97407865524292,0.6652047038078308
1761333910953425400,6.46042529296875,10.269994735717773,2.0578274726867676,0.6652047038078308
1761333910972126000,6.4791259765625,9.982855796813965,2.1535403728485107,0.5694918036460876
1761333910990826200,6.497826171875,9.760323524475098,2.2468605041503906,0.6747759580612183
1761333911009526800,6.51652685546875,9.432506561279297,2.2995026111602783,0.6939185857772827
1761333911028227000,6.53522705078125,9.107083320617676,2.3569302558898926,0.7896314859390259
1761333911046927400,6.55392724609375,9.078369140625,2.4717857837677,0.6963114142417908
1761333911065628000,6.5726279296875,9.147761344909668,2.4741785526275635,0.7058826684951782
1761333911084328200,6.591328125,9.305686950683594,2.4837498664855957,0.576670229434967
1761333911103028700,6.61002880859375,9.53061294555664,2.3569302558898926,0.49292147159576416
1761333911121729000,6.62872900390625,9.755537986755371,2.2229323387145996,0.24885354936122894
1761333911140429300,6.64742919921875,9.93978500366211,2.1583259105682373,0.10289137065410614
1761333911159129900,6.6661298828125,9.93978500366211,2.163111686706543,0.11724831163883209
1761333911177830100,6.684830078125,9.80817985534668,2.194218397140503,0.11246266216039658
1761333911196530700,6.70353076171875,9.80100154876709,2.251646041870117,0.08614161610603333
1761333911215231000,6.72223095703125,9.77707290649414,2.3162522315979004,0.3397808074951172
1761333911233931300,6.74093115234375,9.753145217895508,2.280359983444214,0.7106683254241943
1761333911252631800,6.7596318359375,9.54496955871582,2.297109842300415,1.0049854516983032
1761333911271332000,6.77833203125,9.138189315795898,2.4047868251800537,0.9619147181510925
1761333911290032600,6.79703271484375,8.922835350036621,2.5698914527893066,0.6843472719192505
1761333911308733000,6.81573291015625,8.83669376373291,2.65842604637146,0.4498506486415863
1761333911327433200,6.83443310546875,9.207581520080566,2.6847469806671143,0.22013968229293823
1761333911346133800,6.8531337890625,9.985248565673828,2.3952155113220215,0.18903298676013947
1761333911364834000,6.871833984375,10.514062881469727,2.122433662414551,0.2105683982372284
1761333911383534600,6.89053466796875,10.607382774353027,2.069791555404663,0.2679961323738098
1761333911402235000,6.90923486328125,10.360921859741211,2.0506489276885986,0.3206382393836975
1761333911420935400,6.927935302734375,10.023533821105957,2.1535403728485107,0.35892340540885925
1761333911439635700,6.9466357421875,9.657432556152344,2.1846470832824707,0.7034898400306702
1761333911458336300,6.965336181640625,9.255437850952148,2.2372891902923584,0.9403793215751648
1761333911477036500,6.98403662109375,9.006584167480469,2.3234307765960693,0.8638089895248413
1761333911495736800,7.00273681640625,8.965906143188477,2.392822742462158,0.8327022790908813
1761333911514437400,7.021437255859375,9.083154678344727,2.352144718170166,0.8446664214134216
1761333911533137700,7.0401376953125,9.200403213500977,2.3641088008880615,0.6675975322723389
1761333911551838200,7.058838134765625,9.497113227844238,2.304288148880005,0.44027936458587646
1761333911570538500,7.07753857421875,9.879964828491211,2.2683959007263184,0.31345975399017334
1761333911589238800,7.09623876953125,10.04985523223877,2.242074728012085,0.18903298676013947
1761333911607939300,7.114939208984375,10.01874828338623,2.2995026111602783,0.14117653667926788
1761333911626639600,7.1336396484375,9.954142570495605,2.344966173171997,0.1818545162677765
1761333911645340200,7.152340087890625,10.009177207946777,2.2779672145843506,0.38763725757598877
1761333911664040400,7.17104052734375,9.772287368774414,2.366501569747925,0.47617170214653015
1761333911682740700,7.18974072265625,9.600004196166992,2.3186452388763428,0.8111668825149536
1761333911701441300,7.208441162109375,9.628718376159668,2.256431818008423,1.124626636505127
1761333911720141600,7.2271416015625,9.384650230407715,2.273181438446045,1.2059825658798218
1761333911738842000,7.245842041015625,8.920442581176758,2.421536445617676,0.8446664214134216
1761333911757542400,7.26454248046875,8.793622970581055,2.5292134284973145,0.5096712112426758
1761333911776243000,7.283242919921875,8.93958568572998,2.651247501373291,0.19142581522464752
1761333911794943200,7.301943115234375,9.473184585571289,2.526820659637451,-0.007178467698395252
1761333911813643500,7.3206435546875,10.171889305114746,2.3497519493103027,0.1579262912273407
1761333911832344000,7.339343994140625,10.64088249206543,2.1822543144226074,0.31824541091918945
1761333911851044400,7.35804443359375,10.497312545776367,2.100898265838623,0.2727817893028259
1761333911869745000,7.376744873046875,9.884750366210938,2.179861545562744,0.2991028428077698
1761333911888445200,7.395445068359375,9.432506561279297,2.280359983444214,0.48095735907554626
1761333911907145700,7.414145751953125,9.183652877807617,2.3641088008880615,0.5982056856155396
1761333911925846000,7.432845947265625,9.028120040893555,2.4813570976257324,0.6795616149902344
1761333911944546600,7.451546630859375,9.011369705200195,2.526820659637451,0.727418065071106
1761333911963246800,7.470246826171875,9.207581520080566,2.548356056213379,0.794417142868042
1761333911981947400,7.488947509765625,9.547362327575684,2.4717857837677,0.760917603969574
1761333912000647700,7.507647705078125,9.743574142456055,2.423929452896118,0.4498506486415863
1761333912019348000,7.526347900390625,9.949356079101562,2.3736801147460938,0.20817556977272034
1761333912038048500,7.545048583984375,10.171889305114746,2.251646041870117,0.27756741642951965
1761333912056748800,7.563748779296875,10.29153060913086,2.1296122074127197,0.46420758962631226
1761333912075449300,7.582449462890625,9.908679008483887,2.1367905139923096,0.6245267391204834
1761333912094149600,7.601149658203125,9.083154678344727,2.407179594039917,0.4833501875400543
1761333912112850000,7.619849853515625,8.578269004821777,2.6177480220794678,0.30149564146995544
1761333912131550500,7.638550537109375,8.769695281982422,2.7110681533813477,0.275174617767334
1761333912150250800,7.657250732421875,9.58325481414795,2.5292134284973145,0.5335994362831116
1761333912168951300,7.675951416015625,10.382457733154297,2.3018953800201416,0.8159525394439697
1761333912187651600,7.694651611328125,10.365707397460938,2.1822543144226074,0.7896314859390259
1761333912206352000,7.713351806640625,9.741181373596191,2.2779672145843506,0.380458801984787
1761333912225052400,7.732052490234375,9.133403778076172,2.383251428604126,0.07417750358581543
1761333912243752700,7.750752685546875,9.090332984924316,2.3784656524658203,0.031106693670153618
1761333912262453200,7.769453369140625,9.492327690124512,2.3401806354522705,0.21774685382843018
1761333912281153500,7.788153564453125,9.841679573059082,2.3306093215942383,0.4426721930503845
1761333912299854000,7.80685400390625,9.90149974822998,2.366501569747925,0.6029912829399109
1761333912318554400,7.825554443359375,9.738788604736328,2.423929452896118,0.6699903607368469
1761333912337255000,7.8442548828125,9.521040916442871,2.4406790733337402,0.5910272002220154
1761333912355955200,7.862955078125,9.284152030944824,2.4335005283355713,0.4546363055706024
1761333912374655700,7.88165576171875,9.243474006652832,2.3808584213256836,0.4139583110809326
1761333912393356000,7.90035595703125,9.45882797241211,2.3258235454559326,0.4163511395454407
1761333912412056600,7.919056640625,9.741181373596191,2.2995026111602783,0.397208571434021
1761333912430756900,7.9377568359375,9.877572059631348,2.297109842300415,0.4546363055706024
1761333912449457200,7.95645703125,9.695717811584473,2.3856441974639893,0.34217363595962524
1761333912468157700,7.97515771484375,9.468399047851562,2.445464849472046,0.31345975399017334
1761333912486858000,7.99385791015625,9.525827407836914,2.400001049041748,0.36610186100006104
1761333912505558500,8.01255859375,9.717252731323242,2.4263222217559814,0.5048855543136597
1761333912524258800,8.0312587890625,9.958928108215332,2.2947168350219727,0.8422735929489136
1761333912542959400,8.04995947265625,10.116853713989258,2.225325107574463,1.093519926071167
1761333912561659600,8.06865966796875,9.827322959899902,2.2636101245880127,1.160519003868103
1761333912580360000,8.08735986328125,9.083154678344727,2.3976082801818848,0.8446664214134216
1761333912599060500,8.106060546875,8.666803359985352,2.5914268493652344,0.33020952343940735
1761333912617760800,8.1247607421875,8.879764556884766,2.6297121047973633,0.15074782073497772
1761333912636461300,8.14346142578125,9.480362892150879,2.550748825073242,0.16749759018421173
1761333912655161600,8.16216162109375,10.224531173706055,2.359323024749756,0.2679961323738098
1761333912673862000,8.18086181640625,10.588240623474121,2.1583259105682373,0.3326023519039154
1761333912692562400,8.1995625,10.418350219726562,2.076970100402832,0.31824541091918945
1761333912711262700,8.2182626953125,9.920642852783203,2.163111686706543,0.27756741642951965
1761333912729963300,8.23696337890625,9.475577354431152,2.2923240661621094,0.3206382393836975
1761333912748663600,8.25566357421875,9.075976371765137,2.3976082801818848,0.41156548261642456
1761333912767364000,8.274364013671875,8.9850492477417,2.500499725341797,0.5479564070701599
1761333912786064400,8.293064453125,9.169296264648438,2.4909284114837646,0.7345965504646301
1761333912804764700,8.3117646484375,9.449256896972656,2.455035924911499,0.7106683254241943
1761333912823465200,8.33046533203125,9.573683738708496,2.328216314315796,0.5240281820297241
1761333912842165500,8.34916552734375,9.607182502746582,2.3330020904541016,0.349352091550827
1761333912860866000,8.367865966796876,9.652647018432617,2.2947168350219727,0.30628129839897156
1761333912879566300,8.38656640625,9.58325481414795,2.297109842300415,0.19381862878799438
1761333912898267000,8.405266845703125,9.53779125213623,2.287538528442383,0.12681959569454193
1761333912916967200,8.42396728515625,9.659825325012207,2.3090739250183105,0.22971096634864807
1761333912935667700,8.442667724609375,9.930213928222656,2.3617160320281982,0.6269195079803467
1761333912954368000,8.461367919921875,9.966106414794922,2.469393014907837,0.7704889178276062
1761333912973068300,8.480068359375,9.750752449035645,2.5435705184936523,0.882951557636261
1761333912991768800,8.498768798828126,9.564111709594727,2.478964328765869,1.0289137363433838
1761333913010469400,8.517469482421875,9.379864692687988,2.368894338607788,1.0360921621322632
1761333913029169700,8.536169677734375,9.08554744720459,2.328216314315796,0.763310432434082
1761333913047870000,8.554869873046876,8.882157325744629,2.4047868251800537,0.33738797903060913
1761333913066570500,8.573570556640625,8.992227554321289,2.500499725341797,0.08135596662759781
1761333913085270800,8.592270751953125,9.542576789855957,2.414358139038086,0.09571290761232376
1761333913103971300,8.610971435546874,10.212567329406738,2.3090739250183105,0.31345975399017334
1761333913122671600,8.629671630859375,10.351350784301758,2.2683959007263184,0.4259224236011505
1761333913141372200,8.6483720703125,10.308279991149902,2.289931297302246,0.43549370765686035
1761333913160072400,8.667072509765624,9.934999465942383,2.368894338607788,0.3397808074951172
1761333913178772700,8.685772705078126,9.614361763000488,2.4717857837677,0.39960137009620667
1761333913197473300,8.704473388671875,9.580862045288086,2.524427890777588,0.6628118753433228
1761333913216173600,8.723173583984375,9.621540069580078,2.4598217010498047,0.7513462901115417
1761333913234874000,8.7418740234375,9.468399047851562,2.3856441974639893,0.672383189201355
1761333913253574400,8.760574462890625,9.34875774383545,2.335394859313965,0.5455635786056519
1761333913272275000,8.77927490234375,9.22433090209961,2.321038007736206,0.40677985548973083
1761333913290975200,8.797975341796874,9.248259544372559,2.304288148880005,0.3158525824546814
1761333913309675500,8.816675537109376,9.449256896972656,2.289931297302246,0.26560330390930176
1761333913328376000,8.8353759765625,9.736394882202148,2.2444677352905273,0.34695929288864136
1761333913347076400,8.854076416015625,9.987641334533691,2.218146562576294,0.5407779216766357
1761333913365777000,8.87277685546875,9.903892517089844,2.2540390491485596,0.6197410821914673
1761333913384477200,8.891477294921875,9.372686386108398,2.447857618331909,0.3445664644241333
1761333913403177700,8.910177734375,9.028120040893555,2.5938198566436768,0.1579262912273407
1761333913421878000,8.9288779296875,9.174081802368164,2.5674986839294434,0.09092725813388824
1761333913440578600,8.94757861328125,9.698110580444336,2.462214469909668,0.16031911969184875
1761333913459278800,8.96627880859375,10.17428207397461,2.3473589420318604,0.34695929288864136
1761333913477979400,8.9849794921875,10.277173042297363,2.2468605041503906,0.4618147611618042
1761333913496679700,9.0036796875,10.037891387939453,2.242074728012085,0.37806597352027893
1761333913515380200,9.022380126953125,9.561718940734863,2.328216314315796,0.28953152894973755
1761333913534080500,9.04108056640625,9.212367057800293,2.4095723628997803,0.3086741268634796
1761333913552781000,9.059781005859374,9.21715259552002,2.3880369663238525,0.4737788736820221
1761333913571481300,9.0784814453125,9.351150512695312,2.376072883605957,0.5240281820297241
1761333913590181600,9.097181640625,9.41336441040039,2.4646072387695312,0.47617170214653015
1761333913608882200,9.115882080078125,9.332008361816406,2.495713949203491,0.40677985548973083
1761333913627582500,9.13458251953125,9.30329418182373,2.4670002460479736,0.29431718587875366
1761333913646283000,9.153282958984375,9.561718940734863,2.3736801147460938,0.15314064919948578
1761333913664983300,9.1719833984375,9.903892517089844,2.249253273010254,0.12442677468061447
1761333913683683800,9.190683837890624,10.021141052246094,2.249253273010254,0.06939185410737991
1761333913702384000,9.209384033203126,9.970891952514648,2.2396819591522217,0.07657032459974289
1761333913721084400,9.22808447265625,9.772287368774414,2.3162522315979004,0.07417750358581543
1761333913739785000,9.246784912109375,9.559326171875,2.4287149906158447,0.11006984114646912
1761333913758485200,9.2654853515625,9.501898765563965,2.3736801147460938,0.4618147611618042
1761333913777185800,9.284185791015625,9.592825889587402,2.3186452388763428,0.8279166221618652
1761333913795886000,9.302885986328125,9.461220741271973,2.3258235454559326,0.9882357716560364
1761333913814586600,9.321586669921874,9.138189315795898,2.4741785526275635,0.7537391185760498
1761333913833287000,9.340286865234376,8.944371223449707,2.5674986839294434,0.4618147611618042
1761333913851987500,9.358987548828125,9.131011009216309,2.6153552532196045,0.2967100143432617
1761333913870687700,9.377687744140625,9.789037704467773,2.4837498664855957,0.25363919138908386
1761333913889388000,9.396387939453126,10.480563163757324,2.280359983444214,0.40677985548973083
1761333913908088600,9.415088623046875,10.715060234069824,2.1678972244262695,0.48095735907554626
1761333913926788900,9.433788818359375,10.308279991149902,2.1607189178466797,0.349352091550827
1761333913945489400,9.452489501953124,9.686145782470703,2.2325034141540527,0.15314064919948578
1761333913964189700,9.471189697265626,9.315258979797363,2.304288148880005,0.24885354936122894
1761333913982890200,9.48989013671875,9.22433090209961,2.3617160320281982,0.47617170214653015
1761333914001590500,9.508590576171875,9.365508079528809,2.3736801147460938,0.7465606927871704
1761333914020290800,9.527290771484376,9.521040916442871,2.289931297302246,0.9284151792526245
1761333914038991400,9.545991455078125,9.31047248840332,2.3569302558898926,0.763310432434082
1761333914057691600,9.564691650390625,8.889336585998535,2.469393014907837,0.5024927258491516
1761333914076392200,9.58339208984375,8.896514892578125,2.445464849472046,0.2847459018230438
1761333914095092500,9.602092529296876,9.509077072143555,2.311466693878174,0.2679961323738098
1761333914113793000,9.62079296875,10.195816993713379,2.170290231704712,0.349352091550827
1761333914132493300,9.639493408203125,10.191031455993652,2.218146562576294,0.30628129839897156
1761333914151193900,9.65819384765625,9.846465110778809,2.342573404312134,0.18424734473228455
1761333914169894100,9.67689404296875,9.621540069580078,2.3784656524658203,0.08135596662759781
1761333914188594700,9.6955947265625,9.643074989318848,2.342573404312134,0.20099709928035736
1761333914207295000,9.714294921875,9.578469276428223,2.3736801147460938,0.31345975399017334
1761333914225995500,9.73299560546875,9.487542152404785,2.4047868251800537,0.4259224236011505
1761333914244695800,9.75169580078125,9.590433120727539,2.4335005283355713,0.6580262184143066
1761333914263396400,9.770396240234374,9.832108497619629,2.344966173171997,0.9068797826766968
1761333914282096600,9.7890966796875,9.78664493560791,2.3617160320281982,0.9523434042930603
1761333914300797200,9.807797119140625,9.370293617248535,2.438286304473877,0.7728816866874695
1761333914319497500,9.82649755859375,9.020941734313965,2.5124638080596924,0.34695929288864136
1761333914338197800,9.84519775390625,8.992227554321289,2.5746772289276123,0.08614161610603333
1761333914356898300,9.863898193359375,9.329615592956543,2.5196423530578613,-0.11964113265275955
1761333914375598600,9.8825986328125,10.061819076538086,2.2923240661621094,-0.007178467698395252
1761333914394299100,9.901299072265624,10.578668594360352,2.1750757694244385,0.27756741642951965
1761333914412999400,9.91999951171875,10.401599884033203,2.2133610248565674,0.3278166949748993
1761333914431700000,9.938699951171875,9.877572059631348,2.251646041870117,0.2799602448940277
1761333914450400300,9.957400146484375,9.30329418182373,2.337787628173828,0.1818545162677765
1761333914469100500,9.9761005859375,9.028120040893555,2.3401806354522705,0.22013968229293823
1761333914487801000,9.994801025390625,9.135796546936035,2.273181438446045,0.3852444589138031
1761333914506501400,10.01350146484375,9.272188186645508,2.311466693878174,0.6460621356964111
1761333914525202000,10.032201904296874,9.614361763000488,2.3712873458862305,0.8422735929489136
1761333914543902200,10.050902099609376,9.702896118164062,2.423929452896118,0.7322037220001221
1761333914562602800,10.069602783203125,9.762716293334961,2.3401806354522705,0.6556333899497986
1761333914581303000,10.088302978515625,9.853643417358398,2.2923240661621094,0.6436693072319031
1761333914600003600,10.107003662109374,10.217352867126465,2.2133610248565674,0.6125625967979431
