time,seconds_elapsed,z,y,x
1761330806748644400,0.061644287109375,0,0,0
1761330806767345000,0.080344970703125,-0.17278003692626953,0.01702404022216797,-0.05139344930648804
1761330806786045700,0.099045654296875,-0.44597721099853516,0.00940847396850586,-0.1327904462814331
1761330806804746200,0.117746337890625,-0.5131597518920898,0.0007128715515136719,-0.16148990392684937
1761330806823447000,0.136447021484375,-0.4330921173095703,-0.0018024444580078125,-0.07163923978805542
1761330806842147800,0.15514794921875,-0.19155025482177734,0.0004172325134277344,-0.12312400341033936
1761330806860848400,0.173848388671875,-0.02272510528564453,-0.02075958251953125,-0.0915873646736145
1761330806879549200,0.192549072265625,-0.1074056625366211,-0.07668113708496094,-0.06817078590393066
1761330806898249700,0.211249755859375,-0.3584270477294922,-0.04522991180419922,0.0009312033653259277
1761330806916950500,0.229950439453125,-0.4530644416809082,0.035654544830322266,0.05511564016342163
1761330806935651000,0.248651123046875,-0.10313796997070312,0.11151313781738281,0.00042068958282470703
1761330806954351900,0.267351806640625,0.07682418823242188,-0.06211233139038086,0.14805227518081665
1761330806973052400,0.286052490234375,0.15583133697509766,0.012054443359375,0.19650334119796753
1761330806991753200,0.304753173828125,0.1984720230102539,0.10055828094482422,0.02919667959213257
1761330807010453800,0.323453857421875,0.18782997131347656,0.2184915542602539,-0.07522040605545044
1761330807029154600,0.342154541015625,0.3485116958618164,0.3058662414550781,-0.022474467754364014
1761330807047855000,0.360855224609375,0.45650196075439453,0.19821834564208984,0.00022602081298828125
1761330807066556000,0.379555908203125,0.2749032974243164,0.2464456558227539,0.003956437110900879
1761330807085256400,0.39825634765625,0.07046222686767578,0.3901638984680176,-0.03433793783187866
1761330807103957200,0.416957275390625,-0.029046058654785156,0.41062068939208984,-0.25960350036621094
1761330807122658000,0.435657958984375,0.0027799606323242188,0.3372359275817871,-0.16620314121246338
1761330807141358600,0.454358642578125,0.10565567016601562,0.3505368232727051,-0.14193940162658691
1761330807160059400,0.473059326171875,0.5654458999633789,0.2538273334503174,-0.24044710397720337
1761330807178760000,0.491760009765625,1.032973289489746,0.20746588706970215,-0.24627596139907837
1761330807197460700,0.510460693359375,0.9213981628417969,0.21451902389526367,-0.12457418441772461
1761330807216161300,0.529161376953125,0.7637519836425781,0.25258374214172363,-0.10515862703323364
1761330807234862000,0.547862060546875,0.6185903549194336,0.17757177352905273,0.11903360486030579
1761330807253563000,0.56656298828125,0.3876667022705078,0.19530248641967773,-0.02461904287338257
1761330807272263400,0.585263427734375,0.2169780731201172,0.37293338775634766,-0.01141706109046936
1761330807290964200,0.603964111328125,0.1376323699951172,0.07621002197265625,0.025004297494888306
1761330807309665000,0.6226650390625,0.30005741119384766,-0.17664337158203125,0.06885913014411926
1761330807328365600,0.641365478515625,0.5098934173583984,-0.3615851402282715,0.0924733430147171
1761330807347066400,0.66006640625,0.7513666152954102,-0.6180710792541504,0.04758578538894653
1761330807365767000,0.678766845703125,1.096536636352539,-0.6962740421295166,0.06827589869499207
1761330807384467700,0.6974677734375,1.453338623046875,-0.9297118186950684,0.1862177848815918
1761330807403168300,0.716168212890625,1.4213790893554688,-1.0363974571228027,0.42674487829208374
1761330807421869000,0.734869140625,1.2109909057617188,-0.9964890480041504,0.5949954986572266
1761330807440569600,0.753569580078125,0.9286623001098633,-1.031886100769043,0.9218892455101013
1761330807459270400,0.7722705078125,0.3297853469848633,-1.0487744808197021,1.190342903137207
1761330807477971000,0.790970947265625,-0.2572317123413086,-1.0826256275177002,1.2948225736618042
1761330807496671700,0.809671630859375,-0.7924814224243164,-1.2090563774108887,1.1414589881896973
1761330807515372500,0.82837255859375,-0.9102725982666016,-1.4002790451049805,1.1375117301940918
1761330807534073300,0.8470732421875,-0.6999101638793945,-1.504410743713379,1.2346739768981934
1761330807552774000,0.86577392578125,-0.4374408721923828,-1.3936188220977783,1.2483978271484375
1761330807571474700,0.884474609375,-0.24610424041748047,-1.1531786918640137,1.3900249004364014
1761330807590175200,0.90317529296875,-0.15931034088134766,-0.8769261837005615,1.5300053358078003
1761330807608876000,0.9218759765625,0.2281494140625,-0.875887393951416,1.2781612873077393
1761330807627576600,0.94057666015625,0.5119256973266602,-0.9586081504821777,1.087097406387329
1761330807646277400,0.95927734375,0.4850749969482422,-0.9070084095001221,1.0018357038497925
1761330807664978000,0.97797802734375,0.10879039764404297,-0.8668653964996338,0.977023720741272
1761330807683678700,0.9966787109375,-0.12145423889160156,-0.5199112892150879,1.0834490060806274
1761330807702379500,1.015379638671875,-0.048432350158691406,-0.23778676986694336,1.1025667190551758
1761330807721080300,1.034080322265625,0.10503101348876953,-0.21472954750061035,0.9209288358688354
1761330807739780900,1.05278076171875,0.007860183715820312,-0.07584047317504883,0.5556699633598328
1761330807758481700,1.071481689453125,-0.1329212188720703,-0.013934850692749023,-0.02499377354979515
1761330807777182200,1.09018212890625,0.10148906707763672,0.0202789306640625,-0.33941614627838135
1761330807795883000,1.108883056640625,0.28385066986083984,-0.06386613845825195,0.3017504811286926
1761330807814583600,1.12758349609375,0.2996025085449219,-0.15306758880615234,1.2918086051940918
1761330807833284400,1.146284423828125,0.0691823959350586,-0.0065441131591796875,1.48753023147583
1761330807851985200,1.164985107421875,-0.35228538513183594,0.10124421119689941,1.1974718570709229
1761330807870685700,1.183685791015625,-0.6891059875488281,0.12353825569152832,0.7421361207962036
1761330807889386500,1.202386474609375,-0.7358131408691406,0.26015520095825195,0.6224029660224915
1761330807908087300,1.22108740234375,-0.8464879989624023,0.4608602523803711,0.7820771932601929
1761330807926787800,1.239787841796875,-1.031050682067871,0.7017993927001953,0.6042916178703308
1761330807945488600,1.258488525390625,-0.8995742797851562,0.9132764339447021,0.236954927444458
1761330807964189200,1.277189208984375,-0.4727458953857422,0.9196658134460449,0.08225023746490479
1761330807982890000,1.295889892578125,-0.19303226470947266,0.7945859432220459,0.20380592346191406
1761330808001590800,1.3145908203125,-0.04171943664550781,0.7885775566101074,0.20539066195487976
1761330808020291600,1.33329150390625,-0.028490066528320312,0.7744216918945312,0.18437373638153076
1761330808038992100,1.3519921875,0.004917144775390625,0.7944908142089844,0.2067869007587433
1761330808057693000,1.37069287109375,0.05098533630371094,0.7731618881225586,0.25423943996429443
1761330808076393500,1.3893935546875,0.0974721908569336,0.7729911804199219,0.23280936479568481
1761330808095094300,1.40809423828125,0.2478170394897461,0.6248831748962402,-0.23392844200134277
1761330808113794800,1.426794921875,0.6239509582519531,0.26734066009521484,-0.5993567705154419
1761330808132495600,1.44549560546875,0.9122552871704102,-0.05823469161987305,-0.6716890931129456
1761330808151196400,1.464196533203125,1.0152978897094727,0.22790169715881348,-1.0670913457870483
1761330808169897200,1.482897216796875,1.4649877548217773,0.48931169509887695,-1.3482162952423096
1761330808188597800,1.50159765625,1.7986087799072266,0.42961955070495605,-1.3692797422409058
1761330808207298600,1.520298583984375,1.6244001388549805,0.3856344223022461,-0.8926799297332764
1761330808225999000,1.5389990234375,1.4630317687988281,-0.07176542282104492,-0.2256244421005249
1761330808244700000,1.557699951171875,1.277928352355957,-0.6169755458831787,0.013107895851135254
1761330808263400700,1.576400634765625,0.9757394790649414,-1.0917270183563232,-0.02338719367980957
1761330808282101200,1.595101318359375,0.8532009124755859,-1.4267239570617676,0.0067833662033081055
1761330808300802000,1.613802001953125,1.108057975769043,-1.6967806816101074,0.34216082096099854
1761330808319502600,1.632502685546875,1.3132514953613281,-1.818821907043457,0.3975261151790619
1761330808338203400,1.651203369140625,1.0675592422485352,-1.598478078842163,0.247329443693161
1761330808356904200,1.669904296875,0.680668830871582,-1.3755114078521729,0.29317307472229004
1761330808375605000,1.68860498046875,0.4937477111816406,-1.236752986907959,0.2418447732925415
1761330808394305500,1.707305419921875,0.35099315643310547,-1.0739545822143555,0.0757635235786438
1761330808413006300,1.72600634765625,0.06466960906982422,-1.0020196437835693,-0.05511075258255005
1761330808431707100,1.74470703125,-0.40105342864990234,-0.921889066696167,-0.21250855922698975
1761330808450407700,1.76340771484375,-0.7684860229492188,-0.8363406658172607,-0.20208638906478882
1761330808469108500,1.7821083984375,-0.888397216796875,-0.9169270992279053,-0.25219595432281494
1761330808487809300,1.800809326171875,-0.9995183944702148,-0.9349677562713623,-0.3985136151313782
1761330808506509800,1.819509765625,-1.1317558288574219,-0.7584667205810547,-0.4863998293876648
1761330808525210600,1.838210693359375,-1.2824125289916992,-0.5035088062286377,-0.6116284132003784
1761330808543911400,1.856911376953125,-1.3829631805419922,-0.34157586097717285,-0.6903367638587952
1761330808562612000,1.875612060546875,-1.617753505706787,-0.2735555171966553,-0.6172499656677246
1761330808581312800,1.894312744140625,-1.7733898162841797,-0.2178330421447754,-0.3107212781906128
1761330808600013600,1.913013671875,-1.647627830505371,-0.2130110263824463,-0.09716945886611938
1761330808618714000,1.931714111328125,-1.2057199478149414,-0.1893911361694336,-0.2465875744819641
1761330808637415000,1.950414794921875,-0.719212532043457,-0.19036269187927246,-0.39171451330184937
1761330808656115700,1.96911572265625,-0.41306209564208984,-0.1727890968322754,-0.457608163356781
1761330808674816300,1.987816162109375,-0.2720804214477539,-0.002355337142944336,-0.6880592703819275
1761330808693517000,2.00651708984375,-0.19169998168945312,0.06006979942321777,-0.9673805832862854
1761330808712217900,2.0252177734375,-0.0829324722290039,0.14293670654296875,-1.0706206560134888
1761330808730918700,2.043918701171875,-0.14523029327392578,0.29433536529541016,-1.182818055152893
1761330808749619200,2.062619140625,-0.19498920440673828,0.5444974899291992,-1.1673921346664429
1761330808768320000,2.081320068359375,-0.23066997528076172,0.641273021697998,-0.7617884874343872
1761330808787020500,2.1000205078125,-0.31200408935546875,0.6497297286987305,-0.40258800983428955
1761330808805721300,2.118721435546875,-0.34439754486083984,0.716336727142334,-0.45950090885162354
1761330808824422100,2.137422119140625,-0.13604164123535156,0.720531702041626,-0.6541157364845276
1761330808843123000,2.156123046875,0.6272344589233398,0.5641260147094727,-0.6859647631645203
1761330808861823500,2.174823486328125,1.4986724853515625,0.32464170455932617,-0.6515122652053833
1761330808880524300,2.193524169921875,2.149974822998047,0.3455631732940674,-0.5206522345542908
1761330808899225000,2.21222509765625,2.031928062438965,0.4012584686279297,-0.4430844187736511
1761330808917925600,2.230925537109375,1.578669548034668,0.2688894271850586,-0.2172393798828125
1761330808936626400,2.24962646484375,1.0898895263671875,-0.12013554573059082,0.10643815994262695
1761330808955327200,2.2683271484375,1.090871810913086,-0.8940675258636475,0.41040655970573425
1761330808974028000,2.287028076171875,1.6822786331176758,-1.62937593460083,0.4225492477416992
1761330808992728600,2.305728515625,2.1940603256225586,-2.1011269092559814,0.20224954187870026
1761330809011429400,2.324429443359375,2.0730981826782227,-2.048192024230957,-0.5135191679000854
1761330809030130000,2.3431298828125,1.498063087463379,-1.7074344158172607,-1.204979419708252
1761330809048830700,2.361830810546875,1.0405073165893555,-1.3251140117645264,-1.4543768167495728
1761330809067531500,2.380531494140625,0.691431999206543,-1.1665689945220947,-1.1104861497879028
1761330809086232300,2.399232421875,0.2630939483642578,-1.135108470916748,-0.43160951137542725
1761330809104932900,2.417932861328125,-0.2572355270385742,-0.9385430812835693,0.04882088303565979
1761330809123633700,2.436633544921875,-0.6927757263183594,-0.7546737194061279,0.3483862578868866
1761330809142334500,2.45533447265625,-1.0498151779174805,-0.6736557483673096,0.2417064607143402
1761330809161035000,2.474034912109375,-1.2230091094970703,-0.7383110523223877,-0.037180185317993164
1761330809179735800,2.49273583984375,-1.2515921592712402,-0.7703983783721924,-0.31802284717559814
1761330809198436600,2.5114365234375,-1.0060100555419922,-0.6896977424621582,-0.39846521615982056
1761330809217137400,2.530137451171875,-0.8895177841186523,-0.6337995529174805,-0.14961117506027222
1761330809235838000,2.548837890625,-0.8730497360229492,-0.647355318069458,0.0413244366645813
1761330809254538800,2.567538818359375,-0.9069013595581055,-0.5721597671508789,0.14179128408432007
1761330809273239600,2.586239501953125,-0.8671245574951172,-0.4175553321838379,0.3068808913230896
1761330809291940000,2.604940185546875,-0.8511877059936523,-0.24559259414672852,0.2799818813800812
1761330809310641000,2.623640869140625,-0.7979516983032227,-0.015260696411132812,0.2316807210445404
1761330809329341700,2.642341796875,-0.8262453079223633,0.1739051342010498,0.4353843033313751
1761330809348042500,2.66104248046875,-0.8414478302001953,0.28188395500183105,0.5500394105911255
1761330809366743000,2.679742919921875,-0.7608203887939453,0.3221452236175537,0.467751681804657
1761330809385443800,2.69844384765625,-0.5514888763427734,0.24042677879333496,0.2520081102848053
1761330809404144600,2.71714453125,-0.4047966003417969,0.06489157676696777,0.10946357250213623
1761330809422845400,2.735845458984375,-0.3204355239868164,0.02523326873779297,-0.23453277349472046
1761330809441546000,2.7545458984375,-0.11093902587890625,0.0332026481628418,-0.6496526598930359
1761330809460246800,2.773246826171875,0.31377696990966797,-0.08038949966430664,-0.9521195292472839
1761330809478947600,2.791947509765625,0.48124122619628906,-0.07889437675476074,-1.2244856357574463
1761330809497648000,2.810648193359375,0.5340824127197266,0.11976504325866699,-1.2931023836135864
1761330809516349000,2.829348876953125,0.5804004669189453,0.2401723861694336,-1.1237900257110596
1761330809535049700,2.8480498046875,0.6413326263427734,0.26088976860046387,-1.0274991989135742
1761330809553750500,2.86675048828125,0.9409456253051758,0.44318056106567383,-1.3456698656082153
1761330809572451000,2.885451171875,0.9393520355224609,0.7361650466918945,-1.9510432481765747
1761330809591151900,2.90415185546875,0.733119010925293,0.9319188594818115,-2.1119320392608643
1761330809609852700,2.922852783203125,0.6101131439208984,0.8708341121673584,-1.5728589296340942
1761330809628553200,2.94155322265625,0.8200445175170898,0.21908068656921387,-0.7691865563392639
1761330809647254000,2.96025390625,1.5020999908447266,-0.818911075592041,-0.3739161193370819
1761330809665954800,2.978954833984375,1.9175643920898438,-1.7299851179122925,-0.4079135060310364
1761330809684655600,2.997655517578125,1.8971548080444336,-1.9566643238067627,-1.2495864629745483
1761330809703356400,3.0163564453125,1.3218517303466797,-1.8197388648986816,-2.183314323425293
1761330809722057200,3.03505712890625,0.5684967041015625,-1.6256904602050781,-2.484776258468628
1761330809740757800,3.0537578125,-0.03851890563964844,-1.4184192419052124,-2.1125640869140625
1761330809759458600,3.07245849609375,-0.3606548309326172,-1.2055039405822754,-1.6118731498718262
1761330809778159400,3.091159423828125,-0.5895252227783203,-1.229102373123169,-1.063361406326294
1761330809796860000,3.10985986328125,-0.77947998046875,-1.2054674625396729,-0.8393141031265259
1761330809815560700,3.128560791015625,-0.7775983810424805,-1.1394445896148682,-0.9509503245353699
1761330809834261500,3.147261474609375,-0.6882963180541992,-1.0846107006072998,-1.3629696369171143
1761330809852962300,3.16596240234375,-0.8111896514892578,-1.0067946910858154,-1.614023208618164
1761330809871662800,3.184662841796875,-0.9737634658813477,-0.8213016986846924,-1.6997148990631104
1761330809890363600,3.20336376953125,-1.0971832275390625,-0.6195025444030762,-1.6230870485305786
1761330809909064400,3.222064453125,-1.031285285949707,-0.5413076877593994,-1.2548153400421143
1761330809927765200,3.24076513671875,-0.9323434829711914,-0.512134313583374,-0.9884375333786011
1761330809946466000,3.259466064453125,-0.9145994186401367,-0.4017460346221924,-1.0495102405548096
1761330809965166600,3.27816650390625,-0.996612548828125,-0.2792363166809082,-1.216361403465271
1761330809983867400,3.296867431640625,-0.9540119171142578,-0.20678210258483887,-1.3163273334503174
1761330810002568200,3.315568115234375,-0.7060890197753906,-0.13009405136108398,-1.2389428615570068
1761330810021268700,3.334268798828125,-0.2681913375854492,-0.08691549301147461,-1.0313546657562256
1761330810039969500,3.352969482421875,0.1190500259399414,-0.0006499290466308594,-0.8272848129272461
1761330810058670300,3.37167041015625,0.2969532012939453,0.11097240447998047,-0.6651235222816467
1761330810077371100,3.39037109375,0.1644268035888672,0.272352933883667,-0.6240602135658264
1761330810096072000,3.409072021484375,0.12092113494873047,0.531092643737793,-0.6146402955055237
1761330810114772700,3.427772705078125,0.4405479431152344,0.6677887439727783,-0.47457408905029297
1761330810133473300,3.446473388671875,0.6569595336914062,0.5954341888427734,-0.29968610405921936
1761330810152174000,3.465174072265625,0.6180906295776367,0.41935086250305176,-0.1972842812538147
1761330810170875000,3.483875,0.6715898513793945,0.20267796516418457,-0.13761405646800995
1761330810189575400,3.502575439453125,1.0495319366455078,0.3647480010986328,-0.2912991940975189
1761330810208276200,3.521276123046875,1.4309911727905273,0.542219877243042,-0.3506007492542267
1761330810226977000,3.53997705078125,1.732783317565918,0.3899352550506592,-0.027126163244247437
1761330810245677800,3.558677734375,2.192720413208008,0.044539451599121094,0.5447389483451843
1761330810264378600,3.577378662109375,2.629373550415039,-0.3693981170654297,0.5637667179107666
1761330810283079200,3.5960791015625,2.7387123107910156,-0.7162811756134033,0.30085963010787964
1761330810301780000,3.614780029296875,2.3516292572021484,-0.7966289520263672,-0.05798780918121338
1761330810320480800,3.633480712890625,1.9419775009155273,-0.8157863616943359,-0.17643994092941284
1761330810339181600,3.652181640625,1.71295166015625,-1.087644338607788,-0.16946697235107422
1761330810357882400,3.67088232421875,1.2870721817016602,-1.3844448328018188,-0.03723841905593872
1761330810376583000,3.6895830078125,0.5363368988037109,-1.488898754119873,0.12825703620910645
1761330810395283700,3.70828369140625,-0.35682201385498047,-1.3797521591186523,0.22324234247207642
1761330810413984500,3.726984619140625,-1.1404228210449219,-1.1600816249847412,0.1947939395904541
1761330810432685300,3.745685302734375,-1.7513647079467773,-0.9927668571472168,0.004946708679199219
1761330810451385900,3.7643857421875,-2.180850028991699,-0.8814702033996582,-0.18325373530387878
1761330810470086700,3.783086669921875,-2.213465690612793,-0.6560478210449219,-0.32093241810798645
1761330810488787500,3.801787353515625,-1.9617729187011719,-0.4687948226928711,-0.42163050174713135
1761330810507488300,3.82048828125,-1.5123887062072754,-0.3694944381713867,-0.4475323557853699
1761330810526189000,3.83918896484375,-1.1650638580322266,-0.22647953033447266,-0.2774512767791748
1761330810544889600,3.8578896484375,-1.0178308486938477,-0.01677703857421875,-0.08107855916023254
1761330810563590400,3.87659033203125,-0.8621387481689453,0.1853775978088379,0.1863856315612793
1761330810582291200,3.895291259765625,-0.49306201934814453,0.31052660942077637,0.2887527346611023
1761330810600992000,3.913991943359375,-0.081634521484375,0.39325594902038574,0.19397638738155365
1761330810619692800,3.93269287109375,0.3436117172241211,0.4792592525482178,0.090751513838768
1761330810638393300,3.951393310546875,0.6040611267089844,0.5839338302612305,0.004369862377643585
1761330810657094400,3.970094482421875,0.595860481262207,0.6000699996948242,0.14762741327285767
1761330810675795000,3.988794921875,0.3466176986694336,0.6511514186859131,0.3532886505126953
1761330810694495700,4.007495849609375,-0.052336692810058594,0.6808161735534668,0.6160513758659363
1761330810713196500,4.026196533203125,-0.2702207565307617,0.6930932998657227,0.6320483088493347
1761330810731897000,4.04489697265625,-0.3821601867675781,0.45222902297973633,0.7635003924369812
1761330810750598100,4.06359814453125,-0.6321334838867188,0.34937262535095215,0.802986741065979
1761330810769298700,4.082298583984375,-0.9239006042480469,0.5649151802062988,0.4805524945259094
1761330810787999500,4.10099951171875,-1.058746337890625,0.8781960010528564,0.20524919033050537
1761330810806700300,4.1197001953125,-0.6973371505737305,1.1238579750061035,-0.2752026319503784
1761330810825400800,4.13840087890625,-0.08053779602050781,1.1803398132324219,-0.8613791465759277
1761330810844102000,4.157101806640625,0.8688478469848633,1.326014757156372,-1.554023027420044
1761330810862802400,4.175802490234375,2.0757246017456055,1.6686732769012451,-1.8872709274291992
1761330810881503200,4.194503173828125,2.2399396896362305,1.7297983169555664,-1.4287736415863037
1761330810900204000,4.2132041015625,2.0212039947509766,1.2845044136047363,-0.7832165360450745
1761330810918904800,4.23190478515625,2.4346609115600586,0.2594413757324219,-0.32033097743988037
1761330810937605600,4.250605712890625,2.7135868072509766,-0.7560937404632568,-0.5408641695976257
1761330810956306200,4.26930615234375,2.3496484756469727,-1.3283562660217285,-1.3154115676879883
1761330810975007000,4.288007080078125,1.769815444946289,-1.5828839540481567,-1.996492862701416
1761330810993707800,4.306707763671875,1.252573013305664,-1.870743989944458,-1.8763439655303955
1761330811012408600,4.32540869140625,0.6970005035400391,-2.075500249862671,-1.021003007888794
1761330811031109400,4.344109375,0.1677713394165039,-1.9945244789123535,-0.11616814136505127
1761330811049810200,4.36281005859375,-0.41942501068115234,-1.8610769510269165,0.22996897995471954
1761330811068510700,4.3815107421875,-1.0493841171264648,-1.8317419290542603,0.09137064218521118
1761330811087211500,4.40021142578125,-1.8316850662231445,-1.6634719371795654,-0.016523927450180054
1761330811105912300,4.418912353515625,-2.5548830032348633,-1.2905378341674805,0.12246663123369217
1761330811124613000,4.437613037109375,-3.138233184814453,-0.880284309387207,0.48265382647514343
1761330811143314000,4.45631396484375,-2.519334316253662,-0.7354049682617188,0.6657242774963379
1761330811162014700,4.4750146484375,-1.7476177215576172,-0.5523500442504883,0.1672210395336151
1761330811180715500,4.493715576171875,-1.3051557540893555,-0.14405488967895508,-0.3593987226486206
1761330811199416000,4.512416015625,-1.2161169052124023,0.23766398429870605,-0.5399635434150696
1761330811218116900,4.531116943359375,-1.1955060958862305,0.2544386386871338,-0.49193915724754333
1761330811236817700,4.549817626953125,-0.9705047607421875,0.19451332092285156,-0.4887731373310089
1761330811255518500,4.5685185546875,-0.7869167327880859,0.09650039672851562,-0.3444308042526245
1761330811274219300,4.58721923828125,-0.9726247787475586,0.019121885299682617,-0.06530958414077759
1761330811292919800,4.605919921875,-0.843968391418457,0.2477114200592041,-0.14300544559955597
1761330811311620900,4.624620849609375,-0.6160116195678711,0.47787952423095703,-0.48511290550231934
1761330811330321400,4.6433212890625,-0.4433879852294922,0.6530389785766602,-0.6712532639503479
1761330811349022200,4.662022216796875,-0.181488037109375,0.6471657752990723,-0.4437679648399353
1761330811367723000,4.680722900390625,0.17312240600585938,0.48584580421447754,-0.006609328091144562
1761330811386423800,4.699423828125,0.5170707702636719,0.49416232109069824,0.2915312647819519
1761330811405124600,4.71812451171875,1.0806055068969727,0.6257331371307373,0.446168452501297
1761330811423825400,4.736825439453125,1.4226713180541992,0.5045449733734131,0.6453845500946045
1761330811442526000,4.75552587890625,1.918623924255371,0.40535712242126465,0.5269277095794678
1761330811461226800,4.774226806640625,2.5857954025268555,0.5132832527160645,0.06278935819864273
1761330811479927600,4.792927490234375,2.6305150985717773,0.5167293548583984,-0.22607913613319397
1761330811498628400,4.81162841796875,1.939305305480957,0.3345458507537842,0.20002558827400208
1761330811517329200,4.8303291015625,1.4503421783447266,-0.0599057674407959,1.2137888669967651
1761330811536029700,4.84902978515625,2.050889015197754,-0.7703628540039062,1.9657105207443237
1761330811554730800,4.867730712890625,3.0499114990234375,-1.4894053936004639,2.153670072555542
1761330811573431300,4.886431396484375,3.1222381591796875,-1.8209367990493774,1.6949687004089355
1761330811592132000,4.905132080078125,2.2940921783447266,-1.7140733003616333,1.1143362522125244
1761330811610833000,4.9238330078125,1.2486371994018555,-1.6011533737182617,0.9103371500968933
1761330811629533700,4.94253369140625,0.26488494873046875,-1.4641177654266357,0.8477279543876648
1761330811648234500,4.961234375,-0.7138614654541016,-1.395693063735962,0.7650907039642334
1761330811666935300,4.979935302734375,-1.7700490951538086,-1.187147855758667,0.6566916108131409
1761330811685636000,4.998635986328125,-2.6904516220092773,-0.8806533813476562,0.3778165876865387
1761330811704337000,5.0173369140625,-3.0965166091918945,-0.5310351848602295,-0.09116671979427338
1761330811723037400,5.036037353515625,-2.91072940826416,-0.19800281524658203,-0.493009090423584
1761330811741738200,5.05473828125,-2.3969802856445312,-0.09789514541625977,-0.638210654258728
1761330811760439000,5.07343896484375,-1.801896572113037,0.043321847915649414,-0.7075177431106567
1761330811779139800,5.092139892578125,-1.3304738998413086,0.25223302841186523,-0.5971832871437073
1761330811797840600,5.110840576171875,-0.9186897277832031,0.16454625129699707,-0.00402262806892395
1761330811816541400,5.12954150390625,-0.76123046875,-0.1787707805633545,0.6634804606437683
1761330811835242200,5.1482421875,-0.5568771362304688,-0.396010160446167,0.968558669090271
1761330811853943000,5.166943115234375,-0.3177833557128906,-0.4584839344024658,1.0278810262680054
1761330811872643600,5.1856435546875,-0.16842365264892578,-0.32518839836120605,0.8173984885215759
1761330811891344400,5.204344482421875,-0.2688417434692383,-0.03242993354797363,0.596133828163147
1761330811910045200,5.223045166015625,-0.43148231506347656,0.23673343658447266,0.43119460344314575
1761330811928746000,5.24174609375,-0.5561637878417969,0.48665881156921387,0.40439438819885254
1761330811947446800,5.26044677734375,-0.5095748901367188,0.6689887046813965,0.5015562772750854
1761330811966147600,5.279147705078125,-0.5555286407470703,0.7182953357696533,0.5979208946228027
1761330811984848400,5.297848388671875,-0.7388525009155273,0.7141969203948975,0.24052590131759644
1761330812003549200,5.316549072265625,-0.5356225967407227,0.8212270736694336,-0.5840271711349487
1761330812022250000,5.33525,-0.07828521728515625,0.625845193862915,-1.041979432106018
1761330812040950500,5.353950439453125,0.4963035583496094,0.09610581398010254,-0.8281054496765137
1761330812059651600,5.372651611328125,1.4905214309692383,0.21558141708374023,-0.7099965810775757
1761330812078352100,5.39135205078125,2.3743391036987305,0.6452906131744385,-0.6090356111526489
1761330812097053000,5.410052978515625,2.5603981018066406,0.5571620464324951,-0.1009829193353653
1761330812115753700,5.428753662109375,2.380587577819824,0.14281606674194336,0.12074644863605499
1761330812134454500,5.44745458984375,2.4137496948242188,-0.49287915229797363,-0.1278076469898224
1761330812153155300,5.4661552734375,2.530453681945801,-1.2487232685089111,-0.3685435652732849
1761330812171856100,5.484856201171875,2.4482622146606445,-1.6873252391815186,-0.8018036484718323
1761330812190557000,5.503556884765625,2.2886877059936523,-1.7982745170593262,-1.2673261165618896
1761330812209257700,5.5222578125,1.9051504135131836,-1.790219783782959,-1.320566177368164
1761330812227958500,5.54095849609375,1.2429399490356445,-1.6539905071258545,-0.9129040241241455
1761330812246659000,5.5596591796875,0.3754253387451172,-1.3372020721435547,-0.449807345867157
1761330812265360000,5.57835986328125,-0.40033435821533203,-1.1122934818267822,-0.19804240763187408
1761330812284060700,5.597060791015625,-0.7488641738891602,-0.9603118896484375,-0.3037552535533905
1761330812302761500,5.615761474609375,-1.010416030883789,-1.0387928485870361,-0.43599599599838257
1761330812321462300,5.634462158203125,-1.327974796295166,-0.8863003253936768,-0.5965498089790344
1761330812340163000,5.6531630859375,-1.7126083374023438,-0.5652370452880859,-0.6125366687774658
1761330812358864000,5.67186376953125,-2.013432025909424,-0.2570922374725342,-0.5648962259292603
1761330812377564700,5.690564697265625,-2.1574978828430176,-0.005132436752319336,-0.6881189346313477
1761330812396265500,5.709265380859375,-2.311150074005127,0.1686241626739502,-0.6635316014289856
1761330812414966300,5.72796630859375,-2.2854623794555664,0.14535117149353027,-0.5470961928367615
1761330812433667000,5.7466669921875,-1.8770427703857422,0.09274888038635254,-0.36858198046684265
1761330812452367600,5.76536767578125,-1.3679742813110352,-0.027404069900512695,-0.3256956934928894
1761330812471068400,5.784068359375,-0.8944787979125977,-0.029016494750976562,-0.5375458002090454
1761330812489769200,5.802769287109375,-0.5403842926025391,0.098297119140625,-0.7605615854263306
1761330812508470000,5.821469970703125,-0.27873802185058594,0.30416274070739746,-0.8141360282897949
1761330812527170800,5.8401708984375,-0.016405105590820312,0.4199535846710205,-0.9579666256904602
1761330812545871600,5.85887158203125,0.17980098724365234,0.4865989685058594,-0.8894630074501038
1761330812564572400,5.877572509765625,0.20336055755615234,0.5861771106719971,-0.6824696063995361
1761330812583273200,5.896273193359375,0.18813705444335938,0.9062917232513428,-0.5770849585533142
1761330812601974000,5.91497412109375,0.26896095275878906,1.0473768711090088,-0.4945160746574402
1761330812620674800,5.9336748046875,0.42363548278808594,1.0240585803985596,-0.309030681848526
1761330812639375600,5.952375732421875,0.6565456390380859,0.8314590454101562,-0.1435130089521408
1761330812658076400,5.971076416015625,1.1709394454956055,0.4945962429046631,0.10067570209503174
1761330812676777200,5.989777099609375,1.993718147277832,0.3158590793609619,0.2272297441959381
1761330812695478000,6.00847802734375,2.391177177429199,0.7106139659881592,-0.16939455270767212
1761330812714178600,6.027178466796875,1.9431419372558594,0.5816781520843506,-0.3148472011089325
1761330812732879400,6.04587939453125,1.6107730865478516,0.2685229778289795,0.361093670129776
1761330812751580400,6.064580322265625,1.989314079284668,-0.27120256423950195,1.1837263107299805
1761330812770281000,6.083281005859375,2.419306755065918,-0.9405796527862549,1.4751648902893066
1761330812788981800,6.101981689453125,2.188657760620117,-1.5824365615844727,1.3814665079116821
1761330812807682600,6.1206826171875,1.4634981155395508,-1.7015786170959473,0.8564138412475586
1761330812826383400,6.13938330078125,0.6495389938354492,-1.6686043739318848,0.3982867896556854
1761330812845084200,6.158084228515625,0.056641578674316406,-1.7736399173736572,0.4526919424533844
1761330812863785000,6.176784912109375,-0.3719148635864258,-1.5664725303649902,0.4983527362346649
1761330812882485800,6.19548583984375,-0.918365478515625,-1.1914947032928467,0.49169307947158813
1761330812901186600,6.2141865234375,-1.594120979309082,-0.8858044147491455,0.38522911071777344
1761330812919887400,6.232887451171875,-1.9057388305664062,-0.5932726860046387,0.18094438314437866
1761330812938588200,6.251588134765625,-2.049510955810547,-0.3958253860473633,-0.1208537220954895
1761330812957289000,6.2702890625,-1.924184799194336,-0.23946213722229004,-0.4205038845539093
1761330812975989800,6.28898974609375,-1.7184152603149414,-0.17895889282226562,-0.6019367575645447
1761330812994690600,6.307690673828125,-1.567225456237793,-0.04233956336975098,-0.5444468259811401
1761330813013391400,6.326391357421875,-1.2448387145996094,-0.03489804267883301,-0.24646031856536865
1761330813032092000,6.345091796875,-0.8708114624023438,-0.17380023002624512,0.14341527223587036
1761330813050792700,6.363792724609375,-0.49983882904052734,-0.30345964431762695,0.5412465333938599
1761330813069493800,6.38249365234375,-0.16877365112304688,-0.2949240207672119,0.8100258708000183
1761330813088194600,6.401194580078125,0.09174919128417969,-0.19279050827026367,0.793483555316925
1761330813106895000,6.41989501953125,0.3374814987182617,0.20746636390686035,0.21175722777843475
1761330813125596200,6.43859619140625,0.4023580551147461,0.25301504135131836,0.12824425101280212
1761330813144296700,6.457296630859375,0.24948978424072266,0.32813310623168945,0.13494634628295898
1761330813162997500,6.47599755859375,0.06887245178222656,0.4892110824584961,0.09135977923870087
1761330813181698600,6.494698486328125,-0.06433773040771484,0.7171335220336914,0.08873599022626877
1761330813200399000,6.513399169921875,-0.16153526306152344,0.7562129497528076,0.04441465437412262
1761330813219100000,6.532099853515625,-0.22926616668701172,0.5083343982696533,0.0747620165348053
1761330813237800700,6.55080078125,-0.30930423736572266,0.3715636730194092,-0.12185567617416382
1761330813256501500,6.56950146484375,-0.08906078338623047,0.493288516998291,-0.575864851474762
1761330813275202300,6.588202392578125,0.5674810409545898,0.40676307678222656,-0.7955331802368164
1761330813293903000,6.606903076171875,1.364760398864746,0.380176305770874,-0.827509880065918
1761330813312604000,6.62560400390625,1.6772632598876953,0.24605417251586914,-0.8216984868049622
1761330813331304700,6.6443046875,1.5063896179199219,0.5355572700500488,-1.1757378578186035
1761330813350005500,6.663005615234375,0.8218908309936523,0.7865278720855713,-1.5238292217254639
1761330813368706300,6.681706298828125,0.34488582611083984,0.7303009033203125,-1.1909099817276
1761330813387407000,6.700406982421875,0.9468936920166016,0.298612117767334,-0.5853809118270874
1761330813406108000,6.71910791015625,1.9888992309570312,-0.23221588134765625,-0.3499218225479126
1761330813424808700,6.73780859375,2.2430667877197266,-1.2171730995178223,-0.1745736300945282
1761330813443509500,6.756509521484375,1.8000507354736328,-1.9447293281555176,-0.2443031370639801
1761330813462210300,6.775210205078125,1.6046676635742188,-2.107342481613159,-0.42290401458740234
1761330813480911000,6.7939111328125,1.467869758605957,-1.626182198524475,-0.9082033634185791
1761330813499612000,6.81261181640625,0.9070024490356445,-1.5412654876708984,-0.9943013787269592
1761330813518312700,6.831312744140625,0.051746368408203125,-1.6938371658325195,-0.8550214767456055
1761330813537013500,6.850013427734375,-0.47103118896484375,-1.798321008682251,-0.504568338394165
1761330813555714300,6.86871435546875,-0.5749855041503906,-1.524714469909668,-0.5041067004203796
1761330813574415000,6.8874150390625,-0.4554910659790039,-1.2371180057525635,-0.9591587781906128
1761330813593116000,6.906115966796875,-0.3226146697998047,-1.1919071674346924,-1.14923894405365
1761330813611816700,6.924816650390625,-0.5473260879516602,-0.8248765468597412,-0.7904230356216431
1761330813630517500,6.943517578125,-1.4045720100402832,-0.7707920074462891,-0.9505231380462646
1761330813649218300,6.96221826171875,-1.7417898178100586,-0.30875062942504883,-1.2491462230682373
1761330813667919000,6.980919189453125,-1.6239118576049805,0.004495143890380859,-1.0063269138336182
1761330813686620000,6.999619873046875,-1.7576112747192383,-0.09460639953613281,-0.8242413997650146
1761330813705320700,7.01832080078125,-1.589860439300537,-0.02799224853515625,-1.3362479209899902
1761330813724021500,7.037021484375,-1.2232427597045898,-0.2085559368133545,-1.7314872741699219
1761330813742722300,7.055722412109375,-0.7009134292602539,-0.4433138370513916,-1.4272785186767578
1761330813761423000,7.074423095703125,-0.5650033950805664,-0.47365546226501465,-1.310225009918213
1761330813780124000,7.0931240234375,-0.4296121597290039,-0.15208649635314941,-1.693446159362793
1761330813798824700,7.11182470703125,0.12006950378417969,0.2404003143310547,-1.4165124893188477
1761330813817525500,7.130525390625,0.4321460723876953,0.31313514709472656,-1.0611250400543213
1761330813836226300,7.149226318359375,0.2646160125732422,0.3717813491821289,-0.927311897277832
1761330813854927000,7.167927001953125,-0.12156867980957031,0.6211628913879395,-0.664405882358551
1761330813873628000,7.1866279296875,-0.17192840576171875,0.8739171028137207,-0.1924087405204773
1761330813892328700,7.20532861328125,-0.1643352508544922,0.860283374786377,0.27296626567840576
1761330813911029500,7.224029541015625,0.35630226135253906,0.7389993667602539,1.1698349714279175
1761330813929730300,7.242730224609375,1.2520151138305664,0.8494181632995605,1.9909476041793823
1761330813948431000,7.26143115234375,2.647981643676758,0.769838809967041,1.6109353303909302
1761330813967132000,7.2801318359375,2.932713508605957,0.7724666595458984,0.5214715003967285
1761330813985832700,7.298832763671875,2.3377504348754883,0.5672955513000488,-0.08680623769760132
1761330814004533500,7.317533447265625,1.7092018127441406,0.567234992980957,0.08148777484893799
1761330814023234300,7.336234375,1.6608247756958008,-0.06640338897705078,0.7502672076225281
1761330814041935000,7.35493505859375,1.5490942001342773,-0.4765207767486572,1.081551432609558
1761330814060636000,7.373635986328125,1.2540197372436523,-0.7393524646759033,1.1250455379486084
1761330814079336700,7.392336669921875,0.7295503616333008,-0.8913125991821289,0.5932589173316956
1761330814098037500,7.41103759765625,-0.014326095581054688,-1.0101888179779053,-0.19787418842315674
1761330814116738300,7.42973828125,-0.48174190521240234,-0.9332304000854492,-0.7668494582176208
1761330814135439000,7.448439208984375,-0.5822458267211914,-0.9660754203796387,-0.49996131658554077
1761330814154140000,7.467139892578125,-0.43071556091308594,-0.8533153533935547,-0.03296470642089844
1761330814172840700,7.4858408203125,-0.4448251724243164,-0.8373208045959473,0.07670271396636963
1761330814191541500,7.50454150390625,-0.43296146392822266,-0.8367438316345215,-0.1883869767189026
1761330814210242300,7.5232421875,-0.47345447540283203,-0.7941794395446777,-0.18745143711566925
1761330814228943000,7.541943115234375,-0.6348047256469727,-0.7507915496826172,-0.29310142993927
1761330814247644000,7.560643798828125,-0.8939571380615234,-0.7047858238220215,-0.3490637540817261
1761330814266344700,7.5793447265625,-1.2981977462768555,-0.43732309341430664,-0.16823306679725647
1761330814285045800,7.598045654296875,-1.5326638221740723,-0.16607379913330078,0.23946687579154968
1761330814303746300,7.616746337890625,-1.2733354568481445,-0.058825016021728516,0.4235156178474426
1761330814322447000,7.635447021484375,-0.7110614776611328,-0.23485374450683594,0.29911041259765625
1761330814341148000,7.65414794921875,-0.6189498901367188,-0.2526712417602539,-0.09146061539649963
1761330814359849000,7.672848876953125,-0.64215087890625,-0.0957956314086914,-0.2242121547460556
1761330814378549500,7.691549560546875,-0.8422369956970215,-0.13296031951904297,-0.15749821066856384
1761330814397250300,7.710250244140625,-1.0076775550842285,-0.055309295654296875,0.010397076606750488
1761330814415951400,7.728951416015625,-0.895298957824707,0.14758872985839844,0.21792049705982208
1761330814434652000,7.74765185546875,-0.8168196678161621,0.25523996353149414,0.35003671050071716
1761330814453352700,7.766352783203125,-0.8133440017700195,0.2660956382751465,0.26202794909477234
1761330814472053800,7.7850537109375,-0.85052490234375,0.354095458984375,0.03182688355445862
1761330814490754600,7.803754638671875,-0.9343576431274414,0.315122127532959,-0.04360079765319824
1761330814509455400,7.822455322265625,-0.815828800201416,0.3750767707824707,-0.3279348611831665
1761330814537506600,7.850506591796875,-0.29261112213134766,0.6438980102539062,-0.7861606478691101
1761330814556207400,7.869207275390625,0.01856231689453125,0.6835055351257324,-0.9757461547851562
1761330814574908200,7.887908203125,0.3308887481689453,0.6334104537963867,-0.6001318693161011
1761330814593609000,7.90660888671875,0.9696273803710938,0.6870536804199219,-0.4152010679244995
1761330814612309800,7.925309814453125,1.6277799606323242,0.9885845184326172,-0.6453956365585327
1761330814631010600,7.944010498046875,1.5680503845214844,1.2631096839904785,-1.2021405696868896
1761330814649711400,7.96271142578125,1.2003154754638672,1.1843299865722656,-1.0578575134277344
1761330814668412200,7.981412109375,1.2518348693847656,0.6542401313781738,-0.3148966431617737
1761330814687113000,8.000113037109376,1.6132173538208008,-0.06901121139526367,0.2812526226043701
1761330814705813800,8.018813720703125,2.1871261596679688,-0.6791601181030273,0.2620873749256134
1761330814724514600,8.0375146484375,2.2938194274902344,-1.1279911994934082,-0.30025041103363037
1761330814743215400,8.05621533203125,2.1055850982666016,-1.4144434928894043,-0.9701533317565918
1761330814761916200,8.074916259765626,1.844339370727539,-1.5999517440795898,-1.122988224029541
1761330814780617200,8.0936171875,1.6984519958496094,-1.6964588165283203,-0.7661482095718384
1761330814799317800,8.11231787109375,1.142568588256836,-1.5785667896270752,-0.36010974645614624
1761330814818018600,8.1310185546875,0.19944000244140625,-1.4383792877197266,-0.19683128595352173
1761330814836719600,8.1497197265625,-0.7922673225402832,-1.3705143928527832,-0.2275935411453247
1761330814855420400,8.16842041015625,-1.466400146484375,-1.215013027191162,-0.4406711459159851
1761330814874121200,8.187121337890625,-1.6649971008300781,-1.0456013679504395,-0.5609368085861206
1761330814892821800,8.20582177734375,-1.5785799026489258,-0.9122147560119629,-0.5985356569290161
1761330814911522800,8.224522705078124,-1.5645713806152344,-0.8078460693359375,-0.6091554760932922
1761330814930223600,8.2432236328125,-1.5582656860351562,-0.6580653190612793,-0.5665823221206665
1761330814948924400,8.26192431640625,-1.608872413635254,-0.4742283821105957,-0.5622954964637756
1761330814967625200,8.280625244140625,-1.5728569030761719,-0.3275012969970703,-0.5199216604232788
1761330814986326000,8.299325927734374,-1.4813027381896973,-0.23068952560424805,-0.32599443197250366
1761330815005026800,8.31802685546875,-1.2918739318847656,-0.2472519874572754,-0.19399085640907288
1761330815023727600,8.3367275390625,-1.2179155349731445,-0.208465576171875,-0.13874691724777222
1761330815042428400,8.355428466796875,-1.367225170135498,-0.21445989608764648,-0.32678037881851196
1761330815061129200,8.374129150390624,-1.201888084411621,0.0007600784301757812,-0.6869466304779053
1761330815079830000,8.392830078125,-0.6297760009765625,0.026529312133789062,-0.8589861392974854
1761330815098530800,8.41153076171875,-0.17886924743652344,0.12339258193969727,-0.8591286540031433
1761330815117231600,8.430231689453125,0.04732799530029297,0.14156055450439453,-0.3307846486568451
1761330815135932400,8.448932373046874,0.2181529998779297,0.30783557891845703,0.47953903675079346
1761330815154633200,8.46763330078125,0.7534017562866211,0.6490311622619629,0.8934293985366821
1761330815173334300,8.486334228515625,1.073836326599121,0.9243531227111816,0.7417505979537964
1761330815192035000,8.50503515625,1.0487871170043945,1.2439017295837402,0.1785551905632019
1761330815210735600,8.523735595703124,1.2616024017333984,1.3833770751953125,-0.2297741174697876
1761330815229436700,8.542436767578126,1.7045564651489258,1.084329605102539,-0.16209012269973755
1761330815248137500,8.561137451171875,1.9609460830688477,1.1634507179260254,-0.22260797023773193
1761330815266838300,8.57983837890625,1.7733745574951172,0.9804396629333496,-0.06801426410675049
1761330815285539000,8.5985390625,1.6699962615966797,0.6476798057556152,0.020893394947052002
1761330815304239900,8.617239990234374,1.8828792572021484,0.1693592071533203,0.4732956886291504
1761330815322940700,8.635940673828125,2.08819580078125,-0.4130387306213379,0.8617197871208191
1761330815341641500,8.654641357421875,1.8853435516357422,-0.7799835205078125,0.8897611498832703
1761330815360342300,8.67334228515625,1.279536247253418,-0.8766269683837891,0.826513409614563
1761330815379043000,8.69204296875,0.5668983459472656,-0.8966495990753174,0.3685067892074585
1761330815397743900,8.710743896484376,0.09489631652832031,-0.7093179225921631,-0.3260405361652374
1761330815416445000,8.72944482421875,0.08217811584472656,-0.8625853061676025,-0.2218697965145111
1761330815435145700,8.748145751953125,-0.04949188232421875,-0.9909565448760986,0.07375961542129517
1761330815453846500,8.766846435546874,-0.508967399597168,-0.9249751567840576,0.6089199185371399
1761330815472547000,8.785547119140626,-0.9974184036254883,-0.6515483856201172,0.7554644346237183
1761330815491248000,8.804248046875,-1.1586589813232422,-0.5440478324890137,0.7855600118637085
1761330815509949000,8.822948974609375,-0.9522800445556641,-0.584000825881958,0.3126511573791504
1761330815528649700,8.841649658203124,-0.7297277450561523,-0.6921098232269287,-0.2700265049934387
1761330815547350500,8.8603505859375,-0.8444356918334961,-0.7539591789245605,-0.8005871772766113
1761330815566051300,8.87905126953125,-0.9077968597412109,-0.6148772239685059,-0.9198237061500549
1761330815584752000,8.897752197265625,-0.7436428070068359,-0.3390836715698242,-0.443023145198822
1761330815603453000,8.916452880859374,-0.6649932861328125,-0.2264862060546875,-0.014082729816436768
1761330815622153700,8.93515380859375,-0.7883615493774414,-0.25812339782714844,0.24828404188156128
1761330815640854500,8.9538544921875,-0.7525663375854492,-0.22147202491760254,0.39124971628189087
1761330815659555300,8.972555419921875,-0.5698318481445312,-0.11468076705932617,0.4608789086341858
1761330815678256400,8.99125634765625,-0.4003267288208008,0.005627632141113281,0.4650895595550537
1761330815696957200,9.009957275390626,-0.4591226577758789,0.22211313247680664,0.33302929997444153
1761330815715658000,9.028657958984375,-0.649174690246582,0.4488954544067383,0.15342116355895996
1761330815734358800,9.04735888671875,-0.7090377807617188,0.5942153930664062,0.06126809120178223
1761330815753059600,9.0660595703125,-0.5028142929077148,0.7407441139221191,0.05724143981933594
1761330815771760400,9.084760498046874,-0.2830219268798828,0.8107419013977051,0.1680164337158203
1761330815790461200,9.103461181640625,-0.09799671173095703,0.8597245216369629,-0.0060193538665771484
1761330815809162000,9.122161865234375,0.19176292419433594,0.7980666160583496,-0.40474116802215576
1761330815827862800,9.14086279296875,0.5385818481445312,0.7075681686401367,-0.7283997535705566
1761330815846563600,9.1595634765625,0.7832736968994141,0.4840736389160156,-0.47520679235458374
1761330815865264400,9.178264404296876,1.0553045272827148,0.2921910285949707,-0.14860236644744873
1761330815883965400,9.19696533203125,1.6703901290893555,0.3672661781311035,-0.11919981241226196
1761330815902666000,9.215666015625,2.042409896850586,0.9143400192260742,-0.8078228831291199
1761330815921366800,9.23436669921875,1.500417709350586,1.103163719177246,-1.3648104667663574
1761330815940067800,9.25306787109375,0.8126411437988281,1.3224811553955078,-1.2944884300231934
1761330815958768600,9.2717685546875,0.7059211730957031,0.7288246154785156,-0.37872007489204407
1761330815977469400,9.290469482421875,1.448042869567871,-0.3662853240966797,0.49774420261383057
1761330815996170200,9.309170166015624,1.9953088760375977,-1.3941357135772705,0.822516918182373
1761330816014871000,9.32787109375,2.0224103927612305,-1.8091075420379639,0.1143256425857544
1761330816033571800,9.34657177734375,1.466024398803711,-1.793818712234497,-0.8058665990829468
1761330816052272600,9.365272705078125,0.6423587799072266,-1.5938348770141602,-1.1550073623657227
1761330816070973400,9.383973388671874,-0.09831619262695312,-1.3320567607879639,-0.9178073406219482
1761330816089674200,9.40267431640625,-0.7987375259399414,-1.2836527824401855,-0.5143158435821533
1761330816108375000,9.421375,-1.3294601440429688,-1.3348827362060547,-0.27674415707588196
1761330816127075800,9.440075927734375,-1.4984512329101562,-1.3069329261779785,-0.20870140194892883
1761330816145777000,9.45877685546875,-1.370621681213379,-1.359248161315918,-0.35375821590423584
1761330816164477700,9.477477783203126,-1.1459755897521973,-1.3104009628295898,-0.5277460217475891
1761330816183178500,9.496178466796875,-1.1956987380981445,-1.0668306350708008,-0.7285513877868652
1761330816201879300,9.51487939453125,-1.3890280723571777,-0.7701854705810547,-0.9696316719055176
1761330816220580000,9.533580078125,-1.554643154144287,-0.4965524673461914,-0.9613689184188843
1761330816239281000,9.552281005859374,-1.5782384872436523,-0.2626338005065918,-0.6394029855728149
1761330816257981700,9.570981689453125,-1.5716190338134766,-0.13045072555541992,-0.3626508116722107
1761330816276682500,9.5896826171875,-1.6168198585510254,-0.040435791015625,-0.4388958811759949
1761330816295383600,9.608383544921875,-1.494187355041504,-0.08339929580688477,-0.7813283205032349
1761330816314084000,9.627083984375,-1.0687799453735352,-0.07209157943725586,-0.8109195232391357
1761330816332785000,9.645784912109375,-0.5080318450927734,0.1034092903137207,-0.7223460674285889
1761330816351486000,9.66448583984375,-0.061786651611328125,0.18741321563720703,-0.7474092841148376
1761330816370186800,9.683186767578125,0.3112335205078125,0.3399014472961426,-0.6807330250740051
1761330816388887600,9.701887451171874,0.60186767578125,0.5711054801940918,-0.6098601222038269
1761330816407588400,9.72058837890625,0.530421257019043,0.8052382469177246,-0.7204521894454956
1761330816426289200,9.7392890625,0.38355541229248047,0.9495797157287598,-0.8184686303138733
1761330816444990000,9.757989990234375,0.29224205017089844,1.0679426193237305,-0.6661654710769653
1761330816463690800,9.776690673828124,0.32686614990234375,1.0849738121032715,-0.39418908953666687
1761330816482391600,9.7953916015625,0.5389699935913086,0.9555401802062988,-0.006449662148952484
1761330816501092600,9.814092529296875,0.861393928527832,0.7364373207092285,0.3271125853061676
1761330816519793200,9.832793212890625,1.4124298095703125,0.6799473762512207,0.3010101318359375
1761330816538494200,9.851494140625,1.7478256225585938,1.2273130416870117,-0.09047117084264755
1761330816557195000,9.870195068359376,1.4807300567626953,0.6457090377807617,0.26024800539016724
1761330816575895800,9.888895751953125,1.6580171585083008,0.31801700592041016,0.7155699729919434
1761330816594596600,9.9075966796875,2.09616756439209,-0.27211761474609375,1.419311285018921
1761330816613297400,9.92629736328125,2.563328742980957,-0.7680482864379883,1.3652479648590088
1761330816631998200,9.944998291015626,2.337700843811035,-1.0102496147155762,0.991898238658905
1761330816650699000,9.963698974609375,1.5342521667480469,-1.0095958709716797,0.6896456480026245
1761330816669399800,9.98239990234375,0.7779006958007812,-0.98952317237854,0.4422464370727539
1761330816688100900,10.001100830078125,0.4310770034790039,-1.1590955257415771,0.5450398921966553
1761330816706801700,10.0198017578125,0.2985706329345703,-1.292529582977295,0.8404128551483154
1761330816725502500,10.03850244140625,-0.0936288833618164,-1.1473078727722168,1.0121790170669556
1761330816744203300,10.057203369140625,-0.7288589477539062,-1.0596985816955566,0.9311468005180359
1761330816762904000,10.075904052734375,-1.1548576354980469,-0.9654107093811035,0.6448947191238403
1761330816781604900,10.09460498046875,-1.224109172821045,-0.9089744091033936,0.10826101154088974
1761330816800305700,10.1133056640625,-1.2458100318908691,-0.9339056015014648,-0.3400432765483856
1761330816819006500,10.13200634765625,-1.2171735763549805,-0.8197131156921387,-0.5676051378250122
1761330816837707500,10.15070751953125,-1.038172721862793,-0.5686368942260742,-0.5272520780563354
1761330816856408300,10.169408203125,-0.7782402038574219,-0.41908740997314453,-0.2911985218524933
1761330816875109000,10.188109130859376,-0.7723493576049805,-0.3376908302307129,0.0702444314956665
1761330816893810000,10.206809814453125,-0.9252958297729492,-0.2515697479248047,0.434162437915802
1761330816912510700,10.2255107421875,-0.9648656845092773,-0.2315812110900879,0.7213900685310364
1761330816931211500,10.24421142578125,-0.9132828712463379,-0.30296802520751953,0.740915060043335
1761330816949912300,10.262912353515626,-0.8448891639709473,-0.21483755111694336,0.6107988953590393
1761330816968613000,10.281613037109375,-0.751561164855957,0.08984184265136719,0.42691969871520996
1761330816987314200,10.300314208984375,-0.6563053131103516,0.2861289978027344,0.4757998287677765
1761330817006015000,10.319014892578124,-0.34383678436279297,0.40857362747192383,0.4692649841308594
1761330817024715800,10.3377158203125,-0.24088478088378906,0.4050426483154297,0.40674442052841187
1761330817043416600,10.35641650390625,-0.4098052978515625,0.6299591064453125,0.17780078947544098
1761330817062117400,10.375117431640625,-0.486328125,0.7347273826599121,0.12838280200958252
1761330817080818200,10.393818115234374,-0.3672828674316406,0.7776980400085449,0.12151382863521576
1761330817099519000,10.41251904296875,-0.26090240478515625,0.9024434089660645,-0.04446008801460266
1761330817118219800,10.4312197265625,-0.21783733367919922,0.8754706382751465,-0.23963013291358948
1761330817136920600,10.449920654296875,0.05423545837402344,0.7532434463500977,-0.16875341534614563
1761330817155621400,10.468621337890625,0.5193157196044922,0.6057868003845215,0.12366783618927002
1761330817174322200,10.487322265625,1.0088491439819336,0.6396603584289551,0.11539140343666077
1761330817193023200,10.506023193359376,1.49493408203125,1.3031835556030273,-0.4316481351852417
1761330817211724000,10.52472412109375,1.4940223693847656,1.438577651977539,-0.5722501277923584
1761330817230424800,10.5434248046875,1.3201780319213867,1.3407902717590332,-0.2794229984283447
1761330817249125600,10.562125732421874,1.3726015090942383,0.7264261245727539,0.4968120753765106
1761330817267826400,10.580826416015626,1.7620048522949219,-0.1632695198059082,0.6999104022979736
1761330817286527200,10.59952734375,2.02703857421875,-1.2526373863220215,0.802768349647522
1761330817305228000,10.61822802734375,2.143594741821289,-1.7491531372070312,0.3081689774990082
1761330817323929000,10.63692919921875,1.7100343704223633,-1.7487797737121582,-0.2758415937423706
1761330817342630000,10.6556298828125,1.0694141387939453,-1.562758445739746,-0.5090922117233276
1761330817361330700,10.67433056640625,0.7351913452148438,-1.3468890190124512,-0.29884088039398193
1761330817380031500,10.693031494140625,0.2820167541503906,-1.311152458190918,0.18494857847690582
1761330817398732300,10.711732177734374,-0.22059059143066406,-1.103879690170288,0.41645291447639465
1761330817417433000,10.73043310546875,-0.5671558380126953,-0.9915976524353027,0.5513070225715637
1761330817436134000,10.7491337890625,-0.6847362518310547,-1.0472750663757324,0.3355233669281006
1761330817454834700,10.767834716796875,-0.7717380523681641,-1.0594274997711182,-0.05974861979484558
1761330817473535700,10.78653564453125,-0.7385492324829102,-1.0912754535675049,-0.32318606972694397
1761330817492236500,10.805236572265626,-0.8915262222290039,-1.0044758319854736,-0.35419589281082153
1761330817510937300,10.823937255859375,-1.0255727767944336,-0.744598388671875,-0.2473139762878418
1761330817529638100,10.84263818359375,-0.9510412216186523,-0.7767095565795898,0.23200270533561707
1761330817548339000,10.8613388671875,-1.0450739860534668,-0.0779576301574707,-0.2951609492301941
1761330817567040000,10.8800400390625,-2.28470516204834,0.08499479293823242,-0.6440442800521851
1761330817585740800,10.89874072265625,-2.4469661712646484,-0.22869157791137695,-0.152170330286026
1761330817604441600,10.917441650390625,-1.6337404251098633,-0.25534582138061523,-0.1487504541873932
