time,seconds_elapsed,z,y,x
1761330806768436000,0.08143603515625,8.571090698242188,4.651647090911865,-0.9116654396057129
1761330806787136500,0.100136474609375,8.178668022155762,4.651647090911865,-1.0336993932724
1761330806805837300,0.11883740234375,8.023134231567383,4.646861553192139,-1.0001999139785767
1761330806824537900,0.137537841796875,8.11406135559082,4.658825874328613,-1.00259268283844
1761330806843238700,0.15623876953125,8.34138011932373,4.610969066619873,-1.0456634759902954
1761330806861939500,0.174939453125,8.427521705627441,4.503292083740234,-1.0049854516983032
1761330806880640000,0.193639892578125,8.207381248474121,4.438685894012451,-0.9834501147270203
1761330806899340800,0.2123408203125,8.011170387268066,4.460221290588379,-0.882951557636261
1761330806918041300,0.231041259765625,8.066205024719238,4.508078098297119,-0.9044869542121887
1761330806936742100,0.2497421875,8.484949111938477,4.409972190856934,-0.7752745151519775
1761330806955442700,0.268442626953125,8.58066177368164,4.206582069396973,-0.7226324677467346
1761330806974143500,0.2871435546875,8.72901725769043,4.316651821136475,-0.7250252366065979
1761330806992844000,0.305843994140625,8.748159408569336,4.311866283416748,-0.9308080077171326
1761330807011544800,0.324544921875,8.86062240600586,4.395615100860596,-0.9355936646461487
1761330807030245400,0.343245361328125,9.080761909484863,4.3788652420043945,-0.8638089895248413
1761330807048946200,0.3619462890625,9.083154678344727,4.323830604553223,-0.8039883971214294
1761330807067646700,0.380646728515625,8.908478736877441,4.398007869720459,-0.7657032608985901
1761330807086347500,0.399347412109375,8.762516975402832,4.508078098297119,-0.9499505758285522
1761330807105048300,0.41804833984375,8.733802795410156,4.4482574462890625,-0.9690931439399719
1761330807123748900,0.436748779296875,8.796015739440918,4.369294166564941,-0.8542376756668091
1761330807142449700,0.45544970703125,9.138189315795898,4.34536600112915,-0.8685946464538574
1761330807161150500,0.474150390625,9.760323524475098,4.1970109939575195,-0.8685946464538574
1761330807179851000,0.49285107421875,9.975677490234375,4.12761926651001,-0.8087740540504456
1761330807198551800,0.5115517578125,9.78664493560791,4.1970109939575195,-0.6340979933738708
1761330807217252400,0.53025244140625,9.722038269042969,4.232903480529785,-0.5359922647476196
1761330807235953200,0.548953125,9.504291534423828,4.156332969665527,-0.33499518036842346
1761330807254653700,0.56765380859375,9.343972206115723,4.431507587432861,-0.4833501875400543
1761330807273354500,0.5863544921875,9.152546882629395,4.362115859985352,-0.36610186100006104
1761330807292055000,0.605054931640625,9.262616157531738,4.058227062225342,-0.25363919138908386
1761330807310755800,0.623755859375,9.449256896972656,3.7902309894561768,-0.2273181527853012
1761330807329456600,0.64245654296875,9.707681655883789,3.5222349166870117,-0.19621145725250244
1761330807348157200,0.6611572265625,10.02592658996582,3.328416347503662,-0.22492532432079315
1761330807366858000,0.67985791015625,10.494919776916504,3.1441688537597656,-0.21296121180057526
1761330807385558500,0.69855859375,10.683953285217285,2.857030153274536,0.02153540402650833
1761330807404259300,0.71725927734375,10.50209903717041,2.861815929412842,0.22971096634864807
1761330807422959900,0.7359599609375,10.411170959472656,2.9048867225646973,0.38763725757598877
1761330807441660700,0.75466064453125,9.906285285949707,2.847458839416504,0.7250252366065979
1761330807460361500,0.773361572265625,9.272188186645508,2.912065267562866,0.9355936646461487
1761330807479062000,0.79206201171875,8.673981666564941,2.840280532836914,0.8805587291717529
1761330807497762800,0.8107626953125,8.291130065917969,2.6536402702331543,0.7465606927871704
1761330807516463600,0.829463623046875,8.3629150390625,2.423929452896118,0.9068797826766968
1761330807535164200,0.8481640625,8.60459041595459,2.366501569747925,0.9643075466156006
1761330807553865000,0.866864990234375,8.882157325744629,2.495713949203491,0.9547362327575684
1761330807572565500,0.8855654296875,8.956335067749023,2.63449764251709,1.184447169303894
1761330807591266300,0.904266357421875,9.257830619812012,2.7421748638153076,1.1078768968582153
1761330807609966800,0.922966796875,9.628718376159668,2.5770699977874756,0.9116654396057129
1761330807628667600,0.941667724609375,9.822537422180176,2.550748825073242,0.8087740540504456
1761330807647368400,0.960368408203125,9.604789733886719,2.557927370071411,0.7704889178276062
1761330807666069000,0.979069091796875,9.236295700073242,2.6871397495269775,0.8949156403541565
1761330807684769800,0.997769775390625,9.169296264648438,3.0269205570220947,0.9858429431915283
1761330807703470600,1.016470703125,9.269794464111328,3.184846878051758,1.007378339767456
1761330807722171100,1.035171142578125,9.394221305847168,3.2350962162017822,0.7250252366065979
1761330807740872000,1.053871826171875,9.214759826660156,3.31884503364563,0.24646073579788208
1761330807759572500,1.072572509765625,9.214759826660156,3.383451223373413,-0.3158525824546814
1761330807778273300,1.091273193359375,9.516255378723145,3.3164522647857666,-0.24406790733337402
1761330807796973800,1.109973876953125,9.611968994140625,3.218346357345581,0.8255237936973572
1761330807815674600,1.128674560546875,9.492327690124512,3.2374889850616455,1.459621787071228
1761330807834375400,1.14737548828125,9.169296264648438,3.4121651649475098,1.3232308626174927
1761330807853076200,1.166076171875,8.73619556427002,3.5222349166870117,0.8638089895248413
1761330807871776800,1.18477685546875,8.539983749389648,3.5844483375549316,0.48095735907554626
1761330807890477600,1.2034775390625,8.496912956237793,3.7567315101623535,0.5742774605751038
1761330807909178000,1.22217822265625,8.303094863891602,3.972085475921631,0.48095735907554626
1761330807927879000,1.24087890625,8.214560508728027,4.1730828285217285,0.1052841991186142
1761330807946579500,1.259579345703125,8.542376518249512,4.247260093688965,-0.23449662327766418
1761330807965280300,1.2782802734375,8.925228118896484,4.170690059661865,-0.2392822653055191
1761330807983981000,1.29698095703125,9.157332420349121,4.067798614501953,-0.20338992774486542
1761330808002681600,1.315681640625,9.255437850952148,4.022335052490234,-0.31345975399017334
1761330808021382400,1.33438232421875,9.245866775512695,4.041477680206299,-0.3278166949748993
1761330808040083200,1.353083251953125,9.308079719543457,4.036691665649414,-0.37806597352027893
1761330808058783700,1.37178369140625,9.32722282409668,4.0319061279296875,-0.3613162338733673
1761330808077484500,1.390484619140625,9.425328254699707,4.005585193634033,-0.6652047038078308
1761330808096185300,1.409185302734375,9.66221809387207,3.737588882446289,-1.2083754539489746
1761330808114886000,1.427885986328125,10.066604614257812,3.297309637069702,-1.399801254272461
1761330808133586700,1.446586669921875,10.238887786865234,3.3308091163635254,-1.7276179790496826
1761330808152287200,1.465287353515625,10.461421012878418,3.8213376998901367,-2.2325034141540527
1761330808170988000,1.483988037109375,10.861021995544434,3.7950167655944824,-2.359323024749756
1761330808189688800,1.502688720703125,11.062019348144531,3.9672999382019043,-2.170290231704712
1761330808208389600,1.5213896484375,10.808380126953125,3.775874137878418,-1.4380863904953003
1761330808227090200,1.540090087890625,10.566704750061035,3.3164522647857666,-0.8015955686569214
1761330808245791000,1.558791015625,10.411170959472656,2.895315408706665,-0.6340979933738708
1761330808264491500,1.577491455078125,10.040284156799316,2.493321180343628,-0.5862415432929993
1761330808283192300,1.5961923828125,10.219745635986328,2.225325107574463,-0.31345975399017334
1761330808301893000,1.61489306640625,10.547562599182129,1.947757601737976,-0.009571290574967861
1761330808320593700,1.63359375,10.490134239196777,1.9956140518188477,-0.06939185410737991
1761330808339294500,1.65229443359375,10.210174560546875,2.256431818008423,-0.14835500717163086
1761330808357995300,1.670995361328125,9.89432144165039,2.3736801147460938,-0.20099709928035736
1761330808376695800,1.68969580078125,9.760323524475098,2.493321180343628,-0.4139583110809326
1761330808395396600,1.708396728515625,9.556933403015137,2.6057839393615723,-0.6005984544754028
1761330808414097400,1.727097412109375,9.145368576049805,2.651247501373291,-0.8207381963729858
1761330808432798200,1.745798095703125,8.6907320022583,2.816352367401123,-0.9355936646461487
1761330808451498800,1.764498779296875,8.410771369934082,2.7876384258270264,-0.9332008361816406
1761330808470199600,1.783199462890625,8.300702095031738,2.761317253112793,-1.0552347898483276
1761330808488900000,1.801900146484375,8.133204460144043,2.857030153274536,-1.191625714302063
1761330808507601000,1.820600830078125,7.9489569664001465,3.170490026473999,-1.306481122970581
1761330808526301700,1.8393017578125,7.850851058959961,3.4337005615234375,-1.3950155973434448
1761330808545002200,1.858002197265625,7.630711555480957,3.5437703132629395,-1.435693621635437
1761330808563703000,1.876703125,7.377072334289551,3.6059837341308594,-1.160519003868103
1761330808582403600,1.895403564453125,7.357929706573486,3.627519130706787,-0.8279166221618652
1761330808601104400,1.9141044921875,7.611568927764893,3.572484254837036,-0.7465606927871704
1761330808619805200,1.93280517578125,8.188239097595215,3.538984775543213,-0.916451096534729
1761330808638506000,1.951506103515625,8.583054542541504,3.4480574131011963,-1.0049854516983032
1761330808657206500,1.97020654296875,8.819944381713867,3.5509488582611084,-1.098305583000183
1761330808675907300,1.9889072265625,8.922835350036621,3.6466617584228516,-1.4093725681304932
1761330808694608100,2.007608154296875,9.035298347473145,3.675375461578369,-1.643869161605835
1761330808713309000,2.026308837890625,9.030512809753418,3.792623996734619,-1.730010747909546
1761330808732009500,2.045009521484375,8.95394229888916,4.070191383361816,-1.8113667964935303
1761330808750710300,2.063710205078125,8.884550094604492,4.299902439117432,-1.5864413976669312
1761330808769410800,2.082410888671875,8.865407943725586,4.366901397705078,-1.1198409795761108
1761330808788111600,2.101111572265625,8.752944946289062,4.41475772857666,-0.9403793215751648
1761330808806812400,2.1198125,8.800801277160645,4.417150497436523,-1.1365907192230225
1761330808825513000,2.138512939453125,9.382257461547852,4.309473514556885,-1.2370892763137817
1761330808844213800,2.1572138671875,10.25324535369873,3.9840497970581055,-1.246660590171814
1761330808862914600,2.17591455078125,11.11466121673584,3.792623996734619,-1.1748759746551514
1761330808881615400,2.194615478515625,11.389835357666016,3.9218363761901855,-1.1102696657180786
1761330808900316000,2.21331591796875,11.066804885864258,3.8883368968963623,-0.9667003750801086
1761330808919016700,2.2320166015625,10.554740905761719,3.704089403152466,-0.6699903607368469
1761330808937717500,2.250717529296875,10.293923377990723,3.074777126312256,-0.2153540402650833
1761330808956418300,2.269418212890625,10.652846336364746,2.2995026111602783,0.05024927482008934
1761330808975118800,2.288118896484375,11.306086540222168,1.5337992906570435,0.031106693670153618
1761330808993819600,2.306819580078125,11.60279655456543,1.2634103298187256,-0.4546363055706024
1761330809012520200,2.325520263671875,11.181660652160645,1.466800332069397,-1.2921242713928223
1761330809031221000,2.344220947265625,10.628918647766113,1.8544375896453857,-1.8951154947280884
1761330809049921800,2.362921875,10.236495018005371,2.2061824798583984,-1.8544375896453857
1761330809068622300,2.381622314453125,9.836894035339355,2.3330020904541016,-1.2346965074539185
1761330809087323100,2.4003232421875,9.312865257263184,2.4981069564819336,-0.6364908218383789
1761330809106024000,2.41902392578125,8.800801277160645,2.7732813358306885,-0.2560320198535919
1761330809124724700,2.437724853515625,8.350951194763184,2.9527430534362793,-0.19142581522464752
1761330809143425300,2.45642529296875,8.059026718139648,3.0029923915863037,-0.49292147159576416
1761330809162126000,2.4751259765625,7.946564197540283,2.9312076568603516,-0.8183453679084778
1761330809180827000,2.493826904296875,8.051848411560059,2.9599215984344482,-1.0911271572113037
1761330809199527700,2.512527587890625,8.248059272766113,3.0101709365844727,-0.9882357716560364
1761330809218228200,2.531228271484375,8.300702095031738,3.0317063331604004,-0.7513462901115417
1761330809236929000,2.549928955078125,8.281558990478516,3.067598581314087,-0.6364908218383789
1761330809255629800,2.5686298828125,8.298309326171875,3.160918712615967,-0.4163511395454407
1761330809274330400,2.587330322265625,8.319844245910645,3.3236305713653564,-0.33020952343940735
1761330809293031200,2.60603125,8.350951194763184,3.510270833969116,-0.39481574296951294
1761330809311732000,2.62473193359375,8.365307807922363,3.6945180892944336,-0.28235307335853577
1761330809330432800,2.643432861328125,8.3629150390625,3.845266103744507,-0.07178468257188797
1761330809349133300,2.66213330078125,8.34855842590332,3.893122434616089,-0.02392822690308094
1761330809367834000,2.680834228515625,8.549555778503418,3.85483717918396,-0.19142581522464752
1761330809386535000,2.699534912109375,8.733802795410156,3.689732551574707,-0.3278166949748993
1761330809405235500,2.7182353515625,8.846264839172363,3.5461630821228027,-0.5575276613235474
1761330809423936300,2.736936279296875,8.941978454589844,3.548556089401245,-0.9690931439399719
1761330809442637000,2.755636962890625,9.315258979797363,3.524627685546875,-1.34476637840271
1761330809461337900,2.774337890625,9.628718376159668,3.397808074951172,-1.6079767942428589
1761330809480038400,2.793038330078125,9.693324089050293,3.5365917682647705,-1.8113667964935303
1761330809498739200,2.8117392578125,9.774680137634277,3.728017568588257,-1.7324036359786987
1761330809517440000,2.83043994140625,9.78664493560791,3.809373617172241,-1.4883357286453247
1761330809536140800,2.849140869140625,9.994820594787598,3.90987229347229,-1.6031911373138428
1761330809554841300,2.86784130859375,10.207781791687012,4.1491546630859375,-2.091326951980591
1761330809573542100,2.886542236328125,10.066604614257812,4.47697114944458,-2.5196423530578613
1761330809592243000,2.905242919921875,9.889535903930664,4.584648132324219,-2.313859462738037
1761330809610943500,2.923943603515625,9.844072341918945,4.206582069396973,-1.4691931009292603
1761330809629644300,2.942644287109375,10.447063446044922,3.273381471633911,-0.7178468108177185
1761330809648345000,2.961344970703125,11.052447319030762,2.132004976272583,-0.3158525824546814
1761330809667046000,2.9800458984375,11.320444107055664,1.4787644147872925,-0.6580262184143066
1761330809685746700,2.99874658203125,11.021341323852539,1.4500504732131958,-1.588834285736084
1761330809704447200,3.017447265625,10.293923377990723,1.6558332443237305,-2.2444677352905273
1761330809723148000,3.03614794921875,9.564111709594727,1.8664016723632812,-2.1583259105682373
1761330809741848800,3.054848876953125,9.08554744720459,2.1343977451324463,-1.7084753513336182
1761330809760549600,3.073549560546875,8.86062240600586,2.2085752487182617,-1.0911271572113037
1761330809779250200,3.092250244140625,8.630910873413086,2.172683000564575,-0.672383189201355
1761330809797951000,3.110950927734375,8.530412673950195,2.201396942138672,-0.605384111404419
1761330809816651800,3.12965185546875,8.60459041595459,2.218146562576294,-0.9523434042930603
1761330809835352600,3.1483525390625,8.602197647094727,2.2612173557281494,-1.3854442834854126
1761330809854053000,3.16705322265625,8.441878318786621,2.3736801147460938,-1.5361921787261963
1761330809872754000,3.18575390625,8.271987915039062,2.5938198566436768,-1.581655740737915
1761330809891454700,3.204454833984375,8.252845764160156,2.7014968395233154,-1.3423734903335571
1761330809910155300,3.2231552734375,8.350951194763184,2.730210542678833,-0.9379864931106567
1761330809928856300,3.241856201171875,8.410771369934082,2.761317253112793,-0.8446664214134216
1761330809947556900,3.260556884765625,8.37966537475586,2.8833513259887695,-1.0097711086273193
1761330809966257700,3.279257568359375,8.329415321350098,2.9168508052825928,-1.1461620330810547
1761330809984958500,3.29795849609375,8.470592498779297,2.9312076568603516,-1.1485549211502075
1761330810003659000,3.316658935546875,8.879764556884766,2.9479575157165527,-0.9762716293334961
1761330810022359800,3.33535986328125,9.315258979797363,2.964707374572754,-0.7465606927871704
1761330810041060600,3.354060546875,9.635896682739258,3.067598581314087,-0.5431707501411438
1761330810059761400,3.372761474609375,9.643074989318848,3.1920254230499268,-0.4498506486415863
1761330810078462000,3.3914619140625,9.494720458984375,3.407379388809204,-0.5024927258491516
1761330810097162800,3.410162841796875,9.616754531860352,3.689732551574707,-0.4378865361213684
1761330810115863600,3.428863525390625,9.961320877075195,3.783052682876587,-0.21774685382843018
1761330810134564400,3.447564453125,9.990034103393555,3.696911096572876,-0.11485548317432404
1761330810153265200,3.46626513671875,9.93260669708252,3.4743785858154297,-0.004785645287483931
1761330810171965700,3.484965576171875,10.1814603805542,3.4025938510894775,-0.01196411345154047
1761330810190666500,3.50366650390625,10.607382774353027,3.603590965270996,-0.13878370821475983
1761330810209367300,3.5223671875,10.96869945526123,3.538984775543213,0.035892341285943985
1761330810228068000,3.541068115234375,11.397014617919922,3.1752755641937256,0.6221339106559753
1761330810246769000,3.559768798828125,11.889935493469238,2.6799614429473877,1.0959128141403198
1761330810265469400,3.578469482421875,12.29671573638916,2.2061824798583984,0.9690931439399719
1761330810284170200,3.597170166015625,12.134003639221191,1.9142581224441528,0.6197410821914673
1761330810302871000,3.61587109375,11.674581527709961,1.9094724655151367,0.39481574296951294
1761330810321571800,3.63457177734375,11.375478744506836,1.7802600860595703,0.4666004180908203
1761330810340272400,3.6532724609375,11.085947036743164,1.5122638940811157,0.5934200286865234
1761330810358973200,3.67197314453125,10.454241752624512,1.3495519161224365,0.8015955686569214
1761330810377674000,3.690674072265625,9.595218658447266,1.454836130142212,0.9284151792526245
1761330810396374800,3.709374755859375,8.724231719970703,1.7084753513336182,1.0001999139785767
1761330810415075600,3.72807568359375,7.960920810699463,1.9908283948898315,0.8063812255859375
1761330810433776000,3.746776123046875,7.41535758972168,2.172683000564575,0.5383850932121277
1761330810452477000,3.765476806640625,7.1473612785339355,2.383251428604126,0.31345975399017334
1761330810471177700,3.784177734375,7.267002582550049,2.589034080505371,0.15314064919948578
1761330810489878300,3.802878173828125,7.6474609375,2.730210542678833,0.040677983313798904
1761330810508579300,3.821579345703125,8.073383331298828,2.833101987838745,0.09810572862625122
1761330810527279900,3.84027978515625,8.317451477050781,2.940778970718384,0.26081767678260803
1761330810545980700,3.858980712890625,8.453842163085938,3.1561331748962402,0.41874396800994873
1761330810564681500,3.877681396484375,8.707481384277344,3.263810157775879,0.5599204897880554
1761330810583382300,3.89638232421875,9.152546882629395,3.3164522647857666,0.4546363055706024
1761330810602083000,3.9150830078125,9.592825889587402,3.321237802505493,0.21296121180057526
1761330810620783600,3.93378369140625,9.961320877075195,3.3858439922332764,-0.0023928226437419653
1761330810639484400,3.952484375,10.138389587402344,3.4337005615234375,-0.09092725813388824
1761330810658185200,3.971185302734375,9.992427825927734,3.4719855785369873,-0.04546362906694412
1761330810676886000,3.989885986328125,9.628718376159668,3.5820555686950684,0.11964113265275955
1761330810695586800,4.0085869140625,9.22433090209961,3.675375461578369,0.19142581522464752
1761330810714287400,4.027287353515625,9.109476089477539,3.6634113788604736,0.15314064919948578
1761330810732988200,4.04598828125,8.879764556884766,3.4887354373931885,0.22971096634864807
1761330810751689000,4.06468896484375,8.50169849395752,3.6705899238586426,-0.016749758273363113
1761330810770389800,4.0833896484375,8.274380683898926,4.039084434509277,-0.4331009089946747
1761330810789090600,4.102090576171875,8.293522834777832,4.390829563140869,-0.8422735929489136
1761330810807791000,4.120791015625,8.86062240600586,4.567898273468018,-1.428515076637268
1761330810826492000,4.139491943359375,9.597611427307129,4.627718925476074,-2.012363910675049
1761330810845192700,4.158192626953125,10.820343971252441,4.855037212371826,-2.6225335597991943
1761330810863893500,4.1768935546875,11.631510734558105,5.134997367858887,-2.486142635345459
1761330810882594300,4.19559423828125,11.37069320678711,4.9531426429748535,-1.9262222051620483
1761330810901294800,4.214294921875,11.473584175109863,4.1730828285217285,-1.246660590171814
1761330810919996000,4.232995849609375,11.971291542053223,3.091526746749878,-1.1030912399291992
1761330810938696400,4.251696533203125,11.892328262329102,2.287538528442383,-1.6342978477478027
1761330810957397200,4.270397216796875,11.389835357666016,1.9764715433120728,-2.478964328765869
1761330810976098000,4.28909814453125,10.820343971252441,1.7802600860595703,-2.785245656967163
1761330810994798800,4.307798828125,10.29870891571045,1.5098711252212524,-2.201396942138672
1761330811013499600,4.326499755859375,9.736394882202148,1.5074782371520996,-1.0959128141403198
1761330811032200200,4.3452001953125,9.183652877807617,1.6319050788879395,-0.3756731450557709
1761330811050901000,4.36390087890625,8.578269004821777,1.7228323221206665,-0.2512463629245758
1761330811069601800,4.382601806640625,7.886743545532227,1.801795482635498,-0.34217363595962524
1761330811088302600,4.401302490234375,7.0683979988098145,2.053041934967041,-0.2871387302875519
1761330811107003400,4.42000341796875,6.364908218383789,2.4526431560516357,0.12681959569454193
1761330811125704200,4.4387041015625,6.338587284088135,2.6225335597991943,0.44027936458587646
1761330811144404700,4.45740478515625,7.135396957397461,2.6297121047973633,0.3206382393836975
1761330811163105500,4.47610546875,7.922635555267334,2.8522446155548096,-0.30149564146995544
1761330811181806300,4.494806396484375,8.12123966217041,3.2757742404937744,-0.729810893535614
1761330811200507100,4.513507080078125,8.149953842163086,3.4241292476654053,-0.7130611538887024
1761330811219208000,4.5322080078125,8.197810173034668,3.376272678375244,-0.6484549641609192
1761330811237908500,4.550908447265625,8.537590980529785,3.311666488647461,-0.5431707501411438
1761330811256609500,4.569609619140625,8.475378036499023,3.19441819190979,-0.26081767678260803
1761330811275310000,4.58831005859375,8.310273170471191,3.3236305713653564,-0.12681959569454193
1761330811294011000,4.607010986328125,8.575876235961914,3.6299118995666504,-0.3278166949748993
1761330811312711700,4.625711669921875,8.776873588562012,3.845266103744507,-0.7178468108177185
1761330811331412500,4.64441259765625,8.975478172302246,4.01754903793335,-0.6939185857772827
1761330811350113300,4.66311328125,9.274580955505371,3.8979079723358154,-0.33499518036842346
1761330811368814000,4.68181396484375,9.592825889587402,3.809373617172241,0.1052841991186142
1761330811387514600,4.7005146484375,10.088140487670898,3.996013879776001,0.2991028428077698
1761330811406215400,4.71921533203125,10.497312545776367,4.015156269073486,0.48095735907554626
1761330811424916200,4.737916259765625,10.85145092010498,3.950550079345703,0.6628118753433228
1761330811443617000,4.756616943359375,11.526226997375488,3.94815731048584,0.3756731450557709
1761330811462317800,4.77531787109375,11.94736385345459,4.118047714233398,-0.12681959569454193
1761330811481018600,4.7940185546875,11.557332992553711,4.048655986785889,-0.12442677468061447
1761330811499719400,4.812719482421875,10.841879844665527,3.8285162448883057,0.6652047038078308
1761330811518420000,4.831419921875,10.832307815551758,3.1896326541900635,1.7874385118484497
1761330811537120800,4.850120849609375,11.933006286621094,2.4119651317596436,2.2995026111602783
1761330811555821600,4.868821533203125,12.540783882141113,1.7611174583435059,2.225325107574463
1761330811574522400,4.8875224609375,12.114861488342285,1.7204394340515137,1.6175481081008911
1761330811593223200,4.90622314453125,11.095519065856934,1.8664016723632812,1.210768222808838
1761330811611924000,4.924924072265625,10.052248001098633,2.043470621109009,1.1198409795761108
1761330811630624800,4.943624755859375,9.066405296325684,2.218146562576294,1.0456634759902954
1761330811649325600,4.96232568359375,8.008777618408203,2.383251428604126,0.9212366938591003
1761330811668026000,4.981026123046875,6.946363925933838,2.7254250049591064,0.6795616149902344
1761330811686727200,4.99972705078125,6.20219612121582,3.0891339778900146,0.19142581522464752
1761330811705427700,5.018427734375,6.099305152893066,3.493520975112915,-0.3732803463935852
1761330811724128500,5.03712841796875,6.463014125823975,3.6442689895629883,-0.6819544434547424
1761330811742829300,5.055829345703125,7.101897716522217,3.7328033447265625,-0.8015955686569214
1761330811761530000,5.074530029296875,7.621140003204346,3.8763725757598877,-0.8877372145652771
1761330811780231000,5.09323095703125,8.068597793579102,3.9314076900482178,-0.5359922647476196
1761330811798931700,5.111931640625,8.360522270202637,3.651447296142578,0.15314064919948578
1761330811817632300,5.13063232421875,8.50169849395752,3.2757742404937744,0.6699903607368469
1761330811836333300,5.149333251953125,8.80798053741455,3.105883836746216,0.8685946464538574
1761330811855033900,5.168033935546875,9.016156196594238,3.13220477104187,0.7537391185760498
1761330811873734700,5.186734619140625,9.018548965454102,3.3332018852233887,0.5120640397071838
1761330811892435500,5.205435546875,8.865407943725586,3.641875982284546,0.2991028428077698
1761330811911136300,5.22413623046875,8.676374435424805,3.9146578311920166,0.20099709928035736
1761330811929837000,5.242837158203125,8.628518104553223,4.208974838256836,0.275174617767334
1761330811948537900,5.261537841796875,8.657232284545898,4.342973232269287,0.397208571434021
1761330811967238400,5.28023828125,8.482556343078613,4.395615100860596,0.2584248483181
1761330811985939500,5.298939453125,8.458627700805664,4.510470867156982,-0.4163511395454407
1761330812004640000,5.317639892578125,8.834300994873047,4.541577339172363,-1.1413763761520386
1761330812023340800,5.3363408203125,9.317651748657227,4.053441524505615,-1.1724830865859985
1761330812042041600,5.35504150390625,10.107282638549805,3.7399818897247314,-0.8327022790908813
1761330812060742400,5.373742431640625,11.169695854187012,4.086941242218018,-0.7848458290100098
1761330812079443200,5.392443115234375,11.784651756286621,4.254438877105713,-0.4546363055706024
1761330812098144000,5.41114404296875,11.732009887695312,3.9146578311920166,-0.04307080805301666
1761330812116844800,5.4298447265625,11.636296272277832,3.3403804302215576,-0.10049854964017868
1761330812135545600,5.448545654296875,11.801401138305664,2.541177749633789,-0.33020952343940735
1761330812154246400,5.467246337890625,11.820544242858887,1.887937068939209,-0.6293123364448547
1761330812172947000,5.485947021484375,11.734402656555176,1.6151553392410278,-1.1222338676452637
1761330812191648000,5.50464794921875,11.492727279663086,1.5744773149490356,-1.3878371715545654
1761330812210348500,5.5233486328125,10.954341888427734,1.648654818534851,-1.1341979503631592
1761330812229049300,5.54204931640625,10.147960662841797,1.9214365482330322,-0.638883650302887
1761330812247750100,5.560750244140625,9.293723106384277,2.225325107574463,-0.2727817893028259
1761330812266451000,5.579450927734375,8.724231719970703,2.4526431560516357,-0.24646073579788208
1761330812285151700,5.59815185546875,8.444271087646484,2.493321180343628,-0.41156548261642456
1761330812303852500,5.6168525390625,8.123632431030273,2.4909284114837646,-0.5623133182525635
1761330812322553300,5.63555322265625,7.759923934936523,2.8139593601226807,-0.6819544434547424
1761330812341254100,5.654254150390625,7.386643409729004,3.177668571472168,-0.6699903607368469
1761330812359955000,5.672954833984375,7.125825881958008,3.5150563716888428,-0.729810893535614
1761330812378655500,5.691655517578125,6.9822564125061035,3.7495529651641846,-0.7920243144035339
1761330812397356300,5.710356201171875,6.869793891906738,3.838087558746338,-0.6340979933738708
1761330812416057000,5.72905712890625,7.0683979988098145,3.744767427444458,-0.4331009089946747
1761330812434758000,5.7477578125,7.5804619789123535,3.6131622791290283,-0.23210379481315613
1761330812453458700,5.766458740234375,8.097311973571777,3.462414264678955,-0.31345975399017334
1761330812472159500,5.785159423828125,8.532805442810059,3.4743785858154297,-0.5647061467170715
1761330812490860300,5.8038603515625,8.827122688293457,3.6323046684265137,-0.6340979933738708
1761330812509561000,5.82256103515625,9.109476089477539,3.7495529651641846,-0.7417750358581543
1761330812528262000,5.841261962890625,9.370293617248535,3.8285162448883057,-0.7896314859390259
1761330812546962700,5.859962646484375,9.470791816711426,3.9074792861938477,-0.6029912829399109
1761330812565663500,5.87866357421875,9.44447135925293,4.185046672821045,-0.4019941985607147
1761330812584364300,5.8973642578125,9.425328254699707,4.508078098297119,-0.2919243574142456
1761330812603064800,5.91606494140625,9.580862045288086,4.575077056884766,-0.13160525262355804
1761330812621766000,5.934765869140625,9.729216575622559,4.565505504608154,0.13639089465141296
1761330812640466400,5.953466552734375,10.054640769958496,4.247260093688965,0.3756731450557709
1761330812659167200,5.972167236328125,10.825129508972168,3.9218363761901855,0.6843472719192505
1761330812677868000,5.990867919921875,11.504691123962402,3.9768712520599365,0.46899324655532837
1761330812696568800,6.00956884765625,11.509476661682129,4.280759811401367,-0.059820566326379776
1761330812715269600,6.02826953125,10.956734657287598,3.9074792861938477,0.2679961323738098
1761330812733970400,6.046970458984375,10.990234375,3.538984775543213,1.1341979503631592
1761330812752671200,6.065671142578125,11.586047172546387,2.823530673980713,1.825723648071289
1761330812771372000,6.0843720703125,11.72004508972168,2.115255117416382,1.9669002294540405
1761330812790072800,6.10307275390625,11.181660652160645,1.710868239402771,1.643869161605835
1761330812808773600,6.121773681640625,10.372885704040527,1.7778671979904175,1.0193424224853516
1761330812827474400,6.140474365234375,9.638289451599121,1.7012969255447388,0.8590233325958252
1761330812846175200,6.15917529296875,9.20279598236084,1.7180466651916504,0.9834501147270203
1761330812864876000,6.1778759765625,8.669196128845215,2.0578274726867676,0.9188438653945923
1761330812883576800,6.196576904296875,8.090133666992188,2.376072883605957,0.7920243144035339
1761330812902277600,6.215277587890625,7.549355506896973,2.6967110633850098,0.4905286431312561
1761330812920978200,6.233978271484375,7.307680130004883,2.902493953704834,0.16271193325519562
1761330812939679200,6.25267919921875,7.295716285705566,3.084348440170288,-0.2225325107574463
1761330812958380000,6.271380126953125,7.487142086029053,3.1896326541900635,-0.5048855543136597
1761330812977080600,6.29008056640625,7.671389579772949,3.2709884643554688,-0.5934200286865234
1761330812995781600,6.30878173828125,7.8556365966796875,3.3714871406555176,-0.43549370765686035
1761330813014482200,6.327482177734375,8.236095428466797,3.2279176712036133,-0.035892341285943985
1761330813033183000,6.346182861328125,8.673981666564941,3.012563705444336,0.363709032535553
1761330813051883800,6.3648837890625,8.982656478881836,2.8833513259887695,0.7034898400306702
1761330813070584600,6.38358447265625,9.32722282409668,2.871387243270874,0.8781659007072449
1761330813089285400,6.402285400390625,9.619147300720215,3.0795626640319824,0.4713860750198364
1761330813107986200,6.420986083984375,9.76989459991455,3.2829527854919434,0.059820566326379776
1761330813126687000,6.43968701171875,9.750752449035645,3.3236305713653564,0.05742774158716202
1761330813145387800,6.4583876953125,9.56650447845459,3.4743785858154297,-0.01196411345154047
1761330813164088600,6.477088623046875,9.372686386108398,3.7160534858703613,-0.10767702013254166
1761330813182789400,6.495789306640625,9.190832138061523,3.9457645416259766,-0.13639089465141296
1761330813201490200,6.514490234375,9.162117958068848,3.9050865173339844,-0.33020952343940735
1761330813220191000,6.53319091796875,8.999405860900879,3.7184464931488037,-0.3445664644241333
1761330813238891800,6.551891845703125,9.030512809753418,3.845266103744507,-0.760917603969574
1761330813257592600,6.570592529296875,9.418149948120117,3.9122650623321533,-1.098305583000183
1761330813276293400,6.58929345703125,10.217352867126465,3.88594388961792,-1.129412293434143
1761330813294994200,6.607994140625,10.815558433532715,3.809373617172241,-1.062413215637207
1761330813313695000,6.626695068359375,10.832307815551758,3.972085475921631,-1.1365907192230225
1761330813332395800,6.645395751953125,10.401599884033203,4.395615100860596,-1.7419748306274414
1761330813351096600,6.6640966796875,9.650253295898438,4.563112735748291,-1.7324036359786987
1761330813369797000,6.682797119140625,9.710074424743652,4.268795490264893,-1.0456634759902954
1761330813388498200,6.701498291015625,10.72702407836914,3.783052682876587,-0.5264210104942322
1761330813407199000,6.720198974609375,11.483156204223633,2.940778970718384,-0.17228323221206665
1761330813425899800,6.738899658203125,11.303693771362305,1.9357935190200806,-0.004785645287483931
1761330813444600600,6.7576005859375,10.923234939575195,1.4333007335662842,0.07417750358581543
1761330813463301400,6.77630126953125,10.875378608703613,1.6630117893218994,-0.21296121180057526
1761330813482002200,6.795002197265625,10.545169830322266,2.0315065383911133,-0.4666004180908203
1761330813500703000,6.813702880859375,9.765109062194824,1.9142581224441528,-0.3924229145050049
1761330813519403800,6.83240380859375,8.994620323181152,1.7539390325546265,-0.12203395366668701
1761330813538104600,6.8511044921875,8.702695846557617,1.9022940397262573,0.10767702013254166
1761330813556805400,6.869805419921875,8.707481384277344,2.227717876434326,-0.24406790733337402
1761330813575506200,6.888506103515625,8.882157325744629,2.4287149906158447,-0.641276478767395
1761330813594207000,6.90720703125,8.865407943725586,2.6727828979492188,-0.5455635786056519
1761330813612907800,6.92590771484375,8.226524353027344,2.974278450012207,-0.4091726839542389
1761330813631608600,6.944608642578125,7.448856830596924,3.2135608196258545,-0.7848458290100098
1761330813650309400,6.963309326171875,7.45364236831665,3.81655216217041,-0.7489534616470337
1761330813669010200,6.98201025390625,7.362715244293213,3.869194269180298,-0.3732803463935852
1761330813687711000,7.0007109375,7.334001541137695,3.893122434616089,-0.4331009089946747
1761330813706411800,7.019411865234375,7.5637125968933105,3.8739798069000244,-0.9810572862625122
1761330813725112600,7.038112548828125,8.147561073303223,3.682554006576538,-0.9451649188995361
1761330813743813400,7.0568134765625,8.391629219055176,3.4672000408172607,-0.6317051649093628
1761330813762514200,7.07551416015625,8.475378036499023,3.649054527282715,-0.914058268070221
1761330813781215000,7.094215087890625,8.776873588562012,4.046263217926025,-1.0504491329193115
1761330813799915800,7.112915771484375,9.339186668395996,4.369294166564941,-0.6364908218383789
1761330813818616600,7.131616455078125,9.305686950683594,4.4721856117248535,-0.34217363595962524
1761330813837317000,7.150317138671875,8.95394229888916,4.67078971862793,-0.16510476171970367
1761330813856018200,7.16901806640625,8.709874153137207,5.087141036987305,0.4378865361213684
1761330813874719000,7.187718994140625,8.645268440246582,5.237888813018799,0.7585247755050659
1761330813893419500,7.20641943359375,8.891729354858398,5.053641319274902,1.3471591472625732
1761330813912120600,7.22512060546875,9.595218658447266,5.029713153839111,2.4717857837677
1761330813930821400,7.2438212890625,10.942378044128418,4.991427898406982,2.7397818565368652
1761330813949522200,7.262522216796875,11.911471366882324,5.034498691558838,1.8113667964935303
1761330813968223000,7.281222900390625,11.68175983428955,4.785645484924316,0.9858429431915283
1761330813986923800,7.299923828125,10.884950637817383,4.8502516746521,0.5910272002220154
1761330814005624600,7.31862451171875,10.60977554321289,4.486542224884033,1.4069796800613403
1761330814024325400,7.337325439453125,10.526026725769043,3.9625144004821777,1.8472590446472168
1761330814043026200,7.356026123046875,10.360921859741211,3.682554006576538,2.1822543144226074
1761330814061727000,7.37472705078125,9.923035621643066,3.548556089401245,1.8616160154342651
1761330814080427800,7.393427734375,9.140582084655762,3.452843189239502,1.1150553226470947
1761330814099128600,7.412128662109375,8.520841598510742,3.5365917682647705,0.30628129839897156
1761330814117829400,7.430829345703125,8.233702659606934,3.5676984786987305,0.12921242415905
1761330814136530200,7.4495302734375,8.350951194763184,3.6227335929870605,0.5527420043945312
1761330814155231000,7.46823095703125,8.374878883361816,3.6681971549987793,0.7728816866874695
1761330814173931800,7.486931884765625,8.420342445373535,3.658625841140747,0.4570291340351105
1761330814192632600,7.505632568359375,8.394021987915039,3.634697675704956,0.2105683982372284
1761330814211333400,7.52433349609375,8.298309326171875,3.7088751792907715,0.04785645380616188
1761330814230034200,7.5430341796875,8.066205024719238,3.7950167655944824,-0.1818545162677765
1761330814248735000,7.56173486328125,7.733603000640869,3.9768712520599365,-0.20817556977272034
1761330814267435800,7.580435791015625,7.300501823425293,4.302295207977295,-0.004785645287483931
1761330814286136600,7.599136474609375,7.312466144561768,4.508078098297119,0.2392822653055191
1761330814304837400,7.61783740234375,7.829315662384033,4.4482574462890625,0.2225325107574463
1761330814323538200,7.6365380859375,8.135597229003906,4.271188259124756,-0.12921242415905
1761330814342239000,7.655239013671875,8.209774017333984,4.390829563140869,-0.44745782017707825
1761330814360939800,7.673939697265625,8.018348693847656,4.467400074005127,-0.44745782017707825
1761330814379640600,7.692640625,7.793423175811768,4.450650215148926,-0.34217363595962524
1761330814398341400,7.71134130859375,7.781459331512451,4.632504463195801,-0.18903298676013947
1761330814417042200,7.730042236328125,7.901100158691406,4.8191447257995605,-0.04307080805301666
1761330814435743000,7.748742919921875,7.934599876403809,4.864608287811279,-0.01196411345154047
1761330814454443800,7.76744384765625,7.836493968963623,4.898108005523682,-0.3278166949748993
1761330814473144600,7.78614453125,7.795815944671631,5.003392219543457,-0.5216353535652161
1761330814491845400,7.804845458984375,7.755138397216797,5.01296329498291,-0.7657032608985901
1761330814510546400,7.82354638671875,7.9728851318359375,5.182853698730469,-1.155733346939087
1761330814529247200,7.842247314453125,8.336593627929688,5.367101192474365,-1.4715858697891235
1761330814547947800,7.86094775390625,8.640482902526855,5.422136306762695,-1.672582983970642
1761330814566648800,7.87964892578125,8.95394229888916,5.37906551361084,-1.275374412536621
1761330814585349600,7.898349609375,9.602396965026855,5.431707382202148,-1.0480563640594482
1761330814604050400,7.917050537109375,10.26760196685791,5.740381717681885,-1.2658032178878784
1761330814622751000,7.9357509765625,10.205389022827148,6.0370917320251465,-1.8544375896453857
1761330814641452000,7.9544521484375,9.841679573059082,5.9676995277404785,-1.7228323221206665
1761330814660152800,7.97315283203125,9.915857315063477,5.414957523345947,-0.9595218896865845
1761330814678853600,7.991853515625,10.317851066589355,4.634897232055664,-0.33738797903060913
1761330814697554400,8.010554443359375,10.937592506408691,3.955335855484009,-0.3565305769443512
1761330814716255200,8.029255126953124,11.081161499023438,3.4480574131011963,-0.9571290612220764
1761330814734956000,8.0479560546875,10.920842170715332,3.1178479194641113,-1.6582261323928833
1761330814753656800,8.06665673828125,10.681560516357422,2.902493953704834,-1.801795482635498
1761330814772357600,8.085357666015625,10.547562599182129,2.7972097396850586,-1.4093725681304932
1761330814791058400,8.104058349609375,9.985248565673828,2.9359934329986572,-0.9810572862625122
1761330814809759200,8.12275927734375,9.018548965454102,3.1178479194641113,-0.8279166221618652
1761330814828460000,8.1414599609375,7.9968132972717285,3.2279176712036133,-0.882951557636261
1761330814847160800,8.160160888671875,7.29810905456543,3.4097721576690674,-1.1078768968582153
1761330814865861600,8.178861572265625,7.085147857666016,3.586841106414795,-1.2203395366668701
1761330814884562700,8.197562744140624,7.164111137390137,3.7160534858703613,-1.2490534782409668
1761330814903263200,8.21626318359375,7.171289443969727,3.814159393310547,-1.2634103298187256
1761330814921964000,8.234964111328125,7.168896675109863,3.9625144004821777,-1.222732424736023
1761330814940664800,8.253664794921875,7.109076023101807,4.1491546630859375,-1.1988041400909424
1761330814959366000,8.272365966796874,7.137789726257324,4.299902439117432,-1.1054840087890625
1761330814978066700,8.291066650390626,7.226324558258057,4.395615100860596,-0.8398807644844055
1761330814996767200,8.309767333984375,7.417750358581543,4.369294166564941,-0.6317051649093628
1761330815015468300,8.32846826171875,7.496713161468506,4.390829563140869,-0.5240281820297241
1761330815034169000,8.347169189453124,7.357929706573486,4.35254430770874,-0.6939185857772827
1761330815052870000,8.365869873046876,7.542177200317383,4.5200419425964355,-1.0408778190612793
1761330815071570700,8.38457080078125,8.13798999786377,4.493721008300781,-1.1988041400909424
1761330815090271500,8.403271484375,8.609375953674316,4.548755645751953,-1.191625714302063
1761330815108972300,8.42197216796875,8.848658561706543,4.541577339172363,-0.6652047038078308
1761330815127673000,8.440673095703126,9.028120040893555,4.692325115203857,0.12921242415905
1761330815146374000,8.459373779296875,9.571290969848633,5.0225348472595215,0.5000999569892883
1761330815165074700,8.47807470703125,9.899106979370117,5.290530681610107,0.2799602448940277
1761330815183775500,8.496775390625,9.884750366210938,5.594419479370117,-0.3684946894645691
1761330815202476300,8.515476318359376,10.1216402053833,5.694917678833008,-0.8446664214134216
1761330815221177000,8.534177001953125,10.600204467773438,5.338387489318848,-0.8183453679084778
1761330815239878000,8.5528779296875,10.892128944396973,5.362315654754639,-0.9188438653945923
1761330815258578700,8.57157861328125,10.738987922668457,5.127819061279297,-0.7800601720809937
1761330815277279700,8.59027978515625,10.676774978637695,4.735395908355713,-0.641276478767395
1761330815295980500,8.60898046875,10.935199737548828,4.192225456237793,-0.09092725813388824
1761330815314681300,8.627681396484375,11.181660652160645,3.5509488582611084,0.39960137009620667
1761330815333382100,8.646382080078125,11.00459098815918,3.1489546298980713,0.48095735907554626
1761330815352083000,8.6650830078125,10.403992652893066,3.050848960876465,0.4019941985607147
1761330815370783700,8.68378369140625,9.681360244750977,3.053241729736328,-0.09571290761232376
1761330815389484500,8.702484619140625,9.19561767578125,3.2709884643554688,-0.7848458290100098
1761330815408185300,8.721185302734375,9.169296264648438,3.1513473987579346,-0.6293123364448547
1761330815426886100,8.73988623046875,9.018548965454102,3.0652058124542236,-0.28953152894973755
1761330815445587000,8.7585869140625,8.535198211669922,3.1752755641937256,0.24885354936122894
1761330815464287700,8.777287841796875,8.025527000427246,3.4791641235351562,0.3684946894645691
1761330815482988500,8.795988525390625,7.850851058959961,3.596412420272827,0.35892340540885925
1761330815501689300,8.814689453125,8.049455642700195,3.5533416271209717,-0.16749759018421173
1761330815520390100,8.83339013671875,8.26241683959961,3.445664644241333,-0.8207381963729858
1761330815539091200,8.85209130859375,8.133204460144043,3.3930225372314453,-1.423729419708252
1761330815557792000,8.8707919921875,8.054241180419922,3.5461630821228027,-1.588834285736084
1761330815576492800,8.889492919921874,8.204988479614258,3.838087558746338,-1.1270195245742798
1761330815595193600,8.908193603515626,8.271987915039062,3.9672999382019043,-0.698704183101654
1761330815613894400,8.926894287109375,8.140382766723633,3.9457645416259766,-0.42352959513664246
1761330815632595200,8.94559521484375,8.173882484436035,3.981656789779663,-0.25363919138908386
1761330815651296000,8.9642958984375,8.358129501342773,4.082155227661133,-0.15314064919948578
1761330815669996800,8.982996826171876,8.528019905090332,4.199403762817383,-0.12921242415905
1761330815688697600,9.001697509765625,8.46580696105957,4.419543266296387,-0.2584248483181
1761330815707398400,9.0203984375,8.2695951461792,4.6540398597717285,-0.4426721930503845
1761330815726099500,9.039099365234375,8.202595710754395,4.809573650360107,-0.5359922647476196
1761330815744800000,9.057800048828126,8.401200294494629,4.969892501831055,-0.5383850932121277
1761330815763500800,9.076500732421875,8.61176872253418,5.058426856994629,-0.43549370765686035
1761330815782201600,9.09520166015625,8.786444664001465,5.127819061279297,-0.6364908218383789
1761330815800902700,9.113902587890625,9.066405296325684,5.087141036987305,-1.0671988725662231
1761330815819603500,9.132603515625,9.403793334960938,5.0225348472595215,-1.4069796800613403
1761330815838304300,9.15130419921875,9.640682220458984,4.828716278076172,-1.1341979503631592
1761330815857005000,9.170005126953125,9.91107177734375,4.661218643188477,-0.7417750358581543
1761330815875705900,9.188705810546875,10.528419494628906,4.756931304931641,-0.6484549641609192
1761330815894406700,9.20740673828125,10.892128944396973,5.343173027038574,-1.3519448041915894
1761330815913107500,9.226107421875,10.329814910888672,5.589633464813232,-1.9525432586669922
1761330815931808300,9.244808349609375,9.626325607299805,5.857629776000977,-1.8735800981521606
1761330815950509000,9.263509033203125,9.523433685302734,5.278566837310791,-0.8685946464538574
1761330815969209900,9.2822099609375,10.286744117736816,4.1659040451049805,0.13639089465141296
1761330815987911000,9.300910888671876,10.856236457824707,3.1130621433258057,0.5455635786056519
1761330816006611700,9.31961181640625,10.892128944396973,2.691925525665283,-0.16749759018421173
1761330816025312500,9.3383125,10.327422142028809,2.7278177738189697,-1.1318050622940063
1761330816044013300,9.357013427734374,9.482755661010742,2.967100143432617,-1.5074782371520996
1761330816062714000,9.375714111328126,8.714659690856934,3.2757742404937744,-1.2705888748168945
1761330816081415000,9.394414794921875,7.987242221832275,3.3643085956573486,-0.8542376756668091
1761330816100115700,9.41311572265625,7.436892986297607,3.3332018852233887,-0.5982056856155396
1761330816118816500,9.43181640625,7.259823799133301,3.3571300506591797,-0.5120640397071838
1761330816137517300,9.450517333984376,7.389036178588867,3.2829527854919434,-0.6436693072319031
1761330816156218000,9.469218017578125,7.616354465484619,3.3092737197875977,-0.8135597109794617
1761330816174919000,9.4879189453125,7.5637125968933105,3.541377544403076,-1.0241280794143677
1761330816193620000,9.506619873046875,7.362715244293213,3.8356947898864746,-1.2681959867477417
1761330816212320800,9.52532080078125,7.188039302825928,4.110869407653809,-1.2370892763137817
1761330816231021600,9.544021484375,7.156932353973389,4.34536600112915,-0.8685946464538574
1761330816249722400,9.562722412109375,7.159325122833252,4.4721856117248535,-0.5407779216766357
1761330816268423200,9.581423095703125,7.1162543296813965,4.543970108032227,-0.576670229434967
1761330816287124000,9.6001240234375,7.250252723693848,4.4650068283081055,-0.8901300430297852
1761330816305824800,9.61882470703125,7.69531774520874,4.426722049713135,-0.8973084688186646
1761330816324525600,9.637525634765625,8.279166221618652,4.551148891448975,-0.794417142868042
1761330816343226400,9.656226318359375,8.745766639709473,4.59421968460083,-0.8087740540504456
1761330816361927200,9.67492724609375,9.131011009216309,4.72582483291626,-0.729810893535614
1761330816380628000,9.6936279296875,9.42054271697998,4.967499732971191,-0.6556333899497986
1761330816399329000,9.7123291015625,9.33440113067627,5.240281581878662,-0.763310432434082
1761330816418029800,9.73102978515625,9.164510726928711,5.438885688781738,-0.8422735929489136
1761330816436730600,9.749730712890624,9.049654960632324,5.61116886138916,-0.6580262184143066
1761330816455431400,9.768431396484376,9.068798065185547,5.66620397567749,-0.3517449200153351
1761330816474132200,9.78713232421875,9.279366493225098,5.548955917358398,0.064606212079525
1761330816492833000,9.8058330078125,9.614361763000488,5.31685209274292,0.4211367964744568
1761330816511533800,9.824533935546874,10.186245918273926,5.2354960441589355,0.40677985548973083
1761330816530234600,9.843234619140626,10.540383338928223,5.769095420837402,-0.0023928226437419653
1761330816548935700,9.861935791015625,10.29153060913086,5.170889854431152,0.3684946894645691
1761330816567636500,9.880636474609375,10.494919776916504,4.807180881500244,0.9044869542121887
1761330816586337000,9.8993369140625,10.96630573272705,4.1659040451049805,1.698904037475586
1761330816605038000,9.9180380859375,11.46401309967041,3.627519130706787,1.6893328428268433
1761330816623739000,9.93673876953125,11.25344467163086,3.376272678375244,1.301695466041565
1761330816642439700,9.955439697265625,10.447063446044922,3.397808074951172,0.9690931439399719
1761330816661140500,9.974140380859374,9.678967475891113,3.445664644241333,0.7322037220001221
1761330816679841300,9.99284130859375,9.32004451751709,3.297309637069702,0.8709874153137207
1761330816698542000,10.0115419921875,9.176474571228027,3.1824541091918945,1.1748759746551514
1761330816717243000,10.030242919921875,8.772088050842285,3.34995174407959,1.2969099283218384
1761330816735944000,10.04894384765625,8.123632431030273,3.4576287269592285,1.124626636505127
1761330816754644700,10.067644775390624,7.685746192932129,3.562912940979004,0.7393822073936462
1761330816773345500,10.086345458984376,7.606783390045166,3.6227335929870605,0.11246266216039658
1761330816792046300,10.10504638671875,7.575676441192627,3.5988051891326904,-0.4163511395454407
1761330816810747100,10.1237470703125,7.594819068908691,3.713660717010498,-0.7082754969596863
1761330816829448000,10.142447998046874,7.76470947265625,3.9672999382019043,-0.7082754969596863
1761330816848148700,10.161148681640626,8.015955924987793,4.122833251953125,-0.48574298620224
1761330816866849500,10.179849609375,8.01356315612793,4.211368083953857,-0.11964113265275955
1761330816885550600,10.198550537109375,7.8556365966796875,4.297509670257568,0.2560320198535919
1761330816904251400,10.21725146484375,7.817351341247559,4.304687976837158,0.550349235534668
1761330816922952200,10.2359521484375,7.877171993255615,4.206582069396973,0.5694918036460876
1761330816941653000,10.254653076171875,7.9585280418396,4.2592244148254395,0.4331009089946747
1761330816960353800,10.273353759765625,8.066205024719238,4.527220249176025,0.23688943684101105
1761330816979054600,10.2920546875,8.173882484436035,4.692325115203857,0.2727817893028259
1761330816997755400,10.31075537109375,8.49452018737793,4.7952165603637695,0.2560320198535919
1761330817016456200,10.329456298828125,8.597412109375,4.790431022644043,0.17706887423992157
1761330817035157200,10.3481572265625,8.420342445373535,5.029713153839111,-0.07178468257188797
1761330817053858000,10.366858154296875,8.331808090209961,5.1565327644348145,-0.1339980661869049
1761330817072558800,10.385558837890626,8.437092781066895,5.225924491882324,-0.15314064919948578
1761330817091259600,10.404259765625,8.530412673950195,5.376672267913818,-0.3397808074951172
1761330817109960400,10.42296044921875,8.563912391662598,5.3694939613342285,-0.5527420043945312
1761330817128661200,10.4416611328125,8.834300994873047,5.254638671875,-0.47617170214653015
1761330817147362000,10.460362060546874,9.308079719543457,5.099104881286621,-0.15553347766399384
1761330817166062800,10.479062744140625,9.81535816192627,5.111069202423096,-0.14356936514377594
1761330817184763600,10.497763671875,10.320243835449219,5.7547383308410645,-0.7226324677467346
1761330817203464400,10.51646435546875,10.334601402282715,5.879165172576904,-0.914058268070221
1761330817222165200,10.535165283203124,10.179067611694336,5.764309883117676,-0.6340979933738708
1761330817240866300,10.5538662109375,10.258030891418457,5.115854740142822,0.16031911969184875
1761330817259567000,10.572567138671875,10.681560516357422,4.175475597381592,0.38763725757598877
1761330817278268000,10.591267822265625,10.980663299560547,3.0317063331604004,0.5024927258491516
1761330817296968700,10.60996875,11.119446754455566,2.500499725341797,-0.019142581149935722
1761330817315669500,10.62866943359375,10.688738822937012,2.500499725341797,-0.6652047038078308
1761330817334370300,10.647370361328125,10.037891387939453,2.7086751461029053,-0.9427721500396729
1761330817353071000,10.666071044921875,9.688538551330566,2.957528829574585,-0.7369893789291382
1761330817371772200,10.684772216796874,9.21715259552002,3.029313564300537,-0.24646073579788208
1761330817390473000,10.703472900390626,8.69791030883789,3.263810157775879,-0.01196411345154047
1761330817409173800,10.722173828125,8.34138011932373,3.3858439922332764,0.12203395366668701
1761330817427874600,10.74087451171875,8.219346046447754,3.326023578643799,-0.1052841991186142
1761330817446575400,10.759575439453124,8.13081169128418,3.3020951747894287,-0.519242525100708
1761330817465276200,10.778276123046876,8.161917686462402,3.2590243816375732,-0.8063812255859375
1761330817483977000,10.79697705078125,8.001599311828613,3.342773199081421,-0.8781659007072449
1761330817502677800,10.815677734375,7.858029365539551,3.5988051891326904,-0.8422735929489136
1761330817521378800,10.83437890625,7.910671710968018,3.5820555686950684,-0.46420758962631226
1761330817540079600,10.85307958984375,7.779066562652588,4.342973232269287,-1.0097711086273193
1761330817558780400,10.871780517578125,6.5180487632751465,4.54636287689209,-1.2442678213119507
1761330817577481200,10.890481201171875,6.3601226806640625,4.213760852813721,-0.6269195079803467
1761330817596182000,10.90918212890625,7.192824840545654,4.130012035369873,-0.607776939868927
