time,seconds_elapsed,z,y,x
1761315595404689200,0.064689208984375,-0.8734588623046875,-0.3777313232421875,-0.0194091796875
1761315595414737000,0.07473681640625,-0.853546142578125,-0.3931427001953125,-0.0201568603515625
1761315595424784100,0.0847841796875,-0.8492584228515625,-0.4058380126953125,-0.020477294921875
1761315595434832100,0.09483203125,-0.8552093505859375,-0.4119720458984375,-0.019134521484375
1761315595444879000,0.104879150390625,-0.85540771484375,-0.4138031005859375,-0.014678955078125
1761315595454926800,0.1149267578125,-0.8618316650390625,-0.40924072265625,-0.013916015625
1761315595464975000,0.12497509765625,-0.87042236328125,-0.4012451171875,-0.0133819580078125
1761315595475022000,0.13502197265625,-0.8810272216796875,-0.4004364013671875,-0.0084228515625
1761315595485070000,0.145070068359375,-0.8887481689453125,-0.39996337890625,-0.0046234130859375
1761315595495117300,0.155117431640625,-0.8915863037109375,-0.3948822021484375,-0.00335693359375
1761315595505165000,0.1651650390625,-0.905029296875,-0.3932342529296875,0.000946044921875
1761315595515212000,0.1752119140625,-0.9223480224609375,-0.3880462646484375,-0.001861572265625
1761315595525260000,0.185260009765625,-0.9244232177734375,-0.381011962890625,-0.007843017578125
1761315595535307300,0.195307373046875,-0.924835205078125,-0.37255859375,-0.01226806640625
1761315595545355000,0.20535498046875,-0.9305419921875,-0.3669281005859375,-0.0171966552734375
1761315595555403000,0.215403076171875,-0.9428558349609375,-0.371429443359375,-0.012054443359375
1761315595565450200,0.2254501953125,-0.953216552734375,-0.3759307861328125,-0.00433349609375
1761315595575498000,0.235498046875,-0.9624176025390625,-0.3807830810546875,0.0034942626953125
1761315595585545000,0.245544921875,-0.973785400390625,-0.3818206787109375,0.0109405517578125
1761315595595593000,0.255593017578125,-0.9683685302734375,-0.3758544921875,0.013763427734375
1761315595605640200,0.26564013671875,-0.9615325927734375,-0.3771514892578125,0.01953125
1761315595615688200,0.275688232421875,-0.9701995849609375,-0.38909912109375,0.0266876220703125
1761315595625735200,0.285735107421875,-0.9760284423828125,-0.3966064453125,0.02569580078125
1761315595635783200,0.295783203125,-0.9824066162109375,-0.394134521484375,0.0125579833984375
1761315595645831200,0.3058310546875,-0.9871063232421875,-0.39288330078125,-0.0026397705078125
1761315595655878100,0.315878173828125,-0.9921417236328125,-0.388641357421875,-0.0217742919921875
1761315595665925400,0.32592529296875,-0.9884490966796875,-0.37347412109375,-0.04193115234375
1761315595675972000,0.33597216796875,-0.9948577880859375,-0.3529052734375,-0.054840087890625
1761315595686020400,0.346020263671875,-1.007080078125,-0.3367919921875,-0.055419921875
1761315595696067300,0.3560673828125,-1.008880615234375,-0.3322296142578125,-0.052703857421875
1761315595706115300,0.366115234375,-1.020477294921875,-0.33123779296875,-0.0530548095703125
1761315595716162600,0.37616259765625,-1.0144500732421875,-0.3319091796875,-0.0466156005859375
1761315595726210300,0.386210205078125,-0.99560546875,-0.3434906005859375,-0.04193115234375
1761315595736257300,0.39625732421875,-0.9921112060546875,-0.3638916015625,-0.0393524169921875
1761315595746305300,0.40630517578125,-0.972930908203125,-0.368072509765625,-0.0430450439453125
1761315595756353300,0.416353271484375,-0.9487457275390625,-0.3638916015625,-0.0894622802734375
1761315595766400300,0.426400146484375,-0.9097137451171875,-0.3377227783203125,-0.0887908935546875
1761315595776448300,0.4364482421875,-0.8419189453125,-0.37152099609375,-0.0346527099609375
1761315595786495200,0.4464951171875,-0.8556671142578125,-0.3672637939453125,-0.0589141845703125
1761315595796543200,0.456543212890625,-0.96319580078125,-0.2756195068359375,-0.0406494140625
1761315595806590200,0.466590087890625,-1.0193023681640625,-0.247314453125,0.0041656494140625
1761315595816638200,0.47663818359375,-0.9910888671875,-0.30926513671875,0.0462188720703125
1761315595826685400,0.486685546875,-0.9574127197265625,-0.333160400390625,0.068206787109375
1761315595836733400,0.4967333984375,-0.9380645751953125,-0.3291473388671875,0.089080810546875
1761315595846781200,0.50678125,-0.9694671630859375,-0.36138916015625,0.1052093505859375
1761315595856828200,0.516828125,-1.0073089599609375,-0.3925018310546875,0.1110992431640625
1761315595866876400,0.52687646484375,-0.991455078125,-0.4012451171875,0.1721343994140625
1761315595876923400,0.53692333984375,-0.942657470703125,-0.387481689453125,0.18670654296875
1761315595886971100,0.54697119140625,-0.9116363525390625,-0.3998260498046875,0.1859893798828125
1761315595897018400,0.557018310546875,-0.84161376953125,-0.395660400390625,0.191741943359375
1761315595907066400,0.56706640625,-0.7982177734375,-0.411865234375,0.171539306640625
1761315595917113300,0.57711328125,-0.8065032958984375,-0.492584228515625,0.1614990234375
1761315595927161300,0.587161376953125,-0.8336944580078125,-0.558349609375,0.1746063232421875
1761315595937208300,0.597208251953125,-0.8661041259765625,-0.527679443359375,0.169036865234375
1761315595947256300,0.60725634765625,-0.8910064697265625,-0.4395294189453125,0.1454620361328125
1761315595957304300,0.61730419921875,-0.90869140625,-0.3775634765625,0.1228485107421875
1761315595967351600,0.6273515625,-0.8961944580078125,-0.351043701171875,0.113006591796875
1761315595977399300,0.6373994140625,-0.877471923828125,-0.3368682861328125,0.0977630615234375
1761315595987446300,0.6474462890625,-0.8264312744140625,-0.3137359619140625,0.08990478515625
1761315595997494300,0.657494384765625,-0.723785400390625,-0.3375091552734375,0.115020751953125
1761315596007541500,0.66754150390625,-0.71160888671875,-0.40240478515625,0.1149749755859375
1761315596017589200,0.67758935546875,-0.719818115234375,-0.423828125,0.1146240234375
1761315596027636200,0.68763623046875,-0.6953887939453125,-0.42462158203125,0.1263427734375
1761315596037684500,0.6976845703125,-0.6437835693359375,-0.47979736328125,0.182464599609375
1761315596047731500,0.7077314453125,-0.615234375,-0.4862823486328125,0.1974334716796875
1761315596057779200,0.717779296875,-0.7614288330078125,-0.4900360107421875,0.2292633056640625
1761315596067827200,0.7278271484375,-0.844482421875,-0.480072021484375,0.192901611328125
1761315596077874400,0.73787451171875,-0.7483367919921875,-0.4597320556640625,0.2013092041015625
1761315596087922400,0.74792236328125,-0.7153472900390625,-0.4752349853515625,0.20086669921875
1761315596097969400,0.757969482421875,-0.7517547607421875,-0.4962158203125,0.155853271484375
1761315596108017400,0.768017333984375,-0.7968597412109375,-0.505096435546875,0.1135711669921875
1761315596118064400,0.778064453125,-0.8232879638671875,-0.5047607421875,0.0798492431640625
1761315596128112400,0.7881123046875,-0.8246002197265625,-0.4662933349609375,0.1070404052734375
1761315596138159400,0.798159423828125,-0.88494873046875,-0.43310546875,0.1260528564453125
1761315596148207400,0.808207275390625,-0.911865234375,-0.4080352783203125,0.1056976318359375
1761315596158254300,0.81825439453125,-0.887664794921875,-0.391571044921875,0.0982513427734375
1761315596168302300,0.82830224609375,-0.906646728515625,-0.388702392578125,0.0702667236328125
1761315596178350300,0.838350341796875,-0.893402099609375,-0.3811798095703125,0.0106201171875
1761315596188397300,0.848397216796875,-0.8691253662109375,-0.3787384033203125,-0.036346435546875
1761315596198445300,0.8584453125,-0.88079833984375,-0.3725433349609375,-0.0523223876953125
1761315596208492300,0.8684921875,-0.9085845947265625,-0.3555450439453125,-0.0599212646484375
1761315596218540500,0.87854052734375,-0.9033050537109375,-0.3395843505859375,-0.067840576171875
1761315596228587300,0.888587158203125,-0.8841094970703125,-0.3445892333984375,-0.063507080078125
1761315596238635300,0.89863525390625,-0.8599395751953125,-0.3556671142578125,-0.050048828125
1761315596248682200,0.90868212890625,-0.8414306640625,-0.3715972900390625,-0.028778076171875
1761315596258730500,0.91873046875,-0.8552398681640625,-0.4105377197265625,-0.0076446533203125
1761315596268777500,0.928777587890625,-0.8734893798828125,-0.4598846435546875,0.018707275390625
1761315596278825200,0.9388251953125,-0.90380859375,-0.4859771728515625,0.034454345703125
1761315596288873500,0.94887353515625,-0.9524688720703125,-0.476959228515625,0.024322509765625
1761315596298920400,0.95892041015625,-0.9838714599609375,-0.452911376953125,0.0089874267578125
1761315596308968200,0.96896826171875,-1.003997802734375,-0.4414520263671875,-0.0003204345703125
1761315596319015200,0.97901513671875,-1.0352630615234375,-0.447296142578125,-0.0004425048828125
1761315596329063400,0.9890634765625,-1.0804443359375,-0.449554443359375,0.0028533935546875
1761315596339110400,0.9991103515625,-1.10003662109375,-0.4441986083984375,0.01806640625
1761315596349158400,1.009158447265625,-1.134521484375,-0.4403076171875,0.03704833984375
1761315596359205000,1.019205078125,-1.16162109375,-0.4482879638671875,0.0543212890625
1761315596369253400,1.02925341796875,-1.168121337890625,-0.467071533203125,0.0750274658203125
1761315596379300400,1.03930029296875,-1.176300048828125,-0.4893341064453125,0.0876922607421875
1761315596389348400,1.049348388671875,-1.170562744140625,-0.50335693359375,0.0830230712890625
1761315596399396400,1.059396240234375,-1.1427764892578125,-0.495819091796875,0.0568084716796875
1761315596409443300,1.069443359375,-1.091064453125,-0.4773101806640625,0.0247650146484375
1761315596419491300,1.0794912109375,-1.0437774658203125,-0.474578857421875,0.008514404296875
1761315596429538300,1.089538330078125,-1.0052032470703125,-0.4879913330078125,0.0028228759765625
1761315596439586300,1.09958642578125,-0.903350830078125,-0.490936279296875,0.0113525390625
1761315596449633300,1.10963330078125,-0.833648681640625,-0.4793243408203125,0.020660400390625
1761315596459681300,1.119681396484375,-0.77740478515625,-0.4713897705078125,0.01446533203125
1761315596469728300,1.129728271484375,-0.6987152099609375,-0.44903564453125,0.0291290283203125
1761315596479776300,1.1397763671875,-0.675079345703125,-0.4045867919921875,0.0471038818359375
1761315596489823200,1.1498232421875,-0.6730804443359375,-0.304931640625,0.060546875
1761315596499871200,1.159871337890625,-0.669464111328125,-0.329498291015625,0.080108642578125
1761315596509919500,1.16991943359375,-0.7231292724609375,-0.4191131591796875,0.0849151611328125
1761315596519966500,1.179966552734375,-0.68829345703125,-0.408782958984375,0.14215087890625
1761315596530014200,1.19001416015625,-0.6645050048828125,-0.3415374755859375,0.143157958984375
1761315596540061200,1.200061279296875,-0.68072509765625,-0.3254547119140625,0.07403564453125
1761315596550109400,1.210109375,-0.6822662353515625,-0.3527069091796875,-0.054443359375
1761315596560156400,1.220156494140625,-0.570648193359375,-0.329986572265625,-0.0778961181640625
1761315596570204200,1.2302041015625,-0.4745635986328125,-0.2665863037109375,-0.0299224853515625
1761315596580251100,1.240251220703125,-0.4503936767578125,-0.2046966552734375,-0.004913330078125
1761315596590299400,1.25029931640625,-0.4423828125,-0.132354736328125,0.016571044921875
1761315596600346400,1.260346435546875,-0.3311309814453125,-0.021453857421875,0.1099395751953125
1761315596610394000,1.27039404296875,-0.345916748046875,0.15972900390625,0.28643798828125
1761315596620442400,1.2804423828125,-0.6393280029296875,0.1301116943359375,0.173370361328125
1761315596630489300,1.2904892578125,-0.9926910400390625,-0.2205047607421875,0.098114013671875
1761315596640537300,1.300537353515625,-1.1706085205078125,-0.421051025390625,0.0682373046875
1761315596650584300,1.310584228515625,-1.33245849609375,-0.459014892578125,0.0785369873046875
1761315596660632300,1.32063232421875,-1.6001434326171875,-0.464263916015625,0.151641845703125
1761315596670679600,1.330679443359375,-1.8455352783203125,-0.514739990234375,0.249969482421875
1761315596680727600,1.3407275390625,-2.026641845703125,-0.5679168701171875,0.3235015869140625
1761315596690774500,1.3507744140625,-2.234527587890625,-0.471343994140625,0.2604522705078125
1761315596700822300,1.360822265625,-2.243133544921875,-0.2961578369140625,0.1624298095703125
1761315596710869500,1.370869384765625,-2.219818115234375,-0.218597412109375,0.148193359375
1761315596720917500,1.38091748046875,-2.1060333251953125,-0.29486083984375,0.1327972412109375
1761315596730965200,1.39096533203125,-1.9425811767578125,-0.4533233642578125,0.18267822265625
1761315596741012200,1.40101220703125,-1.700714111328125,-0.669036865234375,0.0990447998046875
1761315596751060500,1.411060546875,-1.5792083740234375,-0.81805419921875,-0.054290771484375
1761315596761107500,1.421107421875,-1.5189971923828125,-0.7252960205078125,-0.25164794921875
1761315596771155500,1.431155517578125,-1.3547210693359375,-0.5233001708984375,-0.3675994873046875
1761315596781202400,1.441202392578125,-1.21820068359375,-0.44989013671875,-0.3670654296875
1761315596791250400,1.45125048828125,-1.1357421875,-0.42559814453125,-0.3046722412109375
1761315596801297400,1.46129736328125,-1.04888916015625,-0.3280487060546875,-0.222076416015625
1761315596811345400,1.471345458984375,-0.9381103515625,-0.2078399658203125,-0.1573944091796875
1761315596821392600,1.481392578125,-0.8191070556640625,-0.107452392578125,-0.09747314453125
1761315596831440400,1.4914404296875,-0.68658447265625,-0.020050048828125,-0.0281219482421875
1761315596841488400,1.50148828125,-0.536529541015625,0.101959228515625,-0.0201873779296875
1761315596851535600,1.51153564453125,-0.38824462890625,0.2061004638671875,-0.038543701171875
1761315596861583400,1.521583251953125,-0.24761962890625,0.1915740966796875,-0.0278778076171875
1761315596871630300,1.53163037109375,-0.1561737060546875,0.1530609130859375,-0.035736083984375
1761315596881678300,1.54167822265625,-0.0894012451171875,0.1320037841796875,-0.0354766845703125
1761315596891725600,1.5517255859375,-0.0480499267578125,0.13653564453125,-0.056427001953125
1761315596901773600,1.561773681640625,-0.0115814208984375,0.1604766845703125,-0.067230224609375
1761315596911820300,1.5718203125,0.0392913818359375,0.17047119140625,-0.06640625
1761315596921868500,1.58186865234375,0.0576324462890625,0.13690185546875,-0.066497802734375
1761315596931915500,1.59191552734375,0.023406982421875,0.0718994140625,-0.0299530029296875
1761315596941963500,1.601963623046875,-0.022796630859375,-0.01519775390625,0.007843017578125
1761315596952011300,1.61201123046875,-0.073272705078125,-0.07879638671875,0.0083465576171875
1761315596962058500,1.62205859375,-0.1433563232421875,-0.069580078125,-0.00885009765625
1761315596972106500,1.6321064453125,-0.2140960693359375,-0.0213470458984375,-0.0397491455078125
1761315596982153500,1.642153564453125,-0.27581787109375,-0.0001220703125,-0.0652313232421875
1761315596992201500,1.652201416015625,-0.32379150390625,-0.0045623779296875,-0.0755767822265625
1761315597002248400,1.66224853515625,-0.3507080078125,-0.02606201171875,-0.0580291748046875
1761315597012296400,1.67229638671875,-0.385009765625,-0.0770721435546875,-0.01129150390625
1761315597022343400,1.682343505859375,-0.4442291259765625,-0.1549835205078125,0.042694091796875
1761315597032391400,1.692391357421875,-0.49456787109375,-0.2454376220703125,0.080413818359375
1761315597042438400,1.7024384765625,-0.519134521484375,-0.3972015380859375,0.043701171875
1761315597052486400,1.712486328125,-0.55499267578125,-0.6793365478515625,-0.1215057373046875
1761315597062534700,1.72253466796875,-0.748016357421875,-0.468017578125,-0.044708251953125
1761315597072581600,1.73258154296875,-0.8417205810546875,-0.6633758544921875,-0.0717926025390625
1761315597082629400,1.74262939453125,-0.865020751953125,-0.8919219970703125,0.0214691162109375
1761315597092676400,1.75267626953125,-1.1330413818359375,-1.06927490234375,0.0509033203125
1761315597102724600,1.762724609375,-1.29180908203125,-1.228973388671875,0.08819580078125
1761315597112771600,1.772771484375,-1.3574981689453125,-1.373809814453125,0.1068267822265625
1761315597122819300,1.7828193359375,-1.4163970947265625,-1.5796661376953125,0.086517333984375
1761315597132866300,1.7928662109375,-1.477508544921875,-1.6180572509765625,0.0971221923828125
1761315597142914600,1.80291455078125,-1.6940155029296875,-1.6082000732421875,0.0200347900390625
1761315597152961500,1.81296142578125,-1.8576202392578125,-1.6673431396484375,-0.0251922607421875
1761315597163009300,1.82300927734375,-2.00091552734375,-1.553497314453125,-0.0913848876953125
1761315597173056300,1.83305615234375,-2.1182098388671875,-1.4526824951171875,-0.1700286865234375
1761315597183104500,1.8431044921875,-2.1070098876953125,-1.362548828125,-0.171173095703125
1761315597193152500,1.853152587890625,-2.0641937255859375,-1.276702880859375,-0.1535186767578125
1761315597203199500,1.863199462890625,-1.8956298828125,-1.1612396240234375,-0.094879150390625
1761315597213247500,1.87324755859375,-1.69561767578125,-1.026519775390625,-0.0567626953125
1761315597223294500,1.88329443359375,-1.4849700927734375,-0.9404296875,-0.01123046875
1761315597233342500,1.893342529296875,-1.237396240234375,-0.8350372314453125,0.0105438232421875
1761315597243389400,1.903389404296875,-0.9874267578125,-0.6918792724609375,0.02691650390625
1761315597253437400,1.9134375,-0.7486572265625,-0.5931396484375,0.0460662841796875
1761315597263484400,1.923484375,-0.5432586669921875,-0.5531158447265625,0.02484130859375
1761315597273532400,1.933532470703125,-0.3776702880859375,-0.5153961181640625,-0.031036376953125
1761315597283579400,1.943579345703125,-0.222930908203125,-0.45648193359375,-0.1082000732421875
1761315597293627400,1.95362744140625,-0.0926666259765625,-0.353546142578125,-0.1894073486328125
1761315597303675400,1.96367529296875,-0.0130157470703125,-0.2284393310546875,-0.265838623046875
1761315597313722400,1.973722412109375,0.0253753662109375,-0.1021728515625,-0.30633544921875
1761315597323770600,1.9837705078125,0.0293426513671875,-0.004425048828125,-0.3001708984375
1761315597333817600,1.993817626953125,-0.003570556640625,0.0345611572265625,-0.25933837890625
1761315597343865300,2.003865234375,-0.053192138671875,0.0333404541015625,-0.1938018798828125
1761315597353912300,2.013912353515625,-0.11181640625,0.0162353515625,-0.1219482421875
1761315597363960600,2.023960693359375,-0.1514892578125,0.0060882568359375,-0.0638427734375
1761315597374007600,2.034007568359375,-0.1694793701171875,0.0048370361328125,-0.0295562744140625
1761315597384055300,2.04405517578125,-0.1853485107421875,-0.0063629150390625,-0.008331298828125
1761315597394102300,2.054102294921875,-0.1904296875,-0.036102294921875,0.0134735107421875
1761315597404150500,2.064150634765625,-0.1763153076171875,-0.0656890869140625,0.028228759765625
1761315597414198300,2.0741982421875,-0.150238037109375,-0.0755462646484375,0.02130126953125
1761315597424245200,2.084245361328125,-0.1259002685546875,-0.083770751953125,-0.0137176513671875
1761315597434293500,2.09429345703125,-0.094329833984375,-0.1026611328125,-0.045867919921875
1761315597444340500,2.104340576171875,-0.0558929443359375,-0.1333465576171875,-0.071502685546875
1761315597454388500,2.114388427734375,-0.0439910888671875,-0.1789703369140625,-0.0828704833984375
1761315597464435500,2.124435546875,-0.0577392578125,-0.2532958984375,-0.056976318359375
1761315597474483500,2.1344833984375,-0.0894622802734375,-0.34271240234375,0.00823974609375
1761315597484530400,2.144530517578125,-0.109375,-0.4239654541015625,0.10430908203125
1761315597494578400,2.154578369140625,-0.107421875,-0.5373687744140625,0.2162933349609375
1761315597504625700,2.164625732421875,-0.1285858154296875,-0.7213592529296875,0.30047607421875
1761315597514673400,2.17467333984375,-0.3068084716796875,-0.909454345703125,0.273590087890625
1761315597524721400,2.184721435546875,-0.5407867431640625,-1.03204345703125,0.1374053955078125
1761315597534768400,2.194768310546875,-0.772613525390625,-1.1045074462890625,0.007110595703125
1761315597544816400,2.20481640625,-1.094268798828125,-1.195709228515625,-0.1610870361328125
1761315597554863400,2.21486328125,-1.409210205078125,-1.2945709228515625,-0.4145660400390625
1761315597564911400,2.224911376953125,-1.7248992919921875,-1.3127288818359375,-0.6298065185546875
1761315597574958600,2.23495849609375,-2.02044677734375,-1.285797119140625,-0.720062255859375
1761315597585006600,2.245006591796875,-2.3433837890625,-1.290557861328125,-0.676666259765625
1761315597595053300,2.25505322265625,-2.5941619873046875,-1.1533660888671875,-0.6692657470703125
1761315597605101300,2.265101318359375,-2.7175445556640625,-0.89501953125,-0.6049957275390625
1761315597615148500,2.2751484375,-2.7592926025390625,-0.7337493896484375,-0.4476470947265625
1761315597625196500,2.285196533203125,-2.6917724609375,-0.6990966796875,-0.2704620361328125
1761315597635244300,2.295244384765625,-2.53924560546875,-0.7204132080078125,-0.1148834228515625
1761315597645291500,2.30529150390625,-2.3643646240234375,-0.721832275390625,0.0349273681640625
1761315597655339500,2.315339599609375,-2.2082977294921875,-0.743408203125,0.1499786376953125
1761315597665387000,2.325386962890625,-1.9777069091796875,-0.6771240234375,0.161529541015625
1761315597675434800,2.335434814453125,-1.70843505859375,-0.6094818115234375,0.1649169921875
1761315597685481700,2.345481689453125,-1.4183807373046875,-0.6164093017578125,0.148834228515625
1761315597695530000,2.355530029296875,-1.0991973876953125,-0.6254425048828125,0.120391845703125
1761315597705577000,2.365576904296875,-0.78826904296875,-0.61279296875,0.0771331787109375
1761315597715624700,2.375624755859375,-0.5275421142578125,-0.5762786865234375,0.0212249755859375
1761315597725671700,2.385671630859375,-0.3096160888671875,-0.536956787109375,-0.016143798828125
1761315597735720000,2.395719970703125,-0.135986328125,-0.4964752197265625,-0.035858154296875
1761315597745768000,2.405767822265625,0.0190887451171875,-0.44775390625,-0.0425567626953125
1761315597755815000,2.41581494140625,0.13623046875,-0.396484375,-0.040252685546875
1761315597765863000,2.42586279296875,0.20947265625,-0.3351898193359375,-0.0730438232421875
1761315597775910000,2.435909912109375,0.3324432373046875,-0.2618255615234375,-0.054107666015625
1761315597785958000,2.4459580078125,0.34515380859375,-0.2409210205078125,-0.01849365234375
1761315597796004900,2.4560048828125,0.300018310546875,-0.2787322998046875,0.000030517578125
1761315597806052900,2.466052978515625,0.2509613037109375,-0.288970947265625,-0.0197296142578125
1761315597816099800,2.476099853515625,0.2155609130859375,-0.2314453125,-0.0764007568359375
1761315597826147800,2.48614794921875,0.21868896484375,-0.1292724609375,-0.136871337890625
1761315597836194800,2.49619482421875,0.1830291748046875,-0.027252197265625,-0.170013427734375
1761315597846242800,2.506242919921875,0.128448486328125,0.0191497802734375,-0.153656005859375
1761315597856289800,2.516289794921875,0.057952880859375,-0.0120849609375,-0.0838165283203125
1761315597866337800,2.526337890625,-0.0763702392578125,-0.132232666015625,0.0592041015625
1761315597876386000,2.536385986328125,-0.164306640625,-0.3346710205078125,0.188629150390625
1761315597886432800,2.546432861328125,-0.2389984130859375,-0.4503631591796875,0.239166259765625
1761315597896480800,2.556480712890625,-0.340728759765625,-0.4755096435546875,0.2717132568359375
1761315597906527700,2.56652783203125,-0.421142578125,-0.52374267578125,0.2660064697265625
1761315597916576000,2.576575927734375,-0.540283203125,-0.618499755859375,0.2299041748046875
1761315597926623000,2.586623046875,-0.6871337890625,-0.665374755859375,0.1786041259765625
1761315597936670700,2.596670654296875,-0.8062744140625,-0.695831298828125,0.124267578125
1761315597946717700,2.6067177734375,-0.8116302490234375,-0.71875,0.0144500732421875
1761315597956766000,2.616765869140625,-0.805511474609375,-0.67962646484375,-0.120361328125
1761315597966813000,2.62681298828125,-0.7915802001953125,-0.6242828369140625,-0.2178955078125
1761315597976860700,2.636860595703125,-0.7370147705078125,-0.663482666015625,-0.2145843505859375
1761315597986907600,2.64690771484375,-0.786529541015625,-0.8121795654296875,-0.1865386962890625
1761315597996956000,2.656955810546875,-0.8934783935546875,-0.812896728515625,-0.2259674072265625
1761315598007004000,2.66700390625,-0.883270263671875,-0.6948394775390625,-0.24859619140625
1761315598017050600,2.677050537109375,-0.9290771484375,-0.7678985595703125,-0.211669921875
1761315598027099000,2.687098876953125,-1.070068359375,-0.9693450927734375,-0.107208251953125
1761315598037145900,2.697145751953125,-1.2479095458984375,-1.0406646728515625,-0.0236663818359375
1761315598047193900,2.70719384765625,-1.4714508056640625,-1.0283660888671875,0.05816650390625
1761315598057240800,2.71724072265625,-1.66876220703125,-1.019134521484375,0.105133056640625
1761315598067288800,2.727288818359375,-1.7657928466796875,-1.0733795166015625,0.14471435546875
1761315598077335800,2.737335693359375,-1.7581939697265625,-1.073089599609375,0.0828704833984375
1761315598087383800,2.7473837890625,-1.6165313720703125,-1.03692626953125,-0.001190185546875
1761315598097431000,2.75743115234375,-1.5000457763671875,-1.0100250244140625,0.023101806640625
1761315598107478800,2.767478759765625,-1.4540863037109375,-1.0718994140625,0.143341064453125
1761315598117526800,2.77752685546875,-1.47015380859375,-1.137969970703125,0.2513885498046875
1761315598127573800,2.78757373046875,-1.45440673828125,-1.1316375732421875,0.261260986328125
1761315598137621800,2.797621826171875,-1.4097747802734375,-1.0432891845703125,0.1886444091796875
1761315598147668700,2.807668701171875,-1.330963134765625,-0.910675048828125,0.0894775390625
1761315598157716700,2.817716796875,-1.20184326171875,-0.762420654296875,-0.058135986328125
1761315598167763700,2.827763671875,-1.0382843017578125,-0.6254425048828125,-0.193359375
1761315598177812000,2.83781201171875,-0.8974456787109375,-0.558563232421875,-0.2449951171875
1761315598187859000,2.84785888671875,-0.7822113037109375,-0.5201568603515625,-0.2281036376953125
1761315598197906700,2.85790673828125,-0.700927734375,-0.4824371337890625,-0.1596832275390625
1761315598207954000,2.867953857421875,-0.6569061279296875,-0.476165771484375,-0.068145751953125
1761315598218002000,2.878001953125,-0.6299285888671875,-0.43670654296875,0.0104217529296875
1761315598228049000,2.888048828125,-0.6110076904296875,-0.3536529541015625,0.032012939453125
1761315598238096600,2.8980966796875,-0.52825927734375,-0.25616455078125,0.002471923828125
1761315598248145000,2.908144775390625,-0.4186553955078125,-0.171478271484375,-0.0595703125
1761315598258192000,2.91819189453125,-0.3091583251953125,-0.113037109375,-0.08685302734375
1761315598268239600,2.928239501953125,-0.222625732421875,-0.1045989990234375,-0.0861968994140625
1761315598278286800,2.938286865234375,-0.1584625244140625,-0.1486968994140625,-0.05853271484375
1761315598288334800,2.9483349609375,-0.1217498779296875,-0.2150421142578125,-0.0101165771484375
1761315598298381800,2.9583818359375,-0.101531982421875,-0.2711181640625,0.0646209716796875
1761315598308429800,2.968429931640625,-0.087371826171875,-0.3023223876953125,0.1201629638671875
1761315598318476800,2.978476806640625,-0.09307861328125,-0.3164825439453125,0.1383209228515625
1761315598328524800,2.98852490234375,-0.1352386474609375,-0.3060150146484375,0.1237030029296875
1761315598338571800,2.99857177734375,-0.1746368408203125,-0.2743072509765625,0.079437255859375
1761315598348620000,3.0086201171875,-0.202911376953125,-0.225189208984375,0.0114288330078125
1761315598358667000,3.0186669921875,-0.2285919189453125,-0.174652099609375,-0.0393524169921875
1761315598368714800,3.02871484375,-0.254547119140625,-0.1374664306640625,-0.0611724853515625
1761315598378762800,3.0387626953125,-0.298675537109375,-0.132904052734375,-0.0458984375
1761315598388810000,3.04881005859375,-0.3448638916015625,-0.1728363037109375,-0.0219879150390625
1761315598398857700,3.058857666015625,-0.3399505615234375,-0.237060546875,0.0083465576171875
1761315598408904700,3.06890478515625,-0.305084228515625,-0.3209075927734375,0.0263671875
1761315598418953000,3.078952880859375,-0.2516937255859375,-0.395477294921875,0.0231781005859375
1761315598429000000,3.089,-0.204803466796875,-0.428863525390625,-0.007598876953125
1761315598439048000,3.0990478515625,-0.1737060546875,-0.450286865234375,-0.054962158203125
1761315598449094700,3.1090947265625,-0.165252685546875,-0.527435302734375,-0.0984039306640625
1761315598459143000,3.119142822265625,-0.1970977783203125,-0.748931884765625,-0.0398712158203125
1761315598469190000,3.12918994140625,-0.2822418212890625,-1.0704803466796875,0.0810699462890625
1761315598479238000,3.13923779296875,-0.3469085693359375,-1.3432769775390625,0.17437744140625
1761315598489284900,3.149284912109375,-0.38970947265625,-1.4157562255859375,0.1426239013671875
1761315598499332900,3.159332763671875,-0.44482421875,-1.37103271484375,0.054840087890625
1761315598509380900,3.169380859375,-0.6238250732421875,-1.2511749267578125,-0.0353851318359375
1761315598519427800,3.179427734375,-0.8654327392578125,-1.1453399658203125,-0.10980224609375
1761315598529475800,3.189475830078125,-1.15576171875,-1.1187591552734375,-0.09515380859375
1761315598539522800,3.199522705078125,-1.3767852783203125,-1.251190185546875,0.11114501953125
1761315598549570800,3.20957080078125,-1.595428466796875,-1.549041748046875,0.3631744384765625
1761315598559617800,3.21961767578125,-1.710784912109375,-1.6223907470703125,0.4154205322265625
1761315598569665800,3.229665771484375,-1.7033233642578125,-1.58367919921875,0.3315887451171875
1761315598579712800,3.239712646484375,-1.68621826171875,-1.568756103515625,0.1432037353515625
1761315598589760800,3.2497607421875,-1.619903564453125,-1.549346923828125,-0.097900390625
1761315598599807700,3.259807861328125,-1.58251953125,-1.5318145751953125,-0.3149566650390625
1761315598609856000,3.26985595703125,-1.588348388671875,-1.4731903076171875,-0.4525604248046875
1761315598619903000,3.279903076171875,-1.6240386962890625,-1.3704376220703125,-0.4483795166015625
1761315598629950700,3.28995068359375,-1.6306915283203125,-1.254730224609375,-0.31280517578125
1761315598639997700,3.299997802734375,-1.53607177734375,-1.115997314453125,-0.12982177734375
1761315598650046000,3.3100458984375,-1.3960113525390625,-0.95428466796875,0.021240234375
1761315598660093700,3.32009375,-1.2166290283203125,-0.7851104736328125,0.1169586181640625
1761315598670141200,3.33014111328125,-1.03668212890625,-0.641265869140625,0.205780029296875
1761315598680189200,3.340189208984375,-0.8811798095703125,-0.5630950927734375,0.293365478515625
1761315598690236200,3.350236083984375,-0.7287445068359375,-0.4254608154296875,0.2991790771484375
1761315598700284200,3.3602841796875,-0.5551300048828125,-0.31854248046875,0.3060150146484375
1761315598710331100,3.3703310546875,-0.4068145751953125,-0.3293914794921875,0.284881591796875
1761315598720379100,3.380379150390625,-0.278228759765625,-0.2697601318359375,0.212371826171875
1761315598730426400,3.39042626953125,-0.1607208251953125,-0.189483642578125,0.11065673828125
1761315598740474000,3.40047412109375,-0.12469482421875,-0.1342010498046875,0.003204345703125
1761315598750521000,3.41052099609375,-0.1302032470703125,-0.0988311767578125,-0.0839691162109375
1761315598760569000,3.420569091796875,-0.1391754150390625,-0.0977020263671875,-0.119537353515625
1761315598770616300,3.4306162109375,-0.0778350830078125,-0.0816650390625,-0.0648193359375
1761315598780664300,3.440664306640625,-0.1060028076171875,-0.045257568359375,-0.0559234619140625
1761315598790712000,3.450712158203125,-0.171417236328125,-0.0319976806640625,-0.07586669921875
1761315598800759300,3.46075927734375,-0.140594482421875,-0.0498504638671875,-0.10015869140625
1761315598810807300,3.470807373046875,-0.084136962890625,-0.028839111328125,-0.124176025390625
1761315598820854300,3.480854248046875,-0.0682525634765625,0.03228759765625,-0.119720458984375
1761315598830902000,3.490902099609375,-0.080078125,0.074920654296875,-0.1267852783203125
1761315598840949200,3.50094921875,-0.0540618896484375,0.080841064453125,-0.078033447265625
1761315598850997200,3.510997314453125,-0.02423095703125,0.040557861328125,0.0028228759765625
1761315598861044200,3.521044189453125,0.006072998046875,-0.0404815673828125,0.1009521484375
1761315598871092200,3.53109228515625,0.017364501953125,-0.1183624267578125,0.1768798828125
1761315598881139200,3.54113916015625,0.03009033203125,-0.1834259033203125,0.2082977294921875
1761315598891187200,3.551187255859375,0.029876708984375,-0.239105224609375,0.1866607666015625
1761315598901234200,3.561234130859375,-0.0032196044921875,-0.3424530029296875,0.14788818359375
1761315598911282200,3.5712822265625,-0.079071044921875,-0.4598388671875,0.0831756591796875
1761315598921329200,3.5813291015625,-0.1544952392578125,-0.523101806640625,-0.0068511962890625
1761315598931377200,3.591377197265625,-0.2754974365234375,-0.601409912109375,-0.0369873046875
1761315598941424000,3.601424072265625,-0.4620361328125,-0.729248046875,-0.025390625
1761315598951472400,3.611472412109375,-0.603424072265625,-0.9076080322265625,0.07275390625
1761315598961520000,3.62152001953125,-0.76849365234375,-1.15460205078125,0.195098876953125
1761315598971567000,3.631567138671875,-0.9782867431640625,-1.3268280029296875,0.239410400390625
1761315598981615400,3.641615478515625,-1.13677978515625,-1.2930755615234375,0.1284027099609375
1761315598991662300,3.651662353515625,-1.2802276611328125,-1.241455078125,-0.0345001220703125
1761315599001710000,3.6617099609375,-1.44549560546875,-1.3076934814453125,-0.105682373046875
1761315599011757000,3.671757080078125,-1.6706085205078125,-1.3844451904296875,-0.0976409912109375
1761315599021805300,3.681805419921875,-1.85986328125,-1.4742279052734375,-0.0032958984375
1761315599031852300,3.691852294921875,-1.9465484619140625,-1.61871337890625,0.1853179931640625
1761315599041900000,3.701900146484375,-1.9467315673828125,-1.7039947509765625,0.2908782958984375
1761315599051947000,3.711947021484375,-1.9051666259765625,-1.695648193359375,0.3165740966796875
1761315599061995300,3.721995361328125,-1.84979248046875,-1.6964263916015625,0.2666015625
1761315599072042200,3.732042236328125,-1.71246337890625,-1.594085693359375,0.1345672607421875
1761315599082090200,3.74209033203125,-1.5649871826171875,-1.495941162109375,0.0720977783203125
1761315599092138200,3.75213818359375,-1.4887542724609375,-1.4012603759765625,0.0518035888671875
1761315599102185200,3.762185302734375,-1.449981689453125,-1.349334716796875,0.141571044921875
1761315599112233200,3.772233154296875,-1.4396209716796875,-1.2500152587890625,0.2212066650390625
1761315599122280200,3.7822802734375,-1.386444091796875,-1.07275390625,0.249755859375
1761315599132328200,3.792328125,-1.2804718017578125,-0.9600677490234375,0.2596893310546875
1761315599142375200,3.802375244140625,-1.10784912109375,-0.8518829345703125,0.23114013671875
1761315599152423200,3.812423095703125,-0.92236328125,-0.7538604736328125,0.1916961669921875
1761315599162470100,3.82247021484375,-0.7266693115234375,-0.659454345703125,0.1293182373046875
1761315599172518100,3.83251806640625,-0.5409393310546875,-0.5699615478515625,0.03741455078125
1761315599182565000,3.842565185546875,-0.372344970703125,-0.4909210205078125,-0.0425872802734375
1761315599192613000,3.852613037109375,-0.2499847412109375,-0.4039764404296875,-0.1221466064453125
1761315599202660000,3.86266015625,-0.1787872314453125,-0.30859375,-0.18743896484375
1761315599212708400,3.872708251953125,-0.1661376953125,-0.2119598388671875,-0.2234344482421875
1761315599222755000,3.882755126953125,-0.1738128662109375,-0.1486968994140625,-0.2034759521484375
1761315599232803000,3.892802978515625,-0.22174072265625,-0.115936279296875,-0.1287841796875
1761315599242850300,3.902850341796875,-0.2481689453125,-0.0833892822265625,-0.0491790771484375
1761315599252898300,3.912898193359375,-0.207733154296875,-0.04736328125,0.003570556640625
1761315599262946000,3.922946044921875,-0.15362548828125,-0.0165863037109375,0.0436859130859375
1761315599272993000,3.932992919921875,-0.071044921875,-0.0101165771484375,0.0732879638671875
1761315599283041300,3.943041259765625,0.0258941650390625,-0.0171661376953125,0.0927886962890625
1761315599293088300,3.953088134765625,0.1143035888671875,-0.0223236083984375,0.1074676513671875
1761315599303136000,3.963135986328125,0.1693572998046875,-0.0431060791015625,0.1290130615234375
1761315599313183200,3.973183349609375,0.1727752685546875,-0.0775909423828125,0.1533966064453125
1761315599323231200,3.983231201171875,0.11614990234375,-0.108184814453125,0.1743621826171875
1761315599333278200,3.9932783203125,0.0543365478515625,-0.10968017578125,0.18353271484375
1761315599343326200,4.003326171875,0.032501220703125,-0.0836639404296875,0.211639404296875
1761315599353373200,4.013373291015625,0.0177764892578125,-0.053741455078125,0.2559661865234375
1761315599363421200,4.023421142578125,0.02386474609375,-0.0580596923828125,0.3016357421875
1761315599373468200,4.03346826171875,0.0220794677734375,-0.0661773681640625,0.337310791015625
1761315599383516400,4.043516357421875,-0.0099639892578125,-0.100921630859375,0.3233795166015625
1761315599393563400,4.0535634765625,-0.0831451416015625,-0.1517486572265625,0.2521820068359375
1761315599403611100,4.063611083984375,-0.19122314453125,-0.21173095703125,0.1554718017578125
1761315599413658000,4.073658203125,-0.3041839599609375,-0.3221282958984375,0.0753021240234375
1761315599423706400,4.083706298828125,-0.4065704345703125,-0.442779541015625,0.008514404296875
1761315599433753300,4.09375341796875,-0.5208740234375,-0.48095703125,-0.0950469970703125
1761315599443801000,4.103801025390625,-0.6573028564453125,-0.5097198486328125,-0.2192535400390625
1761315599453849300,4.113849365234375,-0.776763916015625,-0.6936798095703125,-0.2303924560546875
1761315599463896300,4.123896240234375,-0.9340667724609375,-1.157562255859375,-0.0919036865234375
1761315599473944000,4.133944091796875,-1.1050262451171875,-1.5742645263671875,-0.01068115234375
1761315599483991000,4.143990966796875,-1.2419891357421875,-1.57806396484375,-0.0719451904296875
1761315599494039300,4.154039306640625,-1.253631591796875,-1.6514434814453125,-0.057830810546875
1761315599504086300,4.164086181640625,-1.270233154296875,-1.7767333984375,-0.0041656494140625
1761315599514134300,4.17413427734375,-1.312591552734375,-1.591033935546875,-0.032867431640625
1761315599524181200,4.18418115234375,-1.389984130859375,-1.5897979736328125,0.10882568359375
1761315599534229200,4.194229248046875,-1.537139892578125,-1.8902740478515625,0.384521484375
1761315599544276200,4.204276123046875,-1.6642608642578125,-1.954437255859375,0.50140380859375
1761315599554324200,4.21432421875,-1.75115966796875,-1.8927459716796875,0.48101806640625
1761315599564371200,4.22437109375,-1.8048553466796875,-1.7223052978515625,0.30279541015625
1761315599574419200,4.234419189453125,-1.8310699462890625,-1.5057220458984375,0.0141448974609375
1761315599584466200,4.244466064453125,-1.87103271484375,-1.3787384033203125,-0.1834259033203125
1761315599594514200,4.25451416015625,-1.9473114013671875,-1.27862548828125,-0.2711181640625
1761315599604561200,4.26456103515625,-1.97686767578125,-1.1443023681640625,-0.261016845703125
1761315599614609200,4.274609130859375,-1.9085540771484375,-1.0127716064453125,-0.190155029296875
1761315599624656100,4.28465625,-1.73046875,-0.9057769775390625,-0.1227874755859375
1761315599634704100,4.2947041015625,-1.4690704345703125,-0.7912445068359375,-0.090606689453125
1761315599644752400,4.30475244140625,-1.1853790283203125,-0.6676025390625,-0.0709075927734375
1761315599654799000,4.314799072265625,-0.9321136474609375,-0.5579071044921875,-0.0364227294921875
1761315599664847000,4.32484716796875,-0.7552642822265625,-0.44482421875,0.020751953125
1761315599674897200,4.334897216796875,-0.6043548583984375,-0.34490966796875,0.079498291015625
1761315599684945200,4.344945068359375,-0.4492340087890625,-0.2645111083984375,0.1063995361328125
1761315599694992400,4.354992431640625,-0.326324462890625,-0.19329833984375,0.098602294921875
1761315599705040100,4.3650400390625,-0.19366455078125,-0.131072998046875,0.077056884765625
1761315599715087000,4.375087158203125,-0.066497802734375,-0.0894927978515625,0.04449462890625
1761315599725135000,4.385135009765625,0.0096893310546875,-0.0642852783203125,0.002960205078125
1761315599735182300,4.395182373046875,0.059661865234375,-0.04345703125,-0.0283355712890625
1761315599745230000,4.40522998046875,0.08935546875,-0.0431671142578125,-0.04388427734375
1761315599755277000,4.415277099609375,0.0983734130859375,-0.0565948486328125,-0.03778076171875
1761315599765325300,4.4253251953125,0.08477783203125,-0.0613861083984375,-0.01910400390625
1761315599775372300,4.435372314453125,0.03857421875,-0.0595855712890625,-0.0136260986328125
1761315599785420300,4.445420166015625,-0.027099609375,-0.0494842529296875,-0.0171356201171875
1761315599795467300,4.45546728515625,-0.0555572509765625,-0.058197021484375,-0.030487060546875
1761315599805515300,4.465515380859375,-0.0665435791015625,-0.06561279296875,-0.0558013916015625
1761315599815562200,4.475562255859375,-0.058349609375,-0.0623626708984375,-0.0839080810546875
1761315599825610200,4.4856103515625,-0.0333251953125,-0.055755615234375,-0.11346435546875
1761315599835657200,4.4956572265625,0.022308349609375,-0.0525360107421875,-0.134063720703125
1761315599845705200,4.505705322265625,0.057708740234375,-0.074859619140625,-0.1534271240234375
1761315599855753200,4.515753173828125,0.0750579833984375,-0.1143798828125,-0.1522369384765625
1761315599865800200,4.52580029296875,0.0692596435546875,-0.1707611083984375,-0.122711181640625
1761315599875848200,4.53584814453125,0.0135040283203125,-0.3041839599609375,-0.0255584716796875
1761315599885895200,4.545895263671875,-0.0532379150390625,-0.3570098876953125,-0.0255889892578125
1761315599895943200,4.555943115234375,-0.1102142333984375,-0.3663177490234375,-0.04510498046875
1761315599905990100,4.565990234375,-0.1641845703125,-0.4411468505859375,-0.036865234375
1761315599916038400,4.576038330078125,-0.215850830078125,-0.5251007080078125,-0.056854248046875
1761315599926085000,4.586085205078125,-0.2802734375,-0.5800018310546875,-0.0734710693359375
1761315599936133000,4.596133056640625,-0.3784332275390625,-0.669525146484375,-0.0894317626953125
1761315599946180000,4.60618017578125,-0.526885986328125,-0.8123321533203125,-0.0663909912109375
1761315599956228400,4.616228271484375,-0.740509033203125,-1.06787109375,0.0714111328125
1761315599966275300,4.626275390625,-1.00164794921875,-1.499542236328125,0.23626708984375
1761315599976323000,4.636322998046875,-1.2818756103515625,-1.437530517578125,0.07147216796875
1761315599986370000,4.6463701171875,-1.3473052978515625,-1.093994140625,-0.0848541259765625
1761315599996418300,4.656418212890625,-1.491058349609375,-1.0247802734375,-0.1273956298828125
1761315600006465300,4.66646533203125,-1.8288116455078125,-0.9618988037109375,-0.143463134765625
1761315600016513000,4.676512939453125,-1.9594268798828125,-0.9851226806640625,-0.0560760498046875
1761315600026560300,4.686560302734375,-2.033538818359375,-1.232025146484375,0.19000244140625
1761315600036608300,4.696608154296875,-2.1486053466796875,-1.4420318603515625,0.384521484375
1761315600046655200,4.7066552734375,-2.078399658203125,-1.3920135498046875,0.4270477294921875
1761315600056703000,4.716702880859375,-1.831298828125,-1.286712646484375,0.350982666015625
1761315600066750200,4.726750244140625,-1.6428070068359375,-1.2459716796875,0.228759765625
1761315600076798200,4.736798095703125,-1.5691070556640625,-1.2210235595703125,0.1342315673828125
1761315600086845200,4.74684521484375,-1.5435333251953125,-1.1995391845703125,0.0216522216796875
1761315600096893200,4.75689306640625,-1.5999908447265625,-1.112060546875,-0.112152099609375
1761315600106941200,4.766941162109375,-1.6143798828125,-0.9697418212890625,-0.1981201171875
1761315600116988200,4.77698828125,-1.552490234375,-0.7919158935546875,-0.2490692138671875
1761315600127036200,4.7870361328125,-1.465606689453125,-0.6486358642578125,-0.2606048583984375
1761315600137083400,4.79708349609375,-1.3797149658203125,-0.5799407958984375,-0.225738525390625
1761315600147131100,4.807131103515625,-1.3001251220703125,-0.534637451171875,-0.1450653076171875
1761315600157175300,4.81717529296875,-1.1758270263671875,-0.4954071044921875,-0.0506744384765625
1761315600167223300,4.827223388671875,-1.0076141357421875,-0.445526123046875,0.0157928466796875
1761315600177270300,4.837270263671875,-0.780731201171875,-0.3875732421875,0.0257110595703125
1761315600187318000,4.847318115234375,-0.5233306884765625,-0.324432373046875,0.006317138671875
1761315600197365200,4.857365234375,-0.3108978271484375,-0.2633056640625,-0.027557373046875
1761315600207413200,4.867413330078125,-0.1483306884765625,-0.19512939453125,-0.0615081787109375
1761315600217460200,4.877460205078125,-0.057037353515625,-0.117584228515625,-0.108001708984375
1761315600227508200,4.88750830078125,-0.025634765625,-0.05828857421875,-0.1383209228515625
1761315600237555200,4.89755517578125,-0.037567138671875,-0.0297698974609375,-0.13482666015625
1761315600247603200,4.907603271484375,-0.0864715576171875,-0.0352630615234375,-0.0912933349609375
1761315600257651200,4.917651123046875,-0.1228790283203125,-0.0550079345703125,-0.0316619873046875
1761315600267698200,4.9276982421875,-0.163482666015625,-0.0616455078125,0.0156707763671875
1761315600277746200,4.93774609375,-0.2112884521484375,-0.055206298828125,0.0442657470703125
1761315600287793200,4.947793212890625,-0.2163848876953125,-0.0237579345703125,0.0486297607421875
1761315600297841400,4.95784130859375,-0.2021942138671875,0.0174560546875,0.042755126953125
1761315600307888400,4.967888427734375,-0.19793701171875,0.0318756103515625,0.043853759765625
1761315600317936000,4.97793603515625,-0.229888916015625,0.018341064453125,0.0434417724609375
1761315600327983000,4.987983154296875,-0.25506591796875,0.021270751953125,0.0464324951171875
1761315600338031400,4.99803125,-0.2374420166015625,0.0148468017578125,0.0467071533203125
1761315600348078300,5.008078369140625,-0.19451904296875,-0.035797119140625,0.049346923828125
1761315600358126000,5.0181259765625,-0.1744842529296875,-0.12420654296875,0.0547637939453125
1761315600368173000,5.028173095703125,-0.187835693359375,-0.2186737060546875,0.063232421875
1761315600378221300,5.03822119140625,-0.215484619140625,-0.3001708984375,0.0474700927734375
1761315600388268300,5.048268310546875,-0.2283782958984375,-0.3549346923828125,0.0727386474609375
1761315600398316000,5.05831591796875,-0.220245361328125,-0.4095611572265625,0.158233642578125
1761315600408363000,5.068363037109375,-0.2291107177734375,-0.4943389892578125,0.2383270263671875
1761315600418411300,5.078411376953125,-0.2397613525390625,-0.6294097900390625,0.26416015625
1761315600428458200,5.088458251953125,-0.2485809326171875,-0.82513427734375,0.2509918212890625
1761315600438506200,5.09850634765625,-0.2905426025390625,-1.1710205078125,0.3310546875
1761315600448553000,5.108552978515625,-0.5273895263671875,-1.4704437255859375,0.4022064208984375
1761315600458601200,5.118601318359375,-0.7770843505859375,-1.4617767333984375,0.277984619140625
1761315600468648200,5.128648193359375,-0.933258056640625,-1.311737060546875,0.0969696044921875
1761315600478696200,5.1386962890625,-1.1222686767578125,-1.1393585205078125,0.0352783203125
1761315600488743400,5.148743408203125,-1.3607635498046875,-1.018463134765625,0.0567169189453125
1761315600498791200,5.158791259765625,-1.621856689453125,-0.99554443359375,0.104461669921875
1761315600508838100,5.168838134765625,-1.8269805908203125,-0.9940948486328125,0.149444580078125
1761315600518886100,5.17888623046875,-1.9442138671875,-1.13775634765625,0.2682647705078125
1761315600528933400,5.188933349609375,-2.0682220458984375,-1.387359619140625,0.367584228515625
1761315600538981000,5.198981201171875,-2.0858612060546875,-1.3075408935546875,0.19342041015625
1761315600549029000,5.209029052734375,-1.969451904296875,-1.2035675048828125,-0.0458221435546875
1761315600559076400,5.219076416015625,-1.95855712890625,-1.3013458251953125,-0.172088623046875
1761315600569124000,5.2291240234375,-1.9700775146484375,-1.326568603515625,-0.2557525634765625
1761315600579171000,5.239171142578125,-1.963775634765625,-1.222442626953125,-0.3240966796875
1761315600589219000,5.249218994140625,-1.921234130859375,-1.0611419677734375,-0.291961669921875
1761315600599266300,5.259266357421875,-1.79443359375,-0.8975677490234375,-0.1872711181640625
1761315600609314300,5.269314208984375,-1.6127471923828125,-0.7490386962890625,-0.0767059326171875
1761315600619361300,5.279361328125,-1.4069061279296875,-0.621490478515625,0.014373779296875
1761315600629409300,5.2894091796875,-1.2095794677734375,-0.528656005859375,0.0693817138671875
1761315600639456300,5.299456298828125,-1.0145721435546875,-0.4585723876953125,0.0984344482421875
1761315600649504300,5.309504150390625,-0.8466033935546875,-0.39971923828125,0.0970306396484375
1761315600659551200,5.31955126953125,-0.7141876220703125,-0.355499267578125,0.066314697265625
1761315600669599200,5.32959912109375,-0.594879150390625,-0.32012939453125,0.035400390625
1761315600679641900,5.339641845703125,-0.4875030517578125,-0.2852783203125,0.00653076171875
1761315600689690000,5.349690185546875,-0.3794097900390625,-0.2370452880859375,-0.0180206298828125
1761315600699737000,5.359737060546875,-0.2861328125,-0.1804046630859375,-0.047332763671875
1761315600709785000,5.36978515625,-0.2028350830078125,-0.1334686279296875,-0.0535430908203125
1761315600719832000,5.37983203125,-0.161895751953125,-0.1031951904296875,-0.0651702880859375
1761315600729880000,5.389880126953125,-0.14923095703125,-0.0779571533203125,-0.0641937255859375
1761315600739927000,5.399927001953125,-0.1259613037109375,-0.0595703125,-0.0426177978515625
1761315600749975000,5.40997509765625,-0.123992919921875,-0.0609588623046875,-0.0354766845703125
1761315600760022000,5.42002197265625,-0.1448211669921875,-0.0525360107421875,-0.002166748046875
1761315600770070000,5.430070068359375,-0.1664276123046875,-0.053253173828125,0.0465545654296875
1761315600780117000,5.440116943359375,-0.1786956787109375,-0.11895751953125,0.080780029296875
1761315600790165000,5.4501650390625,-0.1200103759765625,-0.2470245361328125,0.0407257080078125
1761315600800212000,5.4602119140625,0.0028839111328125,-0.331573486328125,-0.08123779296875
1761315600810260000,5.470260009765625,0.1435699462890625,-0.3176727294921875,-0.18939208984375
1761315600820307000,5.480306884765625,0.0330352783203125,-0.390869140625,-0.14410400390625
1761315600830355000,5.49035498046875,-0.219024658203125,-0.450164794921875,-0.0945892333984375
1761315600840402000,5.50040185546875,-0.060638427734375,-0.34722900390625,-0.2065582275390625
1761315600850450000,5.510449951171875,-0.105194091796875,-0.1599578857421875,-0.2002105712890625
1761315600860497000,5.520496826171875,-0.306427001953125,-0.0023345947265625,-0.1441192626953125
1761315600870545000,5.530544921875,-0.35296630859375,0.0804443359375,-0.1126251220703125
1761315600880593200,5.54059326171875,-0.211517333984375,0.0417938232421875,0.0660858154296875
1761315600890640100,5.55064013671875,-0.2505035400390625,-0.274627685546875,0.2358856201171875
1761315600900688000,5.56068798828125,-0.52728271484375,-0.5440216064453125,0.2534942626953125
1761315600910734800,5.57073486328125,-0.52154541015625,-0.722869873046875,0.1982269287109375
1761315600920783000,5.580783203125,-0.342132568359375,-0.9866943359375,0.1175689697265625
1761315600930830000,5.590830078125,-0.3955535888671875,-1.120025634765625,-0.0579986572265625
1761315600940877800,5.6008779296875,-0.605987548828125,-0.999053955078125,-0.28338623046875
1761315600950925000,5.610925048828125,-0.72772216796875,-0.8765106201171875,-0.326324462890625
1761315600960973000,5.62097314453125,-1.0099639892578125,-0.816070556640625,-0.1658172607421875
1761315600971020000,5.63102001953125,-1.46563720703125,-0.804595947265625,0.0419158935546875
1761315600981067800,5.64106787109375,-1.835235595703125,-0.81463623046875,0.163116455078125
1761315600991115000,5.651114990234375,-2.0908050537109375,-0.884490966796875,0.2722320556640625
1761315601001163000,5.6611630859375,-2.2293548583984375,-1.1046142578125,0.4200897216796875
1761315601011210000,5.6712099609375,-2.360107421875,-1.2348175048828125,0.4574432373046875
1761315601021258000,5.681258056640625,-2.3133697509765625,-1.1357574462890625,0.414703369140625
1761315601031305000,5.691304931640625,-2.236907958984375,-1.0017547607421875,0.2663726806640625
1761315601041353000,5.70135302734375,-2.199920654296875,-0.8842620849609375,0.067535400390625
1761315601051400000,5.71139990234375,-2.1410980224609375,-0.7856292724609375,-0.0914154052734375
1761315601061448200,5.7214482421875,-2.1094818115234375,-0.7028656005859375,-0.1925048828125
1761315601071495200,5.7314951171875,-2.1437530517578125,-0.572601318359375,-0.2307586669921875
1761315601081543000,5.74154296875,-2.1652374267578125,-0.49462890625,-0.1940155029296875
1761315601091590000,5.75158984375,-2.022857666015625,-0.4191436767578125,-0.0644073486328125
1761315601101638100,5.76163818359375,-1.785125732421875,-0.3523406982421875,0.056396484375
1761315601111685000,5.77168505859375,-1.48724365234375,-0.3643035888671875,0.0516510009765625
1761315601121732900,5.78173291015625,-1.1444549560546875,-0.365142822265625,0.0396575927734375
1761315601131779800,5.79177978515625,-0.8577423095703125,-0.3729095458984375,0.0132293701171875
1761315601141828000,5.801828125,-0.5969085693359375,-0.442230224609375,0.1020660400390625
1761315601151875000,5.811875,-0.4115142822265625,-0.35113525390625,0.070648193359375
1761315601161922800,5.8219228515625,-0.2516937255859375,-0.297760009765625,0.020660400390625
1761315601171969800,5.8319697265625,-0.1915740966796875,-0.2520294189453125,-0.040557861328125
1761315601182018000,5.84201806640625,-0.3685150146484375,-0.206298828125,-0.049530029296875
1761315601192065000,5.85206494140625,-0.3531646728515625,-0.1285858154296875,0.0181427001953125
1761315601202113000,5.862113037109375,-0.1534271240234375,-0.04351806640625,0.136505126953125
1761315601212160000,5.872159912109375,-0.0948028564453125,-0.0139923095703125,0.1753997802734375
1761315601222208000,5.8822080078125,-0.107940673828125,-0.0067291259765625,0.10137939453125
1761315601232255000,5.8922548828125,-0.073577880859375,-0.022186279296875,0.0692596435546875
1761315601242303000,5.902302978515625,-0.05047607421875,-0.0493316650390625,0.10009765625
1761315601252350200,5.91235009765625,-0.06036376953125,-0.0764617919921875,0.16119384765625
1761315601262398000,5.92239794921875,-0.077484130859375,-0.1112213134765625,0.1607513427734375
1761315601272445000,5.93244482421875,-0.071380615234375,-0.1300048828125,0.11907958984375
1761315601282493000,5.942492919921875,-0.0821990966796875,-0.1365203857421875,0.0845947265625
1761315601292541000,5.952541015625,-0.1843414306640625,-0.1369171142578125,0.07916259765625
1761315601302588000,5.962587890625,-0.2696685791015625,-0.1543426513671875,0.1006011962890625
1761315601312636000,5.972635986328125,-0.2721099853515625,-0.1565399169921875,0.1069793701171875
1761315601322683100,5.98268310546875,-0.2264862060546875,-0.128631591796875,0.0792999267578125
1761315601332731100,5.992731201171875,-0.183258056640625,-0.1085968017578125,0.0548858642578125
1761315601342777900,6.00277783203125,-0.121002197265625,-0.1121673583984375,0.0592041015625
1761315601352825900,6.012825927734375,-0.0941925048828125,-0.16033935546875,0.0637054443359375
1761315601362873000,6.022873046875,-0.0936737060546875,-0.2266845703125,0.1116943359375
1761315601372921000,6.032921142578125,-0.2191009521484375,-0.1861419677734375,0.1051788330078125
1761315601382968000,6.042968017578125,-0.3378448486328125,-0.2144775390625,0.0651397705078125
1761315601393016000,6.05301611328125,-0.383026123046875,-0.3330841064453125,0.110198974609375
1761315601403063000,6.06306298828125,-0.41241455078125,-0.4532623291015625,0.1805572509765625
1761315601413111000,6.073111083984375,-0.43560791015625,-0.5850372314453125,0.249847412109375
1761315601423158000,6.083157958984375,-0.5049896240234375,-0.8025054931640625,0.3807830810546875
1761315601433206000,6.0932060546875,-0.728485107421875,-1.1547393798828125,0.5142974853515625
1761315601443253000,6.1032529296875,-1.008819580078125,-1.4728546142578125,0.568389892578125
1761315601453301000,6.113301025390625,-0.9698333740234375,-1.2895965576171875,0.3766632080078125
1761315601463348000,6.123347900390625,-0.996734619140625,-0.8894500732421875,0.218780517578125
1761315601473396000,6.13339599609375,-1.13360595703125,-0.6768035888671875,0.131500244140625
1761315601483443000,6.14344287109375,-1.269927978515625,-0.5657196044921875,0.0681610107421875
1761315601493491000,6.153490966796875,-1.404571533203125,-0.6014556884765625,0.1221160888671875
1761315601503538000,6.163537841796875,-1.5778045654296875,-0.7802276611328125,0.2412261962890625
1761315601513586000,6.1735859375,-1.7698822021484375,-0.9744720458984375,0.34222412109375
1761315601523633000,6.1836328125,-1.966217041015625,-1.1091461181640625,0.4109344482421875
1761315601533681000,6.193680908203125,-2.11492919921875,-1.113433837890625,0.399932861328125
1761315601543728000,6.20372802734375,-2.1921234130859375,-0.96600341796875,0.282257080078125
1761315601553776000,6.213776123046875,-2.35528564453125,-0.807373046875,0.1335296630859375
1761315601563823000,6.223822998046875,-2.4937286376953125,-0.6534576416015625,0.0253448486328125
1761315601573870800,6.233870849609375,-2.4581298828125,-0.5259246826171875,-0.010986328125
1761315601583918000,6.24391796875,-2.26727294921875,-0.4623565673828125,-0.0144805908203125
1761315601593966000,6.253966064453125,-1.8889923095703125,-0.4735260009765625,-0.0081024169921875
1761315601604013000,6.264012939453125,-1.6973419189453125,-0.43316650390625,0.002044677734375
1761315601614060800,6.274060791015625,-1.400238037109375,-0.47796630859375,0.024139404296875
1761315601624108000,6.28410791015625,-1.0658416748046875,-0.51702880859375,0.029205322265625
1761315601634156000,6.294156005859375,-0.7613067626953125,-0.4803314208984375,0.060760498046875
1761315601644203000,6.304203125,-0.506011962890625,-0.4296722412109375,0.083526611328125
1761315601654251000,6.3142509765625,-0.4061737060546875,-0.33282470703125,0.0195770263671875
1761315601664298000,6.324298095703125,-0.430694580078125,-0.2510833740234375,-0.03900146484375
1761315601674347300,6.33434716796875,-0.36444091796875,-0.319580078125,-0.0145721435546875
1761315601684394200,6.344394287109375,-0.1846466064453125,-0.3032989501953125,0.0036163330078125
1761315601694442000,6.35444189453125,-0.0578460693359375,-0.2370758056640625,-0.0369720458984375
1761315601704489000,6.364489013671875,-0.0214385986328125,-0.1575775146484375,-0.1222381591796875
1761315601714537200,6.374537109375,-0.2603759765625,-0.0979461669921875,-0.1619110107421875
1761315601724584200,6.384584228515625,-0.602783203125,-0.0135498046875,-0.0944671630859375
1761315601734632000,6.3946318359375,-0.6113433837890625,0.1677703857421875,-0.122039794921875
1761315601744679000,6.404678955078125,-0.59686279296875,0.207733154296875,-0.02301025390625
1761315601754727200,6.41472705078125,-0.4999237060546875,0.1378631591796875,0.1149749755859375
1761315601764775000,6.42477490234375,-0.49267578125,0.0192718505859375,0.1645660400390625
1761315601774822000,6.43482177734375,-0.538848876953125,-0.05548095703125,0.1660614013671875
1761315601784870100,6.4448701171875,-0.5479278564453125,-0.0554046630859375,0.170562744140625
1761315601794917000,6.454917236328125,-0.511322021484375,0.0058746337890625,0.173095703125
1761315601804965000,6.464965087890625,-0.4488983154296875,0.0528717041015625,0.1684722900390625
1761315601815012000,6.47501220703125,-0.41046142578125,0.0462493896484375,0.1651763916015625
1761315601825060000,6.48506005859375,-0.4398956298828125,0.0108795166015625,0.1644134521484375
1761315601835107000,6.495107177734375,-0.5124664306640625,-0.0150299072265625,0.1614837646484375
1761315601845155000,6.505155029296875,-0.5648345947265625,-0.0173797607421875,0.1379852294921875
1761315601855202000,6.5152021484375,-0.5634765625,-0.0018463134765625,0.09576416015625
1761315601865250000,6.52525,-0.513824462890625,-0.006561279296875,0.043701171875
1761315601875297000,6.535297119140625,-0.4611968994140625,-0.054473876953125,0.0406036376953125
1761315601885345000,6.545344970703125,-0.4193572998046875,-0.1446990966796875,0.054290771484375
1761315601895392300,6.555392333984375,-0.424285888671875,-0.249908447265625,0.0890350341796875
1761315601905440000,6.56543994140625,-0.45245361328125,-0.3043670654296875,0.1282501220703125
1761315601915487000,6.575487060546875,-0.5095977783203125,-0.3437042236328125,0.13201904296875
1761315601925535000,6.585534912109375,-0.5466156005859375,-0.4443206787109375,0.159149169921875
1761315601935582200,6.595582275390625,-0.5244293212890625,-0.762451171875,0.2945404052734375
1761315601945630000,6.6056298828125,-0.712371826171875,-0.9860076904296875,0.25213623046875
1761315601955677000,6.615677001953125,-0.9788818359375,-1.01483154296875,0.1612396240234375
1761315601965725200,6.62572509765625,-0.96197509765625,-0.9573822021484375,0.083282470703125
1761315601975772200,6.635772216796875,-0.9849853515625,-0.81622314453125,0.0310821533203125
1761315601985820200,6.645820068359375,-1.130828857421875,-0.7823028564453125,0.003997802734375
1761315601995867100,6.6558671875,-1.2406005859375,-0.82257080078125,0.0059356689453125
1761315602005915100,6.6659150390625,-1.35015869140625,-0.9007415771484375,0.0858001708984375
1761315602015962000,6.675962158203125,-1.4891204833984375,-0.9431304931640625,0.161651611328125
1761315602026010000,6.686010009765625,-1.5951385498046875,-0.9257049560546875,0.1986236572265625
1761315602036057000,6.69605712890625,-1.639617919921875,-0.908233642578125,0.228851318359375
1761315602046105000,6.70610498046875,-1.620635986328125,-0.8991851806640625,0.2294921875
1761315602056152000,6.716152099609375,-1.6299896240234375,-0.888885498046875,0.223297119140625
1761315602066200000,6.726199951171875,-1.699676513671875,-0.8563385009765625,0.214813232421875
1761315602076247000,6.7362470703125,-1.7618408203125,-0.8250732421875,0.1934814453125
1761315602086295000,6.746294921875,-1.7584075927734375,-0.752349853515625,0.1627960205078125
1761315602096342000,6.756342041015625,-1.7449188232421875,-0.62451171875,0.1239471435546875
1761315602106390000,6.76639013671875,-1.6385955810546875,-0.529571533203125,0.0952606201171875
1761315602116437000,6.77643701171875,-1.4775543212890625,-0.47540283203125,0.0890045166015625
1761315602126485000,6.786485107421875,-1.3406524658203125,-0.45843505859375,0.094940185546875
1761315602136532000,6.796531982421875,-1.1866912841796875,-0.4788055419921875,0.1135711669921875
1761315602146580000,6.806580078125,-1.061004638671875,-0.4855499267578125,0.1298065185546875
1761315602156627200,6.816627197265625,-0.97113037109375,-0.464019775390625,0.1292572021484375
1761315602166675200,6.82667529296875,-0.8995361328125,-0.4283599853515625,0.1112823486328125
1761315602176722200,6.83672216796875,-0.867584228515625,-0.3510894775390625,0.0883636474609375
1761315602186770000,6.84677001953125,-0.8199615478515625,-0.2624359130859375,0.0507049560546875
1761315602196817200,6.856817138671875,-0.7655181884765625,-0.1881256103515625,0.0239715576171875
1761315602206865200,6.866865234375,-0.721282958984375,-0.1386260986328125,0.024383544921875
1761315602216912100,6.876912109375,-0.656829833984375,-0.1031036376953125,0.03594970703125
1761315602226960100,6.886960205078125,-0.6119537353515625,-0.07647705078125,0.05572509765625
1761315602237007000,6.897007080078125,-0.6009368896484375,-0.0587921142578125,0.0834197998046875
1761315602247055000,6.90705517578125,-0.56781005859375,-0.050262451171875,0.10498046875
1761315602257102000,6.91710205078125,-0.507537841796875,-0.0754547119140625,0.11358642578125
1761315602267150000,6.927150146484375,-0.441802978515625,-0.1019134521484375,0.0955352783203125
1761315602277197000,6.937197021484375,-0.3715667724609375,-0.09588623046875,0.0807952880859375
1761315602287245000,6.9472451171875,-0.3233184814453125,-0.1125640869140625,0.058319091796875
1761315602297292000,6.9572919921875,-0.2978668212890625,-0.166748046875,0.033416748046875
1761315602307340000,6.967340087890625,-0.28125,-0.1827239990234375,0.03448486328125
1761315602317387000,6.977386962890625,-0.2601318359375,-0.1570892333984375,0.0379638671875
1761315602327435000,6.98743505859375,-0.24359130859375,-0.114715576171875,0.03802490234375
1761315602337482000,6.99748193359375,-0.2545318603515625,-0.1509552001953125,0.1046905517578125
1761315602347530200,7.0075302734375,-0.2754364013671875,-0.2032623291015625,0.158782958984375
1761315602357577000,7.017576904296875,-0.31610107421875,-0.2513275146484375,0.2015533447265625
1761315602367625000,7.027625,-0.338531494140625,-0.28411865234375,0.23480224609375
1761315602377672200,7.037672119140625,-0.3728179931640625,-0.314239501953125,0.259918212890625
1761315602387720200,7.04772021484375,-0.4399261474609375,-0.3486175537109375,0.2775726318359375
1761315602397768000,7.057767822265625,-0.532501220703125,-0.361083984375,0.263427734375
1761315602407815000,7.06781494140625,-0.64984130859375,-0.32781982421875,0.21649169921875
1761315602417863200,7.07786328125,-0.762481689453125,-0.3228302001953125,0.18280029296875
1761315602427910100,7.08791015625,-0.7957763671875,-0.487884521484375,0.251556396484375
1761315602437957000,7.09795703125,-0.8062591552734375,-0.745941162109375,0.37518310546875
1761315602448004900,7.1080048828125,-0.9791412353515625,-0.7511749267578125,0.3342437744140625
1761315602458052000,7.118052001953125,-1.1128082275390625,-0.5335540771484375,0.223175048828125
1761315602468100000,7.12810009765625,-1.034912109375,-0.5020751953125,0.2198028564453125
1761315602478148000,7.138148193359375,-1.0463104248046875,-0.6235198974609375,0.2727508544921875
1761315602488195000,7.148195068359375,-1.1700897216796875,-0.6325836181640625,0.275238037109375
1761315602498243000,7.1582431640625,-1.2041473388671875,-0.6088409423828125,0.279296875
1761315602508290000,7.1682900390625,-1.1893768310546875,-0.62042236328125,0.2589874267578125
1761315602518338000,7.178338134765625,-1.2221527099609375,-0.581817626953125,0.2103118896484375
1761315602528385300,7.18838525390625,-1.3011016845703125,-0.5108184814453125,0.1856842041015625
1761315602538433000,7.19843310546875,-1.364105224609375,-0.44586181640625,0.14276123046875
1761315602548480000,7.20847998046875,-1.4188232421875,-0.4252166748046875,0.1221771240234375
1761315602558528300,7.2185283203125,-1.4485321044921875,-0.4341583251953125,0.106964111328125
1761315602568575200,7.2285751953125,-1.4570770263671875,-0.4091339111328125,0.0803985595703125
1761315602578623000,7.238623046875,-1.4043731689453125,-0.3588409423828125,0.0471038818359375
1761315602588670000,7.248669921875,-1.300079345703125,-0.3212890625,0.015625
1761315602598718200,7.25871826171875,-1.1949920654296875,-0.2909088134765625,0.0056915283203125
1761315602608765200,7.26876513671875,-1.1533050537109375,-0.2586822509765625,0.0334625244140625
1761315602618813000,7.27881298828125,-1.131866455078125,-0.223358154296875,0.07073974609375
1761315602628860000,7.28885986328125,-1.0641632080078125,-0.1729583740234375,0.0930328369140625
1761315602638908200,7.298908203125,-0.9741973876953125,-0.1326751708984375,0.1030731201171875
1761315602648955100,7.308955078125,-0.9013671875,-0.1302642822265625,0.1235809326171875
1761315602659003100,7.319003173828125,-0.842010498046875,-0.157623291015625,0.151214599609375
1761315602669049900,7.3290498046875,-0.775909423828125,-0.1861724853515625,0.1763458251953125
1761315602679097900,7.339097900390625,-0.8172760009765625,-0.1963958740234375,0.2183685302734375
1761315602689144800,7.349144775390625,-0.9120025634765625,-0.2227020263671875,0.2122650146484375
1761315602699192800,7.35919287109375,-0.8625946044921875,-0.2259521484375,0.17034912109375
1761315602709239800,7.36923974609375,-0.8394775390625,-0.20965576171875,0.119384765625
1761315602719287800,7.379287841796875,-0.853790283203125,-0.20648193359375,0.0658111572265625
1761315602729334800,7.389334716796875,-0.872650146484375,-0.2277679443359375,0.0369720458984375
1761315602739382800,7.3993828125,-0.8982086181640625,-0.2350006103515625,0.033111572265625
1761315602749430000,7.409429931640625,-0.9525299072265625,-0.21209716796875,0.0725860595703125
1761315602759477800,7.419477783203125,-1.0567169189453125,-0.21466064453125,0.099029541015625
