time,seconds_elapsed,z,y,x
1761315595404689200,0.064689208984375,-0.20809221267700195,-0.1531759649515152,0.27285176515579224
1761315595414737000,0.07473681640625,-0.20709006488323212,-0.11202240735292435,0.19926756620407104
1761315595424784100,0.0847841796875,-0.21857894957065582,-0.07692034542560577,0.08833279460668564
1761315595434832100,0.09483203125,-0.22853223979473114,-0.022951388731598854,-0.016273511573672295
1761315595444879000,0.104879150390625,-0.22552314400672913,0.04140869155526161,-0.09390439093112946
1761315595454926800,0.1149267578125,-0.21969693899154663,0.10208509117364883,-0.1363605111837387
1761315595464975000,0.12497509765625,-0.21607477962970734,0.15272749960422516,-0.160417377948761
1761315595475022000,0.13502197265625,-0.20284472405910492,0.19067327678203583,-0.17302930355072021
1761315595485070000,0.145070068359375,-0.1898767203092575,0.22734607756137848,-0.17117814719676971
1761315595495117300,0.155117431640625,-0.17163167893886566,0.2716112732887268,-0.16510745882987976
1761315595505165000,0.1651650390625,-0.16453541815280914,0.3215000033378601,-0.15240098536014557
1761315595515212000,0.1752119140625,-0.1445646435022354,0.3828057050704956,-0.12736114859580994
1761315595525260000,0.185260009765625,-0.13240571320056915,0.4741057753562927,-0.09066358953714371
1761315595535307300,0.195307373046875,-0.11633699387311935,0.5611054301261902,-0.04986795783042908
1761315595545355000,0.20535498046875,-0.10035563260316849,0.6232007145881653,-0.0038986015133559704
1761315595555403000,0.215403076171875,-0.0860118493437767,0.6517868041992188,0.037083983421325684
1761315595565450200,0.2254501953125,-0.06661631166934967,0.6498997211456299,0.06902327388525009
1761315595575498000,0.235498046875,-0.04073704406619072,0.6219937801361084,0.10899572819471359
1761315595585545000,0.245544921875,-0.02100435085594654,0.5771206021308899,0.15244120359420776
1761315595595593000,0.255593017578125,-0.0033483924344182014,0.5347715020179749,0.19321899116039276
1761315595605640200,0.26564013671875,0.025122929364442825,0.4578826129436493,0.19695647060871124
1761315595615688200,0.275688232421875,0.04008004069328308,0.3373396694660187,0.163070410490036
1761315595625735200,0.285735107421875,0.036431510001420975,0.1983538269996643,0.11131080985069275
1761315595635783200,0.295783203125,-0.009467004798352718,0.0858302190899849,0.059785835444927216
1761315595645831200,0.3058310546875,-0.08277130872011185,0.004024036228656769,0.02732083760201931
1761315595655878100,0.315878173828125,-0.15044942498207092,-0.038543663918972015,0.011063836514949799
1761315595665925400,0.32592529296875,-0.20678113400936127,-0.05059686303138733,0.028960011899471283
1761315595675972000,0.33597216796875,-0.24845188856124878,-0.07006031274795532,0.07355331629514694
1761315595686020400,0.346020263671875,-0.2806449830532074,-0.08884305506944656,0.15047632157802582
1761315595696067300,0.3560673828125,-0.31600242853164673,-0.1662566214799881,0.25480353832244873
1761315595706115300,0.366115234375,-0.3535250425338745,-0.308842271566391,0.3591243326663971
1761315595716162600,0.37616259765625,-0.40483084321022034,-0.44254013895988464,0.46117427945137024
1761315595726210300,0.386210205078125,-0.4762810468673706,-0.5849130153656006,0.5739628672599792
1761315595736257300,0.39625732421875,-0.5601232051849365,-0.7088202834129333,0.6648570895195007
1761315595746305300,0.40630517578125,-0.6095885038375854,-0.8098896741867065,0.6979383230209351
1761315595756353300,0.416353271484375,-0.6018307209014893,-0.8241136074066162,0.6165153980255127
1761315595766400300,0.426400146484375,-0.6997770071029663,-0.5164340734481812,0.4788840413093567
1761315595776448300,0.4364482421875,-0.6726937294006348,-0.19954027235507965,0.48219966888427734
1761315595786495200,0.4464951171875,-0.6350196003913879,-0.1729171872138977,0.5986471772193909
1761315595796543200,0.456543212890625,-0.6759992241859436,-0.37252962589263916,0.7387864589691162
1761315595806590200,0.466590087890625,-0.6937896609306335,-0.4766661524772644,0.9051096439361572
1761315595816638200,0.47663818359375,-0.6256087422370911,-0.3943158984184265,1.0954567193984985
1761315595826685400,0.486685546875,-0.5648815035820007,-0.21869532763957977,1.2091305255889893
1761315595836733400,0.4967333984375,-0.5197904706001282,-0.11540116369724274,1.2796696424484253
1761315595846781200,0.50678125,-0.4588133692741394,-0.09695104509592056,1.3121711015701294
1761315595856828200,0.516828125,-0.39113739132881165,-0.1678483933210373,1.4216989278793335
1761315595866876400,0.52687646484375,-0.3406183123588562,-0.20429374277591705,1.5932313203811646
1761315595876923400,0.53692333984375,-0.2885436415672302,-0.2103542983531952,1.6362727880477905
1761315595886971100,0.54697119140625,-0.24788197875022888,-0.18445506691932678,1.562718152999878
1761315595897018400,0.557018310546875,-0.27897384762763977,-0.1260996162891388,1.3648402690887451
1761315595907066400,0.56706640625,-0.3098689019680023,-0.12304283678531647,1.0174438953399658
1761315595917113300,0.57711328125,-0.3166482448577881,-0.13211356103420258,0.66326504945755
1761315595927161300,0.587161376953125,-0.312319278717041,-0.1457470804452896,0.4002549946308136
1761315595937208300,0.597208251953125,-0.36535000801086426,-0.2190849483013153,0.23776622116565704
1761315595947256300,0.60725634765625,-0.42537179589271545,-0.33757349848747253,0.18375758826732635
1761315595957304300,0.61730419921875,-0.4596339166164398,-0.4489077627658844,0.20870846509933472
1761315595967351600,0.6273515625,-0.47436225414276123,-0.5206165909767151,0.2795693278312683
1761315595977399300,0.6373994140625,-0.5413186550140381,-0.5386589765548706,0.38984471559524536
1761315595987446300,0.6474462890625,-0.6296343803405762,-0.3238678276538849,0.5043012499809265
1761315595997494300,0.657494384765625,-0.6636847853660583,0.006816893350332975,0.586543619632721
1761315596007541500,0.66754150390625,-0.6813948154449463,0.2754153311252594,0.5814223885536194
1761315596017589200,0.67758935546875,-0.7353346943855286,0.5249924063682556,0.5218309760093689
1761315596027636200,0.68763623046875,-0.8036962151527405,0.8347648978233337,0.4574120342731476
1761315596037684500,0.6976845703125,-0.854401171207428,1.164534568786621,0.39116722345352173
1761315596047731500,0.7077314453125,-0.8683207631111145,1.030448079109192,0.24036332964897156
1761315596057779200,0.717779296875,-0.7944262623786926,0.29597175121307373,-0.004509264137595892
1761315596067827200,0.7278271484375,-0.7084013819694519,-0.3822757303714752,-0.22842945158481598
1761315596077874400,0.73787451171875,-0.6751723289489746,-0.7182415127754211,-0.38982099294662476
1761315596087922400,0.74792236328125,-0.6609302759170532,-0.855521559715271,-0.5175020098686218
1761315596097969400,0.757969482421875,-0.6976438164710999,-0.8150032162666321,-0.5910571813583374
1761315596108017400,0.768017333984375,-0.8381021022796631,-0.6185745596885681,-0.5806666016578674
1761315596118064400,0.778064453125,-1.0602238178253174,-0.3567938208580017,-0.5211046934127808
1761315596128112400,0.7881123046875,-1.2771412134170532,-0.31218454241752625,-0.4991690516471863
1761315596138159400,0.798159423828125,-1.3912779092788696,-0.5766691565513611,-0.507253885269165
1761315596148207400,0.808207275390625,-1.4222534894943237,-0.9193969964981079,-0.49441319704055786
1761315596158254300,0.81825439453125,-1.4156213998794556,-1.255470871925354,-0.4602040946483612
1761315596168302300,0.82830224609375,-1.388985276222229,-1.4999650716781616,-0.3750005066394806
1761315596178350300,0.838350341796875,-1.3427298069000244,-1.5652137994766235,-0.23494327068328857
1761315596188397300,0.848397216796875,-1.2837384939193726,-1.516074776649475,-0.07149176299571991
1761315596198445300,0.8584453125,-1.2507940530776978,-1.456684947013855,0.09390811622142792
1761315596208492300,0.8684921875,-1.2636550664901733,-1.3732794523239136,0.23924987018108368
1761315596218540500,0.87854052734375,-1.2983778715133667,-1.2252391576766968,0.34927836060523987
1761315596228587300,0.888587158203125,-1.331163763999939,-1.0406723022460938,0.39050623774528503
1761315596238635300,0.89863525390625,-1.3482165336608887,-0.8359862565994263,0.3550816476345062
1761315596248682200,0.90868212890625,-1.3359425067901611,-0.6730297803878784,0.2611069679260254
1761315596258730500,0.91873046875,-1.2812683582305908,-0.5758542418479919,0.16210554540157318
1761315596268777500,0.928777587890625,-1.2022055387496948,-0.5068349838256836,0.08282803744077682
1761315596278825200,0.9388251953125,-1.1474024057388306,-0.5062882304191589,0.025970613583922386
1761315596288873500,0.94887353515625,-1.1415163278579712,-0.5325307250022888,-0.028329642489552498
1761315596298920400,0.95892041015625,-1.1840208768844604,-0.5338327884674072,-0.08635859191417694
1761315596308968200,0.96896826171875,-1.2518513202667236,-0.5073255300521851,-0.14609622955322266
1761315596319015200,0.97901513671875,-1.3099782466888428,-0.49942898750305176,-0.17355315387248993
1761315596329063400,0.9890634765625,-1.358306646347046,-0.4821104407310486,-0.14905525743961334
1761315596339110400,0.9991103515625,-1.3703726530075073,-0.4800347685813904,-0.08335907012224197
1761315596349158400,1.009158447265625,-1.3321400880813599,-0.5732123851776123,-0.01948901265859604
1761315596359205000,1.019205078125,-1.251216173171997,-0.7215334177017212,0.015281750820577145
1761315596369253400,1.02925341796875,-1.145930528640747,-0.9118514657020569,-0.00595642626285553
1761315596379300400,1.03930029296875,-1.050756812095642,-1.0958622694015503,-0.06977641582489014
1761315596389348400,1.049348388671875,-0.9951087832450867,-1.1827188730239868,-0.1366550475358963
1761315596399396400,1.059396240234375,-0.9933090209960938,-1.1427973508834839,-0.18979816138744354
1761315596409443300,1.069443359375,-1.048294186592102,-0.9817788600921631,-0.23508308827877045
1761315596419491300,1.0794912109375,-1.1372309923171997,-0.8037809133529663,-0.2628587782382965
1761315596429538300,1.089538330078125,-1.2365880012512207,-0.5600787401199341,-0.2734384536743164
1761315596439586300,1.09958642578125,-1.311158299446106,-0.23173576593399048,-0.31066545844078064
1761315596449633300,1.10963330078125,-1.2650138139724731,0.11678973585367203,-0.40671584010124207
1761315596459681300,1.119681396484375,-1.1108673810958862,0.4231794774532318,-0.5011839866638184
1761315596469728300,1.129728271484375,-0.9805101156234741,0.5443035364151001,-0.5637733340263367
1761315596479776300,1.1397763671875,-1.0046255588531494,0.3231136202812195,-0.6269022822380066
1761315596489823200,1.1498232421875,-1.1920082569122314,-0.1124892607331276,-0.7521384954452515
1761315596499871200,1.159871337890625,-1.3532229661941528,-0.5565735101699829,-0.8393886685371399
1761315596509919500,1.16991943359375,-1.4552310705184937,-0.8374128937721252,-0.860214352607727
1761315596519966500,1.179966552734375,-1.5253790616989136,-0.9887603521347046,-0.8539287447929382
1761315596530014200,1.19001416015625,-1.4811761379241943,-1.1339857578277588,-0.8770068883895874
1761315596540061200,1.200061279296875,-1.177838683128357,-1.474539041519165,-0.7932619452476501
1761315596550109400,1.210109375,-0.6931859254837036,-1.699146032333374,-0.6613680720329285
1761315596560156400,1.220156494140625,-0.19556523859500885,-1.6886813640594482,-0.5078765153884888
1761315596570204200,1.2302041015625,0.2429170459508896,-1.683903455734253,-0.2935003340244293
1761315596580251100,1.240251220703125,0.6632376313209534,-1.566989541053772,-0.07476931065320969
1761315596590299400,1.25029931640625,0.9617692232131958,-1.275435447692871,0.0829034075140953
1761315596600346400,1.260346435546875,0.7283348441123962,1.098935604095459,-0.03916551172733307
1761315596610394000,1.27039404296875,0.07602526247501373,2.134277820587158,-0.3293147683143616
1761315596620442400,1.2804423828125,-0.3569168448448181,2.072091579437256,-0.6679778099060059
1761315596630489300,1.2904892578125,-0.44886940717697144,1.5304837226867676,-0.8755443096160889
1761315596640537300,1.300537353515625,-0.40339726209640503,0.9012722969055176,-0.8710624575614929
1761315596650584300,1.310584228515625,-0.4686782658100128,0.26303350925445557,-0.7399387955665588
1761315596660632300,1.32063232421875,-0.7947285175323486,-0.6152985692024231,-0.6024139523506165
1761315596670679600,1.330679443359375,-1.3841023445129395,-1.402082920074463,-0.42101621627807617
1761315596680727600,1.3407275390625,-1.971122145652771,-2.394371271133423,-0.2483765184879303
1761315596690774500,1.3507744140625,-2.3227734565734863,-3.2408390045166016,-0.07445639371871948
1761315596700822300,1.360822265625,-2.4138917922973633,-3.7472283840179443,0.2575700283050537
1761315596710869500,1.370869384765625,-2.1854987144470215,-3.8968307971954346,0.5296047329902649
1761315596720917500,1.38091748046875,-1.7332054376602173,-3.8415746688842773,0.691889226436615
1761315596730965200,1.39096533203125,-1.297527551651001,-2.947359323501587,0.17383943498134613
1761315596741012200,1.40101220703125,-0.9062334895133972,-2.097259283065796,-0.2269151657819748
1761315596751060500,1.411060546875,-0.6064704656600952,-1.493592381477356,-0.6804749369621277
1761315596761107500,1.421107421875,-0.44131243228912354,-0.99098140001297,-1.2165902853012085
1761315596771155500,1.431155517578125,-0.38540521264076233,-0.34082069993019104,-1.627475619316101
1761315596781202400,1.441202392578125,-0.4195610582828522,0.236199751496315,-1.7264820337295532
1761315596791250400,1.45125048828125,-0.5142230987548828,0.6220827102661133,-1.5402517318725586
1761315596801297400,1.46129736328125,-0.6266194581985474,0.6754745841026306,-1.1028738021850586
1761315596811345400,1.471345458984375,-0.6534630060195923,0.3122870624065399,-0.5225606560707092
1761315596821392600,1.481392578125,-0.599676251411438,-0.3501569330692291,0.10838772356510162
1761315596831440400,1.4914404296875,-0.596388578414917,-1.028201699256897,0.6620599627494812
1761315596841488400,1.50148828125,-0.7452832460403442,-1.594530463218689,1.1009401082992554
1761315596851535600,1.51153564453125,-0.9542676210403442,-1.9164245128631592,1.5540753602981567
1761315596861583400,1.521583251953125,-1.1442798376083374,-2.005298614501953,1.9822224378585815
1761315596871630300,1.53163037109375,-1.2691584825515747,-1.9220010042190552,2.3374671936035156
1761315596881678300,1.54167822265625,-1.376430869102478,-1.772373914718628,2.5106866359710693
1761315596891725600,1.5517255859375,-1.553084373474121,-1.6186738014221191,2.540994882583618
1761315596901773600,1.561773681640625,-1.7620009183883667,-1.4386202096939087,2.4773590564727783
1761315596911820300,1.5718203125,-1.915967583656311,-1.245930552482605,2.269559383392334
1761315596921868500,1.58186865234375,-2.016730308532715,-1.1247634887695312,1.885552167892456
1761315596931915500,1.59191552734375,-2.0745129585266113,-1.035065770149231,1.3502354621887207
1761315596941963500,1.601963623046875,-2.0953071117401123,-0.9426149129867554,0.7502782344818115
1761315596952011300,1.61201123046875,-2.1261022090911865,-0.8415573239326477,0.18844234943389893
1761315596962058500,1.62205859375,-2.2059671878814697,-0.6533543467521667,-0.25056591629981995
1761315596972106500,1.6321064453125,-2.3016035556793213,-0.31673532724380493,-0.4394764304161072
1761315596982153500,1.642153564453125,-2.3452494144439697,0.1327093094587326,-0.4396793842315674
1761315596992201500,1.652201416015625,-2.2969605922698975,0.627036452293396,-0.33674687147140503
1761315597002248400,1.66224853515625,-2.195737361907959,1.0812689065933228,-0.17972421646118164
1761315597012296400,1.67229638671875,-2.0873444080352783,1.3652658462524414,0.013362943194806576
1761315597022343400,1.682343505859375,-1.9695777893066406,1.424491286277771,0.2529968321323395
1761315597032391400,1.692391357421875,-1.863060712814331,1.2564927339553833,0.5385977029800415
1761315597042438400,1.7024384765625,-1.5314079523086548,1.2444254159927368,0.5221284627914429
1761315597052486400,1.712486328125,-1.8167916536331177,0.5965456962585449,0.9820624589920044
1761315597062534700,1.72253466796875,-2.2824788093566895,-0.46764495968818665,1.3930675983428955
1761315597072581600,1.73258154296875,-2.4485507011413574,-1.0236296653747559,1.869341492652893
1761315597082629400,1.74262939453125,-2.4039697647094727,-1.636597990989685,2.2262628078460693
1761315597092676400,1.75267626953125,-2.349994659423828,-2.3412327766418457,2.499051332473755
1761315597102724600,1.762724609375,-2.3634729385375977,-2.692979574203491,2.5342047214508057
1761315597112771600,1.772771484375,-2.1349573135375977,-2.7292935848236084,2.032177448272705
1761315597122819300,1.7828193359375,-1.6690603494644165,-2.3660550117492676,1.197873592376709
1761315597132866300,1.7928662109375,-1.428827166557312,-1.9539964199066162,0.18821704387664795
1761315597142914600,1.80291455078125,-0.8626871109008789,-1.6545300483703613,-0.8151422142982483
1761315597152961500,1.81296142578125,-0.20902618765830994,-1.342910647392273,-1.4487391710281372
1761315597163009300,1.82300927734375,0.2622188329696655,-1.237413763999939,-1.561156153678894
1761315597173056300,1.83305615234375,0.38761430978775024,-1.1510448455810547,-1.233816146850586
1761315597183104500,1.8431044921875,0.22725632786750793,-1.3134300708770752,-0.8124510645866394
1761315597193152500,1.853152587890625,-0.10790649056434631,-1.5873692035675049,-0.6169010400772095
1761315597203199500,1.863199462890625,-0.340781033039093,-1.8471671342849731,-0.5692884922027588
1761315597213247500,1.87324755859375,-0.35426008701324463,-2.0138492584228516,-0.483866810798645
1761315597223294500,1.88329443359375,-0.1773390918970108,-2.026289224624634,-0.2851499915122986
1761315597233342500,1.893342529296875,0.011738681234419346,-1.9457576274871826,-0.04700026661157608
1761315597243389400,1.903389404296875,0.1776387095451355,-1.8476097583770752,0.12717606127262115
1761315597253437400,1.9134375,0.37589558959007263,-1.7747446298599243,0.18259990215301514
1761315597263484400,1.923484375,0.5503909587860107,-1.7240530252456665,0.08345148712396622
1761315597273532400,1.933532470703125,0.6223847270011902,-1.625784993171692,-0.1610642522573471
1761315597283579400,1.943579345703125,0.5805826783180237,-1.319725751876831,-0.4717179834842682
1761315597293627400,1.95362744140625,0.4311002492904663,-0.8404433131217957,-0.7738589644432068
1761315597303675400,1.96367529296875,0.19706140458583832,-0.24980317056179047,-0.9854199290275574
1761315597313722400,1.973722412109375,-0.0764676108956337,0.3628133535385132,-1.0854418277740479
1761315597323770600,1.9837705078125,-0.3369884192943573,0.9186164140701294,-1.0487507581710815
1761315597333817600,1.993817626953125,-0.5662386417388916,1.330212950706482,-0.8447778820991516
1761315597343865300,2.003865234375,-0.7578064799308777,1.5138795375823975,-0.5366711616516113
1761315597353912300,2.013912353515625,-0.9129230976104736,1.4479821920394897,-0.1320355236530304
1761315597363960600,2.023960693359375,-1.0310009717941284,1.172333836555481,0.358567476272583
1761315597374007600,2.034007568359375,-1.0767042636871338,0.6566441655158997,0.8339246511459351
1761315597384055300,2.04405517578125,-1.0649315118789673,-0.06720833480358124,1.1814826726913452
1761315597394102300,2.054102294921875,-1.0349712371826172,-0.8505619764328003,1.348636507987976
1761315597404150500,2.064150634765625,-1.0113979578018188,-1.508762001991272,1.3716299533843994
1761315597414198300,2.0741982421875,-1.0061427354812622,-1.8990581035614014,1.3021882772445679
1761315597424245200,2.084245361328125,-1.0497198104858398,-1.954754114151001,1.2070953845977783
1761315597434293500,2.09429345703125,-1.1327826976776123,-1.6434963941574097,1.118678331375122
1761315597444340500,2.104340576171875,-1.254423975944519,-1.0948354005813599,1.054719090461731
1761315597454388500,2.114388427734375,-1.4302077293395996,-0.4889388084411621,0.9957391619682312
1761315597464435500,2.124435546875,-1.6545580625534058,-0.053040847182273865,0.9259539246559143
1761315597474483500,2.1344833984375,-1.9221676588058472,0.14638544619083405,0.8352383971214294
1761315597484530400,2.144530517578125,-2.179661273956299,0.16417296230793,0.7282382249832153
1761315597494578400,2.154578369140625,-2.412675380706787,0.11027617007493973,0.6332661509513855
1761315597504625700,2.164625732421875,-2.5514776706695557,-0.20533904433250427,0.5356184244155884
1761315597514673400,2.17467333984375,-2.4027347564697266,-0.9231823682785034,0.24822871387004852
1761315597524721400,2.184721435546875,-2.017118215560913,-1.756103277206421,-0.3821745216846466
1761315597534768400,2.194768310546875,-1.7051961421966553,-2.3423752784729004,-1.189797043800354
1761315597544816400,2.20481640625,-1.4564281702041626,-2.345003604888916,-1.8535739183425903
1761315597554863400,2.21486328125,-1.0781999826431274,-1.542468547821045,-2.3338170051574707
1761315597564911400,2.224911376953125,-0.6804876923561096,-0.15475896000862122,-2.7320027351379395
1761315597574958600,2.23495849609375,-0.4797373116016388,1.520655870437622,-3.054051399230957
1761315597585006600,2.245006591796875,-0.3615456819534302,2.9312477111816406,-3.246223211288452
1761315597595053300,2.25505322265625,-0.140581876039505,3.877408027648926,-3.1368093490600586
1761315597605101300,2.265101318359375,-0.012072907760739326,4.084660053253174,-2.6937623023986816
1761315597615148500,2.2751484375,-0.055800680071115494,3.6078333854675293,-1.9874542951583862
1761315597625196500,2.285196533203125,-0.12625886499881744,2.534848690032959,-1.2071714401245117
1761315597635244300,2.295244384765625,-0.18438129127025604,1.0936579704284668,-0.45472145080566406
1761315597645291500,2.30529150390625,-0.22494150698184967,-0.5853577256202698,0.29446864128112793
1761315597655339500,2.315339599609375,-0.13427391648292542,-1.9846930503845215,1.3005858659744263
1761315597665387000,2.325386962890625,-0.010696053504943848,-3.1044137477874756,2.478641986846924
1761315597675434800,2.335434814453125,0.07166726142168045,-3.987379550933838,3.527805805206299
1761315597685481700,2.345481689453125,0.111421599984169,-4.607874393463135,4.228572368621826
1761315597695530000,2.355530029296875,0.12618429958820343,-4.869547367095947,4.61384391784668
1761315597705577000,2.365576904296875,0.07517464458942413,-4.8460493087768555,4.770506381988525
1761315597715624700,2.375624755859375,-0.04694007709622383,-4.6658711433410645,4.733987808227539
1761315597725671700,2.385671630859375,-0.19334815442562103,-4.4416632652282715,4.511158466339111
1761315597735720000,2.395719970703125,-0.3153662085533142,-4.1550445556640625,4.150208473205566
1761315597745768000,2.405767822265625,-0.4103507697582245,-3.7349305152893066,3.6841418743133545
1761315597755815000,2.41581494140625,-0.4383605718612671,-3.1462302207946777,3.155416250228882
1761315597765863000,2.42586279296875,-0.4211943745613098,-2.3310046195983887,2.57851243019104
1761315597775910000,2.435909912109375,-0.3229908347129822,-1.37651789188385,1.866518497467041
1761315597785958000,2.4459580078125,-0.1840936690568924,-0.5908278822898865,0.9998955130577087
1761315597796004900,2.4560048828125,-0.05359797924757004,-0.0030250847339630127,0.09565035998821259
1761315597806052900,2.466052978515625,0.01636778749525547,0.4298427104949951,-0.7945618033409119
1761315597816099800,2.476099853515625,-0.0674501433968544,0.9385312795639038,-1.587371826171875
1761315597826147800,2.48614794921875,-0.29611554741859436,1.5192327499389648,-2.207667112350464
1761315597836194800,2.49619482421875,-0.6376819610595703,2.065746307373047,-2.6534693241119385
1761315597846242800,2.506242919921875,-1.013480305671692,2.5375733375549316,-2.917728900909424
1761315597856289800,2.516289794921875,-1.3728365898132324,2.8431222438812256,-3.038285493850708
1761315597866337800,2.526337890625,-1.5601825714111328,2.950127124786377,-2.954376459121704
1761315597876386000,2.536385986328125,-1.510865330696106,2.90535831451416,-2.7674386501312256
1761315597886432800,2.546432861328125,-1.2886197566986084,2.597184658050537,-2.5804715156555176
1761315597896480800,2.556480712890625,-0.941219687461853,2.256415605545044,-2.3223817348480225
1761315597906527700,2.56652783203125,-0.5041981935501099,1.971726655960083,-1.7796286344528198
1761315597916576000,2.576575927734375,-0.0781099796295166,1.584378719329834,-0.9202478528022766
1761315597926623000,2.586623046875,0.24247868359088898,0.9142155051231384,0.022116221487522125
1761315597936670700,2.596670654296875,0.41945478320121765,0.11496440321207047,0.7768747210502625
1761315597946717700,2.6067177734375,0.4059392511844635,-0.7294486165046692,1.123369812965393
1761315597956766000,2.616765869140625,0.1525019258260727,-1.5222914218902588,0.9939401745796204
1761315597966813000,2.62681298828125,-0.2643482983112335,-1.9271501302719116,0.5519084334373474
1761315597976860700,2.636860595703125,-0.6063477396965027,-1.9221018552780151,0.06976336985826492
1761315597986907600,2.64690771484375,-0.6938391923904419,-1.88294517993927,-0.4329186677932739
1761315597996956000,2.656955810546875,-0.7176412343978882,-1.643570065498352,-0.9233320355415344
1761315598007004000,2.66700390625,-0.7526476383209229,-0.9830777049064636,-1.248909592628479
1761315598017050600,2.677050537109375,-0.7845715284347534,-0.1019415482878685,-1.4750945568084717
1761315598027099000,2.687098876953125,-0.8046922087669373,0.876362144947052,-1.6307533979415894
1761315598037145900,2.697145751953125,-0.6984691023826599,1.4676880836486816,-1.6735812425613403
1761315598047193900,2.70719384765625,-0.45730629563331604,1.6144345998764038,-1.5103050470352173
1761315598057240800,2.71724072265625,-0.2153003215789795,1.4182978868484497,-1.0723851919174194
1761315598067288800,2.727288818359375,-0.1904011070728302,0.9123451709747314,-0.5674176216125488
1761315598077335800,2.737335693359375,-0.5009677410125732,0.4591478705406189,-0.348702073097229
1761315598087383800,2.7473837890625,-0.8914065957069397,0.20434914529323578,-0.46983060240745544
1761315598097431000,2.75743115234375,-1.0588501691818237,0.023854466155171394,-0.7339802384376526
1761315598107478800,2.767478759765625,-0.8373713493347168,-0.16202326118946075,-0.8971619606018066
1761315598117526800,2.77752685546875,-0.34533581137657166,-0.3148799240589142,-0.8215753436088562
1761315598127573800,2.78757373046875,0.20385432243347168,-0.3898329734802246,-0.5347438454627991
1761315598137621800,2.797621826171875,0.6186874508857727,-0.47406184673309326,-0.1856130063533783
1761315598147668700,2.807668701171875,0.8281879425048828,-0.5676820874214172,0.1549602895975113
1761315598157716700,2.817716796875,0.7261292338371277,-0.611567497253418,0.42678195238113403
1761315598167763700,2.827763671875,0.3574382960796356,-0.6560574769973755,0.5766779780387878
1761315598177812000,2.83781201171875,-0.11491087079048157,-0.7289130687713623,0.6103464365005493
1761315598187859000,2.84785888671875,-0.5620449781417847,-0.7814812064170837,0.5788484215736389
1761315598197906700,2.85790673828125,-0.7974439263343811,-0.7879385352134705,0.5683984756469727
1761315598207954000,2.867953857421875,-0.7681262493133545,-0.6773715615272522,0.6446372866630554
1761315598218002000,2.878001953125,-0.5578272938728333,-0.5810160040855408,0.7999648451805115
1761315598228049000,2.888048828125,-0.35553839802742004,-0.493997722864151,0.9856889247894287
1761315598238096600,2.8980966796875,-0.2880972921848297,-0.36956819891929626,1.1520971059799194
1761315598248145000,2.908144775390625,-0.41190072894096375,-0.3078872561454773,1.2478313446044922
1761315598258192000,2.91819189453125,-0.6441584825515747,-0.3323308229446411,1.2667351961135864
1761315598268239600,2.928239501953125,-0.8762620091438293,-0.4644526243209839,1.2427278757095337
1761315598278286800,2.938286865234375,-1.0470750331878662,-0.6587813496589661,1.1531000137329102
1761315598288334800,2.9483349609375,-1.1807774305343628,-0.8788436651229858,0.9769348502159119
1761315598298381800,2.9583818359375,-1.2126508951187134,-1.01310133934021,0.7235590219497681
1761315598308429800,2.968429931640625,-1.0784238576889038,-0.935982346534729,0.4659842252731323
1761315598318476800,2.978476806640625,-0.8284087181091309,-0.6816728115081787,0.26649561524391174
1761315598328524800,2.98852490234375,-0.5831297636032104,-0.33399155735969543,0.14616386592388153
1761315598338571800,2.99857177734375,-0.4227163791656494,0.10800796002149582,0.10443239659070969
1761315598348620000,3.0086201171875,-0.37697339057922363,0.5802053213119507,0.11863131076097488
1761315598358667000,3.0186669921875,-0.4201243221759796,0.9773929119110107,0.15266942977905273
1761315598368714800,3.02871484375,-0.4955892264842987,1.2338521480560303,0.2582874894142151
1761315598378762800,3.0387626953125,-0.5112504959106445,1.1884948015213013,0.4613867998123169
1761315598388810000,3.04881005859375,-0.46421799063682556,0.8481408953666687,0.7298062443733215
1761315598398857700,3.058857666015625,-0.40212586522102356,0.37637656927108765,1.000765323638916
1761315598408904700,3.06890478515625,-0.33739373087882996,-0.15571396052837372,1.2095481157302856
1761315598418953000,3.078952880859375,-0.33474549651145935,-0.6901549696922302,1.2199029922485352
1761315598429000000,3.089,-0.41126158833503723,-1.0389797687530518,0.9833815693855286
1761315598439048000,3.0990478515625,-0.5423538088798523,-1.0107580423355103,0.6689415574073792
1761315598449094700,3.1090947265625,-0.6374731659889221,-0.5628481507301331,0.3880590498447418
1761315598459143000,3.119142822265625,-0.6578929424285889,0.020531373098492622,0.09051179140806198
1761315598469190000,3.12918994140625,-0.640325129032135,0.4462014436721802,-0.22357264161109924
1761315598479238000,3.13923779296875,-0.5640769600868225,0.5447075366973877,-0.7290539145469666
1761315598489284900,3.149284912109375,-0.4752354919910431,0.5954492688179016,-1.344106674194336
1761315598499332900,3.159332763671875,-0.4724724590778351,0.6394351124763489,-1.8383837938308716
1761315598509380900,3.169380859375,-0.5695926547050476,0.7109974026679993,-2.0068862438201904
1761315598519427800,3.179427734375,-0.7996940016746521,0.5815944075584412,-1.8798580169677734
1761315598529475800,3.189475830078125,-1.074140191078186,0.2525201439857483,-1.5633578300476074
1761315598539522800,3.199522705078125,-1.0270168781280518,-0.18272800743579865,-1.098196268081665
1761315598549570800,3.20957080078125,-0.5585929751396179,-0.8309342265129089,-0.6612016558647156
1761315598559617800,3.21961767578125,0.11277101933956146,-1.341924786567688,-0.38836318254470825
1761315598569665800,3.229665771484375,0.7278477549552917,-1.7332216501235962,-0.4105033874511719
1761315598579712800,3.239712646484375,1.0752995014190674,-1.8647360801696777,-0.7313855290412903
1761315598589760800,3.2497607421875,1.0396584272384644,-1.5847768783569336,-1.2347352504730225
1761315598599807700,3.259807861328125,0.6270527243614197,-0.808435320854187,-1.6358578205108643
1761315598609856000,3.26985595703125,0.03712579607963562,0.2206551432609558,-1.714009404182434
1761315598619903000,3.279903076171875,-0.44507014751434326,0.9951447248458862,-1.4636602401733398
1761315598629950700,3.28995068359375,-0.7214947938919067,1.2839280366897583,-1.0711427927017212
1761315598639997700,3.299997802734375,-0.854915201663971,1.0880919694900513,-0.66804039478302
1761315598650046000,3.3100458984375,-0.9449838399887085,0.6496270298957825,-0.22988033294677734
1761315598660093700,3.32009375,-0.983955979347229,0.13754694163799286,0.22413510084152222
1761315598670141200,3.33014111328125,-0.9609814286231995,-0.3916497826576233,0.639202892780304
1761315598680189200,3.340189208984375,-0.8793020248413086,-0.9715222120285034,1.000597596168518
1761315598690236200,3.350236083984375,-0.7956449389457703,-1.5539566278457642,1.1711511611938477
1761315598700284200,3.3602841796875,-0.5933554768562317,-1.9409629106521606,1.2045645713806152
1761315598710331100,3.3703310546875,-0.3547879159450531,-2.142073631286621,1.1097607612609863
1761315598720379100,3.380379150390625,-0.1688886135816574,-1.9690052270889282,0.968559741973877
1761315598730426400,3.39042626953125,-0.052255745977163315,-1.529457449913025,0.822565495967865
1761315598740474000,3.40047412109375,-0.01594327948987484,-1.013325572013855,0.6814627051353455
1761315598750521000,3.41052099609375,-0.021792113780975342,-0.5259780287742615,0.5613861083984375
1761315598760569000,3.420569091796875,-0.06379282474517822,-0.09470227360725403,0.5351899266242981
1761315598770616300,3.4306162109375,-0.10962503403425217,0.2311309576034546,0.5988290905952454
1761315598780664300,3.440664306640625,-0.10055829584598541,0.1854633390903473,0.6155396103858948
1761315598790712000,3.450712158203125,-0.07167791575193405,0.08010868728160858,0.680294394493103
1761315598800759300,3.46075927734375,-0.08355242013931274,0.13961727917194366,0.780710756778717
1761315598810807300,3.470807373046875,-0.20093204081058502,0.36110255122184753,0.8631443381309509
1761315598820854300,3.480854248046875,-0.3978184759616852,0.6201047897338867,0.9835509061813354
1761315598830902000,3.490902099609375,-0.6292541027069092,0.8905770182609558,1.170597791671753
1761315598840949200,3.50094921875,-0.8624849319458008,1.0677629709243774,1.317046880722046
1761315598850997200,3.510997314453125,-1.017586350440979,1.003739595413208,1.4053423404693604
1761315598861044200,3.521044189453125,-1.012410283088684,0.6307356357574463,1.3991010189056396
1761315598871092200,3.53109228515625,-0.8579146862030029,0.09036451578140259,1.299329400062561
1761315598881139200,3.54113916015625,-0.6198070645332336,-0.37663623690605164,1.1161092519760132
1761315598891187200,3.551187255859375,-0.40998324751853943,-0.5872815847396851,0.8725998997688293
1761315598901234200,3.561234130859375,-0.24453890323638916,-0.5767877101898193,0.5954585671424866
1761315598911282200,3.5712822265625,-0.1705664098262787,-0.3053782880306244,0.25433453917503357
1761315598921329200,3.5813291015625,-0.24933898448944092,0.2240125983953476,-0.12930339574813843
1761315598931377200,3.591377197265625,-0.37125876545906067,0.6781646609306335,-0.4633178412914276
1761315598941424000,3.601424072265625,-0.41188210248947144,1.011900782585144,-0.6553655862808228
1761315598951472400,3.611472412109375,-0.3386222720146179,1.1825923919677734,-0.7284078598022461
1761315598961520000,3.62152001953125,-0.2252482920885086,0.923808753490448,-0.828606367111206
1761315598971567000,3.631567138671875,-0.16071511805057526,0.3423618674278259,-0.9848971366882324
1761315598981615400,3.641615478515625,-0.1805087924003601,-0.16586114466190338,-1.149835228919983
1761315598991662300,3.651662353515625,-0.38573330640792847,-0.3499201834201813,-1.2689567804336548
1761315599001710000,3.6617099609375,-0.7110850214958191,-0.187557652592659,-1.2246344089508057
1761315599011757000,3.671757080078125,-0.7987762689590454,-0.15388703346252441,-0.9304560422897339
1761315599021805300,3.681805419921875,-0.5853776931762695,-0.302160382270813,-0.6124306321144104
1761315599031852300,3.691852294921875,-0.24948786199092865,-0.5285962224006653,-0.34451156854629517
1761315599041900000,3.701900146484375,0.029161879792809486,-0.7858860492706299,-0.21242943406105042
1761315599051947000,3.711947021484375,0.3103698492050171,-1.0832903385162354,-0.24803882837295532
1761315599061995300,3.721995361328125,0.49703532457351685,-1.0576730966567993,-0.366787314414978
1761315599072042200,3.732042236328125,0.4775838851928711,-0.5555734634399414,-0.6508773565292358
1761315599082090200,3.74209033203125,0.40885329246520996,0.05692986026406288,-0.9699535965919495
1761315599092138200,3.75213818359375,0.37711238861083984,0.6357293128967285,-1.1088998317718506
1761315599102185200,3.762185302734375,0.3850829601287842,0.9492089152336121,-1.0068050622940063
1761315599112233200,3.772233154296875,0.38871631026268005,0.9977104067802429,-0.5885178446769714
1761315599122280200,3.7822802734375,0.44494977593421936,0.6576058268547058,-0.09051578491926193
1761315599132328200,3.792328125,0.5467027425765991,0.10068745911121368,0.37496668100357056
1761315599142375200,3.802375244140625,0.6384223103523254,-0.6106210350990295,0.7548290491104126
1761315599152423200,3.812423095703125,0.6847759485244751,-1.4133555889129639,0.9986329078674316
1761315599162470100,3.82247021484375,0.6939076781272888,-2.0366947650909424,1.0597506761550903
1761315599172518100,3.83251806640625,0.6571952104568481,-2.236522674560547,0.9698854684829712
1761315599182565000,3.842565185546875,0.5740257501602173,-1.9712177515029907,0.7560977935791016
1761315599192613000,3.852613037109375,0.47599902749061584,-1.3247343301773071,0.4580301344394684
1761315599202660000,3.86266015625,0.3689122498035431,-0.488839715719223,0.1686830222606659
1761315599212708400,3.872708251953125,0.22267834842205048,0.393756628036499,0.004589159041643143
1761315599222755000,3.882755126953125,0.09357336163520813,0.9555997252464294,0.012869992293417454
1761315599232803000,3.892802978515625,0.014465492218732834,1.0107295513153076,0.1415318250656128
1761315599242850300,3.902850341796875,-0.05320489779114723,0.7533214688301086,0.36371803283691406
1761315599252898300,3.912898193359375,-0.1328485906124115,0.3473377227783203,0.6098551154136658
1761315599262946000,3.922946044921875,-0.22648507356643677,-0.08317158371210098,0.8087642192840576
1761315599272993000,3.932992919921875,-0.28377765417099,-0.3607403337955475,0.9169548749923706
1761315599283041300,3.943041259765625,-0.30898022651672363,-0.4423220157623291,0.9063339233398438
1761315599293088300,3.953088134765625,-0.33032119274139404,-0.3384220004081726,0.771827757358551
1761315599303136000,3.963135986328125,-0.33185890316963196,-0.1396721452474594,0.5713015794754028
1761315599313183200,3.973183349609375,-0.351736456155777,0.13670378923416138,0.42600536346435547
1761315599323231200,3.983231201171875,-0.412177175283432,0.4263686239719391,0.4259862005710602
1761315599333278200,3.9932783203125,-0.48697206377983093,0.7491309642791748,0.5601277351379395
1761315599343326200,4.003326171875,-0.5479677319526672,0.9337927103042603,0.6600537896156311
1761315599353373200,4.013373291015625,-0.5280092358589172,0.9117686152458191,0.6601020097732544
1761315599363421200,4.023421142578125,-0.3954554498195648,0.6519980430603027,0.5216118097305298
1761315599373468200,4.03346826171875,-0.15152721107006073,0.32452988624572754,0.26563674211502075
1761315599383516400,4.043516357421875,0.19717937707901,0.10283876210451126,0.019567308947443962
1761315599393563400,4.0535634765625,0.5614281892776489,0.07741622626781464,-0.15813477337360382
1761315599403611100,4.063611083984375,0.8539335131645203,0.30272337794303894,-0.23757687211036682
1761315599413658000,4.073658203125,1.07233726978302,0.6779494881629944,-0.20988932251930237
1761315599423706400,4.083706298828125,1.190837025642395,1.0004327297210693,-0.2174960970878601
1761315599433753300,4.09375341796875,1.1595054864883423,1.0956364870071411,-0.31140395998954773
1761315599443801000,4.103801025390625,0.960044264793396,1.0786255598068237,-0.40435680747032166
1761315599453849300,4.113849365234375,0.7049693465232849,0.9370198845863342,-0.41947850584983826
1761315599463896300,4.123896240234375,0.5178942680358887,0.6609749794006348,-0.37403619289398193
1761315599473944000,4.133944091796875,0.31268519163131714,0.14306208491325378,-0.41375136375427246
1761315599483991000,4.143990966796875,0.062375493347644806,-0.2269977331161499,-0.5474987626075745
1761315599494039300,4.154039306640625,-0.1839916706085205,-0.22356730699539185,-0.7991824150085449
1761315599504086300,4.164086181640625,-0.34522929787635803,0.04467000067234039,-1.2036460638046265
1761315599514134300,4.17413427734375,-0.2818242311477661,0.5983409285545349,-1.5968968868255615
1761315599524181200,4.18418115234375,0.0671129897236824,1.1714808940887451,-1.7656129598617554
1761315599534229200,4.194229248046875,0.5158220529556274,1.4127260446548462,-1.8084362745285034
1761315599544276200,4.204276123046875,0.9781548380851746,1.182407021522522,-1.8305115699768066
1761315599554324200,4.21432421875,1.4489649534225464,0.5047057867050171,-1.9193120002746582
1761315599564371200,4.22437109375,1.7158392667770386,-0.20243220031261444,-2.119713306427002
1761315599574419200,4.234419189453125,1.616581916809082,-0.5339443683624268,-2.2651078701019287
1761315599584466200,4.244466064453125,1.287833333015442,-0.4790526032447815,-2.130493402481079
1761315599594514200,4.25451416015625,0.9021793603897095,-0.23715901374816895,-1.657323956489563
1761315599604561200,4.26456103515625,0.6783875226974487,-0.046422626823186874,-0.8946828246116638
1761315599614609200,4.274609130859375,0.6780173778533936,-0.019840016961097717,-0.06597156077623367
1761315599624656100,4.28465625,0.770710289478302,-0.07762022316455841,0.6701040267944336
1761315599634704100,4.2947041015625,0.8091943264007568,-0.2362183928489685,1.1934043169021606
1761315599644752400,4.30475244140625,0.7377720475196838,-0.47551432251930237,1.4668751955032349
1761315599654799000,4.314799072265625,0.6470717191696167,-0.8467832207679749,1.5950933694839478
1761315599664847000,4.32484716796875,0.579288125038147,-1.2805101871490479,1.6155624389648438
1761315599674897200,4.334897216796875,0.5607075095176697,-1.509356141090393,1.589231014251709
1761315599684945200,4.344945068359375,0.6098018288612366,-1.5021873712539673,1.5521589517593384
1761315599694992400,4.354992431640625,0.7019871473312378,-1.2788177728652954,1.4679404497146606
1761315599705040100,4.3650400390625,0.8144271373748779,-0.8103352189064026,1.308670163154602
1761315599715087000,4.375087158203125,0.9204350709915161,-0.24217002093791962,1.1057794094085693
1761315599725135000,4.385135009765625,0.9748503565788269,0.29551392793655396,0.8733274936676025
1761315599735182300,4.395182373046875,0.9505594372749329,0.7125186324119568,0.6391248106956482
1761315599745230000,4.40522998046875,0.8683590888977051,0.958629846572876,0.4422706365585327
1761315599755277000,4.415277099609375,0.7921172976493835,0.9708934426307678,0.30554208159446716
1761315599765325300,4.4253251953125,0.7414038181304932,0.7452118396759033,0.16627153754234314
1761315599775372300,4.435372314453125,0.6858825087547302,0.3692563474178314,0.053887199610471725
1761315599785420300,4.445420166015625,0.6156376004219055,0.04535256698727608,0.08772852271795273
1761315599795467300,4.45546728515625,0.5501132011413574,-0.13959304988384247,0.25664642453193665
1761315599805515300,4.465515380859375,0.47087377309799194,-0.19962789118289948,0.43341508507728577
1761315599815562200,4.475562255859375,0.3688147962093353,-0.15597201883792877,0.5035819411277771
1761315599825610200,4.4856103515625,0.235229030251503,0.024390295147895813,0.43196019530296326
1761315599835657200,4.4956572265625,0.08063305914402008,0.3471795320510864,0.26840588450431824
1761315599845705200,4.505705322265625,-0.09496965259313583,0.7335479855537415,0.05047755315899849
1761315599855753200,4.515753173828125,-0.2698919475078583,1.0798341035842896,-0.18107497692108154
1761315599865800200,4.52580029296875,-0.34281274676322937,1.345292329788208,-0.35562974214553833
1761315599875848200,4.53584814453125,-0.2840929627418518,1.410072684288025,-0.41861775517463684
1761315599885895200,4.545895263671875,-0.2516239881515503,1.2628097534179688,-0.47612419724464417
1761315599895943200,4.555943115234375,-0.2894454002380371,1.0293045043945312,-0.5792468786239624
1761315599905990100,4.565990234375,-0.3665047585964203,0.8377218246459961,-0.7156766057014465
1761315599916038400,4.576038330078125,-0.5340415835380554,0.7374919056892395,-0.8655025959014893
1761315599926085000,4.586085205078125,-0.7155823111534119,0.6898793578147888,-1.0215356349945068
1761315599936133000,4.596133056640625,-0.8149592280387878,0.6366012096405029,-1.2266405820846558
1761315599946180000,4.60618017578125,-0.8543345928192139,0.5756718516349792,-1.535210371017456
1761315599956228400,4.616228271484375,-0.8330921530723572,0.5298702716827393,-1.8110997676849365
1761315599966275300,4.626275390625,-0.7002646327018738,0.2679060101509094,-2.0573530197143555
1761315599976323000,4.636322998046875,-0.7407481074333191,0.25590500235557556,-2.2891685962677
1761315599986370000,4.6463701171875,-0.8955137133598328,0.7135500907897949,-2.4621670246124268
1761315599996418300,4.656418212890625,-1.067249059677124,0.9755100607872009,-2.5937182903289795
1761315600006465300,4.66646533203125,-1.2289223670959473,1.221937656402588,-2.3749308586120605
1761315600016513000,4.676512939453125,-1.161169171333313,1.5620225667953491,-1.7680721282958984
1761315600026560300,4.686560302734375,-0.7648217678070068,1.4713605642318726,-1.0606787204742432
1761315600036608300,4.696608154296875,-0.2239963412284851,0.77107834815979,-0.4806675612926483
1761315600046655200,4.7066552734375,0.25196513533592224,-0.05597059056162834,-0.14182424545288086
1761315600056703000,4.716702880859375,0.6330629587173462,-0.7433846592903137,-0.09705091267824173
1761315600066750200,4.726750244140625,0.846473753452301,-1.3650444746017456,-0.37718456983566284
1761315600076798200,4.736798095703125,0.8870845437049866,-1.820429801940918,-0.8152820467948914
1761315600086845200,4.74684521484375,0.7292784452438354,-2.0958728790283203,-1.191677451133728
1761315600096893200,4.75689306640625,0.37012532353401184,-2.10317063331604,-1.3353608846664429
1761315600106941200,4.766941162109375,-0.02197427488863468,-1.767302393913269,-1.1542118787765503
1761315600116988200,4.77698828125,-0.27122005820274353,-1.1923363208770752,-0.7642619609832764
1761315600127036200,4.7870361328125,-0.3157816529273987,-0.558509111404419,-0.24948732554912567
1761315600137083400,4.79708349609375,-0.22676150500774384,-0.16898342967033386,0.3681442141532898
1761315600147131100,4.807131103515625,-0.08781827241182327,-0.161297008395195,1.0157150030136108
1761315600157175300,4.81717529296875,0.018571021035313606,-0.46725159883499146,1.5937551259994507
1761315600167223300,4.827223388671875,0.030067887157201767,-0.9014243483543396,1.9966440200805664
1761315600177270300,4.837270263671875,-0.0268276184797287,-1.2079325914382935,2.1461191177368164
1761315600187318000,4.847318115234375,-0.10293011367321014,-1.2741553783416748,2.025521755218506
1761315600197365200,4.857365234375,-0.15286117792129517,-1.099928617477417,1.686745047569275
1761315600207413200,4.867413330078125,-0.1585821807384491,-0.7143530249595642,1.2172942161560059
1761315600217460200,4.877460205078125,-0.17122794687747955,-0.19345282018184662,0.763918936252594
1761315600227508200,4.88750830078125,-0.18500234186649323,0.37425827980041504,0.3823774755001068
1761315600237555200,4.89755517578125,-0.20847278833389282,0.7999566197395325,0.11178112775087357
1761315600247603200,4.907603271484375,-0.2523409128189087,1.075329065322876,-0.020854149013757706
1761315600257651200,4.917651123046875,-0.29154741764068604,1.154000163078308,-0.053830742835998535
1761315600267698200,4.9276982421875,-0.3700774013996124,0.9940733313560486,-0.08561103790998459
1761315600277746200,4.93774609375,-0.4973205626010895,0.7518801689147949,-0.12949593365192413
1761315600287793200,4.947793212890625,-0.6336398124694824,0.5957419276237488,-0.13099077343940735
1761315600297841400,4.95784130859375,-0.743070662021637,0.5687326788902283,-0.026696858927607536
1761315600307888400,4.967888427734375,-0.7764549851417542,0.5409111976623535,0.16775384545326233
1761315600317936000,4.97793603515625,-0.7654473781585693,0.434556782245636,0.401608943939209
1761315600327983000,4.987983154296875,-0.7558621168136597,0.32708093523979187,0.6426377892494202
1761315600338031400,4.99803125,-0.7231438159942627,0.31181755661964417,0.8333984613418579
1761315600348078300,5.008078369140625,-0.620831310749054,0.3694683313369751,0.9801868200302124
1761315600358126000,5.0181259765625,-0.5195009708404541,0.4829251170158386,1.1016820669174194
1761315600368173000,5.028173095703125,-0.49292314052581787,0.6003372073173523,1.2009133100509644
1761315600378221300,5.03822119140625,-0.5788905024528503,0.6386238932609558,1.3081591129302979
1761315600388268300,5.048268310546875,-0.7654162049293518,0.6494917273521423,1.3966513872146606
1761315600398316000,5.05831591796875,-0.9363384246826172,0.5948500633239746,1.4266114234924316
1761315600408363000,5.068363037109375,-0.9700982570648193,0.283143013715744,1.3054901361465454
1761315600418411300,5.078411376953125,-0.7830500602722168,-0.14053261280059814,0.987692654132843
1761315600428458200,5.088458251953125,-0.4452855885028839,-0.3526928126811981,0.557174563407898
1761315600438506200,5.09850634765625,-0.15635710954666138,-0.6070880889892578,0.04737523943185806
1761315600448553000,5.108552978515625,-0.15745247900485992,-1.1100542545318604,-0.5225521326065063
1761315600458601200,5.118601318359375,-0.39767971634864807,-1.392874002456665,-1.0022867918014526
1761315600468648200,5.128648193359375,-0.748134434223175,-1.3574321269989014,-1.4849439859390259
1761315600478696200,5.1386962890625,-1.0724315643310547,-1.239124059677124,-1.9974461793899536
1761315600488743400,5.148743408203125,-1.032599687576294,-1.094000220298767,-2.3780291080474854
1761315600498791200,5.158791259765625,-0.5585639476776123,-0.7328047156333923,-2.418779134750366
1761315600508838100,5.168838134765625,0.20371903479099274,-0.09480347484350204,-1.873761773109436
1761315600518886100,5.17888623046875,1.1222879886627197,0.2962377965450287,-1.0926803350448608
1761315600528933400,5.188933349609375,1.973974347114563,0.09791990369558334,-0.6966426968574524
1761315600538981000,5.198981201171875,2.4690799713134766,-0.057680606842041016,-0.7207776308059692
1761315600549029000,5.209029052734375,2.4546074867248535,-0.13188399374485016,-0.9980795383453369
1761315600559076400,5.219076416015625,1.8839499950408936,-0.27041152119636536,-1.3857388496398926
1761315600569124000,5.2291240234375,1.0227998495101929,-0.3051740229129791,-1.656773328781128
1761315600579171000,5.239171142578125,0.21091969311237335,-0.27826279401779175,-1.684568166732788
1761315600589219000,5.249218994140625,-0.34992924332618713,-0.18961147964000702,-1.4947007894515991
1761315600599266300,5.259266357421875,-0.6016485691070557,-0.0740092471241951,-1.2199746370315552
1761315600609314300,5.269314208984375,-0.6091451048851013,0.038245655596256256,-0.9412761926651001
1761315600619361300,5.279361328125,-0.4616382122039795,0.10580392926931381,-0.6716835498809814
1761315600629409300,5.2894091796875,-0.24488724768161774,0.1389690637588501,-0.438324898481369
1761315600639456300,5.299456298828125,-0.023024892434477806,0.1530846208333969,-0.25002023577690125
1761315600649504300,5.309504150390625,0.17988747358322144,0.14780543744564056,-0.07776536792516708
1761315600659551200,5.31955126953125,0.33264613151550293,0.09577952325344086,0.09966161102056503
1761315600669599200,5.32959912109375,0.4196377396583557,0.003870105603709817,0.2575330138206482
1761315600679641900,5.339641845703125,0.45274776220321655,-0.07985088974237442,0.3763965368270874
1761315600689690000,5.349690185546875,0.4478592574596405,-0.11537106335163116,0.4770403206348419
1761315600699737000,5.359737060546875,0.4110810160636902,-0.09473023563623428,0.5549934506416321
1761315600709785000,5.36978515625,0.3772394359111786,-0.03518541902303696,0.5872613787651062
1761315600719832000,5.37983203125,0.34880244731903076,-0.0811193510890007,0.5907397270202637
1761315600729880000,5.389880126953125,0.29278820753097534,-0.17530789971351624,0.6154487729072571
1761315600739927000,5.399927001953125,0.22036992013454437,-0.28152355551719666,0.6660930514335632
1761315600749975000,5.40997509765625,0.09277414530515671,-0.4782560467720032,0.7253020405769348
1761315600760022000,5.42002197265625,-0.10821142792701721,-0.8266686201095581,0.7632467746734619
1761315600770070000,5.430070068359375,-0.26190832257270813,-1.4057687520980835,0.7987483143806458
1761315600780117000,5.440116943359375,-0.2463567852973938,-2.008725643157959,0.8165536522865295
1761315600790165000,5.4501650390625,-0.034391261637210846,-2.209249496459961,0.8020517230033875
1761315600800212000,5.4602119140625,0.3020962178707123,-1.920462965965271,0.7252568006515503
1761315600810260000,5.470260009765625,0.44439077377319336,-1.0593301057815552,0.48282498121261597
1761315600820307000,5.480306884765625,0.3954852819442749,-0.8843790888786316,0.1392471045255661
1761315600830355000,5.49035498046875,0.2212703377008438,-0.41479453444480896,0.041425205767154694
1761315600840402000,5.50040185546875,-0.06451241672039032,0.4113350808620453,0.07953796535730362
1761315600850450000,5.510449951171875,-0.518389105796814,0.9068912863731384,0.2082248479127884
1761315600860497000,5.520496826171875,-1.0270723104476929,0.8727138638496399,0.4869757890701294
1761315600870545000,5.530544921875,-1.4334336519241333,0.7226793766021729,0.9376521706581116
1761315600880593200,5.54059326171875,-1.417244791984558,0.47221839427948,1.3277479410171509
1761315600890640100,5.55064013671875,-1.007257103919983,-0.4242548644542694,1.3139435052871704
1761315600900688000,5.56068798828125,-0.4905793070793152,-1.5155104398727417,0.9406785368919373
1761315600910734800,5.57073486328125,-0.02545076422393322,-1.7383594512939453,0.4651288092136383
1761315600920783000,5.580783203125,0.2531915307044983,-1.0912659168243408,-0.17372146248817444
1761315600930830000,5.590830078125,0.2531406581401825,-0.1948978453874588,-1.010191798210144
1761315600940877800,5.6008779296875,-0.03315715491771698,0.9467065930366516,-1.8154031038284302
1761315600950925000,5.610925048828125,-0.517426609992981,2.0191965103149414,-2.5748698711395264
1761315600960973000,5.62097314453125,-0.9736631512641907,2.3637518882751465,-3.2349982261657715
1761315600971020000,5.63102001953125,-1.1544734239578247,2.106694459915161,-3.4233500957489014
1761315600981067800,5.64106787109375,-1.0144068002700806,1.6764881610870361,-3.0788733959198
1761315600991115000,5.651114990234375,-0.5820903182029724,1.5748717784881592,-2.3881678581237793
1761315601001163000,5.6611630859375,-0.02412184700369835,1.3808985948562622,-1.539486289024353
1761315601011210000,5.6712099609375,0.4095209240913391,1.0016354322433472,-0.8451946377754211
1761315601021258000,5.681258056640625,0.6640698909759521,0.5047702193260193,-0.6055389046669006
1761315601031305000,5.691304931640625,0.697633683681488,-0.10259988158941269,-0.7876224517822266
1761315601041353000,5.70135302734375,0.4221315383911133,-0.5079678893089294,-1.2190148830413818
1761315601051400000,5.71139990234375,-0.088614821434021,-0.43055057525634766,-1.61763596534729
1761315601061448200,5.7214482421875,-0.6778416037559509,0.13508059084415436,-1.6480168104171753
1761315601071495200,5.7314951171875,-1.0518215894699097,0.8848709464073181,-1.1905690431594849
1761315601081543000,5.74154296875,-0.966614305973053,1.6190520524978638,-0.32941731810569763
1761315601091590000,5.75158984375,-0.6215929985046387,2.0985445976257324,0.654608964920044
1761315601101638100,5.76163818359375,-0.15291550755500793,1.942503809928894,1.5664266347885132
1761315601111685000,5.77168505859375,0.22599105536937714,1.4800536632537842,2.0727462768554688
1761315601121732900,5.78173291015625,0.3985109031200409,0.855961799621582,2.103374719619751
1761315601131779800,5.79177978515625,0.4870058596134186,0.29205209016799927,1.9326379299163818
1761315601141828000,5.801828125,0.4983517527580261,0.053396113216876984,1.8143138885498047
1761315601151875000,5.811875,0.438774973154068,0.0006340986583381891,1.7180845737457275
1761315601161922800,5.8219228515625,0.4271361529827118,0.1910964548587799,1.679656744003296
1761315601171969800,5.8319697265625,0.45979636907577515,-0.06406980007886887,1.3764867782592773
1761315601182018000,5.84201806640625,0.4185149669647217,-0.6039702892303467,0.6987463235855103
1761315601192065000,5.85206494140625,0.2697547674179077,-0.5985374450683594,-0.003715642262250185
1761315601202113000,5.862113037109375,0.13955895602703094,-0.10658769309520721,-0.3747858703136444
1761315601212160000,5.872159912109375,0.0779041200876236,0.3805857002735138,-0.4690713584423065
1761315601222208000,5.8822080078125,0.0369257926940918,0.7434507012367249,-0.3987622857093811
1761315601232255000,5.8922548828125,-0.02221342734992504,1.0406432151794434,-0.27966174483299255
1761315601242303000,5.902302978515625,-0.10955152660608292,1.2555073499679565,-0.1897483617067337
1761315601252350200,5.91235009765625,-0.19186557829380035,1.3089284896850586,-0.1642211675643921
1761315601262398000,5.92239794921875,-0.23269875347614288,1.2386902570724487,-0.21425104141235352
1761315601272445000,5.93244482421875,-0.24994724988937378,1.1155177354812622,-0.31971675157546997
1761315601282493000,5.942492919921875,-0.2889449894428253,0.868437647819519,-0.38907718658447266
1761315601292541000,5.952541015625,-0.35765400528907776,0.4458176791667938,-0.3147406280040741
1761315601302588000,5.962587890625,-0.45060551166534424,0.05217745155096054,-0.031138744205236435
1761315601312636000,5.972635986328125,-0.5472018122673035,-0.1382228583097458,0.3902830481529236
1761315601322683100,5.98268310546875,-0.642115592956543,-0.1960427463054657,0.7933799028396606
1761315601332731100,5.992731201171875,-0.7467644810676575,-0.18698719143867493,1.0958495140075684
1761315601342777900,6.00277783203125,-0.8391138315200806,-0.1459159255027771,1.264733910560608
1761315601352825900,6.012825927734375,-0.7998420596122742,-0.19097821414470673,1.2218595743179321
1761315601362873000,6.022873046875,-0.6775334477424622,-0.416176438331604,0.9429089426994324
1761315601372921000,6.032921142578125,-0.5955755114555359,-0.9981517195701599,0.5843926072120667
1761315601382968000,6.042968017578125,-0.5017573833465576,-1.522056221961975,0.3390342593193054
1761315601393016000,6.05301611328125,-0.39062580466270447,-1.9456971883773804,0.2035571187734604
1761315601403063000,6.06306298828125,-0.29487717151641846,-1.7643362283706665,0.21921490132808685
1761315601413111000,6.073111083984375,-0.1299433559179306,-1.2048848867416382,0.24607181549072266
1761315601423158000,6.083157958984375,0.04838404431939125,-0.638827919960022,-0.020687168464064598
1761315601433206000,6.0932060546875,0.3626927137374878,-0.6844512820243835,-0.6322714686393738
1761315601443253000,6.1032529296875,0.7243441343307495,-0.4890570342540741,-1.2336835861206055
1761315601453301000,6.113301025390625,0.5682700872421265,-0.12988662719726562,-1.854850172996521
1761315601463348000,6.123347900390625,0.07683459669351578,0.1916932612657547,-2.4784653186798096
1761315601473396000,6.13339599609375,-0.4176401197910309,0.4059933125972748,-2.919583320617676
1761315601483443000,6.14344287109375,-0.6277819275856018,0.6224555969238281,-2.9987411499023438
1761315601493491000,6.153490966796875,-0.4295811951160431,0.8337214589118958,-2.7393033504486084
1761315601503538000,6.163537841796875,0.11051426082849503,0.9114591479301453,-2.2375190258026123
1761315601513586000,6.1735859375,0.6884010434150696,0.6861253380775452,-1.8031421899795532
1761315601523633000,6.1836328125,1.043257713317871,0.08477028459310532,-1.7168395519256592
1761315601533681000,6.193680908203125,0.9786195755004883,-0.6263182163238525,-1.978661060333252
1761315601543728000,6.20372802734375,0.5254235863685608,-1.2313694953918457,-2.218661308288574
1761315601553776000,6.213776123046875,-0.1489870846271515,-1.7652896642684937,-2.129199743270874
1761315601563823000,6.223822998046875,-0.8579655885696411,-2.061044931411743,-1.6517750024795532
1761315601573870800,6.233870849609375,-1.4047892093658447,-2.0971686840057373,-0.9507642388343811
1761315601583918000,6.24391796875,-1.631235957145691,-1.771240234375,-0.04904317483305931
1761315601593966000,6.253966064453125,-1.6149680614471436,-1.4970723390579224,0.8170860409736633
1761315601604013000,6.264012939453125,-1.4560343027114868,-1.4234066009521484,1.4130125045776367
1761315601614060800,6.274060791015625,-1.1270649433135986,-1.394662857055664,1.895596981048584
1761315601624108000,6.28410791015625,-0.7756451368331909,-1.3617067337036133,2.1439924240112305
1761315601634156000,6.294156005859375,-0.48983654379844666,-1.2999869585037231,2.0645740032196045
1761315601644203000,6.304203125,-0.2978322207927704,-1.3705588579177856,1.6433128118515015
1761315601654251000,6.3142509765625,-0.30068445205688477,-1.7012368440628052,0.9542798399925232
1761315601664298000,6.324298095703125,-0.2764771282672882,-1.9353910684585571,0.21801328659057617
1761315601674347300,6.33434716796875,-0.22089935839176178,-1.5392147302627563,-0.5859239101409912
1761315601684394200,6.344394287109375,-0.16568005084991455,-0.650562047958374,-1.3204535245895386
1761315601694442000,6.35444189453125,-0.062126487493515015,0.5596350431442261,-1.8468846082687378
1761315601704489000,6.364489013671875,0.07122810930013657,1.7451071739196777,-2.1616125106811523
1761315601714537200,6.374537109375,0.19831734895706177,2.154444932937622,-1.9819889068603516
1761315601724584200,6.384584228515625,-0.00037044569035060704,2.3233397006988525,-1.677618384361267
1761315601734632000,6.3946318359375,-0.269204318523407,2.203679323196411,-1.2729257345199585
1761315601744679000,6.404678955078125,-0.47666189074516296,2.1359505653381348,-0.8401567339897156
1761315601754727200,6.41472705078125,-0.5320412516593933,2.0272622108459473,-0.3909192979335785
1761315601764775000,6.42477490234375,-0.4454733431339264,1.6825114488601685,0.053463757038116455
1761315601774822000,6.43482177734375,-0.30242615938186646,1.1541115045547485,0.5048096179962158
1761315601784870100,6.4448701171875,-0.20149396359920502,0.6051650047302246,0.9284189343452454
1761315601794917000,6.454917236328125,-0.19294282793998718,0.1625439077615738,1.3136494159698486
1761315601804965000,6.464965087890625,-0.22539690136909485,-0.13699886202812195,1.6585557460784912
1761315601815012000,6.47501220703125,-0.2545148432254791,-0.33975648880004883,1.9641097784042358
1761315601825060000,6.48506005859375,-0.31230196356773376,-0.4943857491016388,2.249907970428467
1761315601835107000,6.495107177734375,-0.41080963611602783,-0.6375980377197266,2.4766101837158203
1761315601845155000,6.505155029296875,-0.5193116068840027,-0.787368655204773,2.6060214042663574
1761315601855202000,6.5152021484375,-0.5697566866874695,-0.8440439105033875,2.59694504737854
1761315601865250000,6.52525,-0.5504442453384399,-0.8666602373123169,2.5927212238311768
1761315601875297000,6.535297119140625,-0.474497526884079,-0.7943482398986816,2.6682772636413574
1761315601885345000,6.545344970703125,-0.3226670026779175,-0.6784772872924805,2.7385754585266113
1761315601895392300,6.555392333984375,-0.17384156584739685,-0.5145378708839417,2.6086249351501465
1761315601905440000,6.56543994140625,-0.08496122807264328,-0.3334709107875824,2.1561660766601562
1761315601915487000,6.575487060546875,0.023445138707756996,-0.1647665798664093,1.5109726190567017
1761315601925535000,6.585534912109375,0.1128876656293869,0.3435403108596802,0.9735771417617798
1761315601935582200,6.595582275390625,0.33791786432266235,0.771307110786438,0.5700973272323608
1761315601945630000,6.6056298828125,0.565022349357605,0.48964905738830566,-0.04741198942065239
1761315601955677000,6.615677001953125,0.6425840258598328,0.10331440716981888,-0.621273934841156
1761315601965725200,6.62572509765625,0.4356071352958679,-0.07355331629514694,-1.1417701244354248
1761315601975772200,6.635772216796875,0.1004033014178276,-0.08755142241716385,-1.6054792404174805
1761315601985820200,6.645820068359375,-0.15664181113243103,0.0642160028219223,-1.7377794981002808
1761315601995867100,6.6558671875,-0.2520173192024231,0.4562032222747803,-1.4822062253952026
1761315602005915100,6.6659150390625,-0.2607966959476471,0.8575924634933472,-1.0193792581558228
1761315602015962000,6.675962158203125,-0.22972747683525085,0.9924916625022888,-0.610894501209259
1761315602026010000,6.686010009765625,-0.15547694265842438,0.8041263222694397,-0.5027363896369934
1761315602036057000,6.69605712890625,-0.0799182653427124,0.46819862723350525,-0.7539960145950317
1761315602046105000,6.70610498046875,-0.030132070183753967,0.08248875290155411,-1.2586727142333984
1761315602056152000,6.716152099609375,-0.06289933621883392,-0.36982837319374084,-1.879593014717102
1761315602066200000,6.726199951171875,-0.20674359798431396,-0.7672455310821533,-2.3963370323181152
1761315602076247000,6.7362470703125,-0.42452067136764526,-0.8698131442070007,-2.6164658069610596
1761315602086295000,6.746294921875,-0.641969621181488,-0.8228390216827393,-2.5762298107147217
1761315602096342000,6.756342041015625,-0.7276565432548523,-0.7112879753112793,-2.3555214405059814
1761315602106390000,6.76639013671875,-0.6311092376708984,-0.4913593530654907,-1.9657398462295532
1761315602116437000,6.77643701171875,-0.37867221236228943,-0.27931660413742065,-1.4580793380737305
1761315602126485000,6.786485107421875,-0.03380616754293442,-0.10863193869590759,-0.8934082388877869
1761315602136532000,6.796531982421875,0.29508304595947266,0.01890631392598152,-0.40520209074020386
1761315602146580000,6.806580078125,0.49086451530456543,0.04424415901303291,-0.06823471188545227
1761315602156627200,6.816627197265625,0.5187568664550781,0.027051057666540146,0.10252557694911957
1761315602166675200,6.82667529296875,0.4373432397842407,-0.06082127243280411,0.0997854471206665
1761315602176722200,6.83672216796875,0.3128122389316559,-0.15655498206615448,-0.011943478137254715
1761315602186770000,6.84677001953125,0.20408175885677338,-0.2001839578151703,-0.14079520106315613
1761315602196817200,6.856817138671875,0.13129836320877075,-0.20637580752372742,-0.22428983449935913
1761315602206865200,6.866865234375,0.1043623611330986,-0.18543563783168793,-0.21622976660728455
1761315602216912100,6.876912109375,0.13655517995357513,-0.11363229155540466,-0.10008372366428375
1761315602226960100,6.886960205078125,0.17367857694625854,-0.027150927111506462,0.11859695613384247
1761315602237007000,6.897007080078125,0.19585418701171875,0.0843428447842598,0.38745051622390747
1761315602247055000,6.90705517578125,0.25422242283821106,0.2654343247413635,0.6691876649856567
1761315602257102000,6.91710205078125,0.30935385823249817,0.5004710555076599,0.9364630579948425
1761315602267150000,6.927150146484375,0.3781302571296692,0.6762136220932007,1.16789710521698
1761315602277197000,6.937197021484375,0.41643476486206055,0.7838497757911682,1.3205041885375977
1761315602287245000,6.9472451171875,0.5267178416252136,0.785128116607666,1.384734869003296
1761315602297292000,6.9572919921875,0.6594879031181335,0.7748786807060242,1.3902246952056885
1761315602307340000,6.967340087890625,0.7128602862358093,0.805156409740448,1.353450894355774
1761315602317387000,6.977386962890625,0.5900446176528931,0.8940386176109314,1.2791296243667603
1761315602327435000,6.98743505859375,0.38283392786979675,0.9748756885528564,1.1959753036499023
1761315602337482000,6.99748193359375,0.19644542038440704,1.0462409257888794,1.1090025901794434
1761315602347530200,7.0075302734375,0.08531302958726883,1.0883992910385132,1.0140070915222168
1761315602357577000,7.017576904296875,0.03647411987185478,1.1016477346420288,0.9084585905075073
1761315602367625000,7.027625,0.028129106387495995,1.113720417022705,0.8118271231651306
1761315602377672200,7.037672119140625,0.053278934210538864,1.0113554000854492,0.7139833569526672
1761315602387720200,7.04772021484375,0.08819350600242615,0.7026159167289734,0.5589799284934998
1761315602397768000,7.057767822265625,0.0921778604388237,0.16194282472133636,0.3170778155326843
1761315602407815000,7.06781494140625,0.0621802844107151,-0.4556831121444702,0.0883847251534462
1761315602417863200,7.07786328125,0.077556312084198,-0.8169541954994202,0.014874819666147232
1761315602427910100,7.08791015625,0.24784575402736664,-0.46056386828422546,0.054131679236888885
1761315602437957000,7.09795703125,0.48080629110336304,-0.05144854262471199,0.16162697970867157
1761315602448004900,7.1080048828125,0.4287194013595581,-0.15778404474258423,-0.020833643153309822
1761315602458052000,7.118052001953125,0.13918079435825348,-0.2642020881175995,-0.43329310417175293
1761315602468100000,7.12810009765625,-0.05160966515541077,-0.1625223308801651,-0.8813683390617371
1761315602478148000,7.138148193359375,-0.0764084905385971,-0.21217457950115204,-1.3111753463745117
1761315602488195000,7.148195068359375,-0.059428438544273376,-0.3377727270126343,-1.6423956155776978
1761315602498243000,7.1582431640625,-0.005834186915308237,-0.25901558995246887,-1.8382333517074585
1761315602508290000,7.1682900390625,0.08465363830327988,-0.08243628591299057,-1.9806832075119019
1761315602518338000,7.178338134765625,0.1421094685792923,-0.024833444505929947,-2.1496098041534424
1761315602528385300,7.18838525390625,0.16600708663463593,-0.08547388762235641,-2.3078269958496094
1761315602538433000,7.19843310546875,0.199605792760849,-0.1928224414587021,-2.4310038089752197
1761315602548480000,7.20847998046875,0.2678189277648926,-0.24034230411052704,-2.4457144737243652
1761315602558528300,7.2185283203125,0.35633307695388794,-0.21179907023906708,-2.311570644378662
1761315602568575200,7.2285751953125,0.4007932245731354,-0.0859479308128357,-2.056817054748535
1761315602578623000,7.238623046875,0.39061063528060913,0.13324859738349915,-1.7115979194641113
1761315602588670000,7.248669921875,0.33789414167404175,0.3936237394809723,-1.3391612768173218
1761315602598718200,7.25871826171875,0.24702176451683044,0.542527437210083,-0.9809998869895935
1761315602608765200,7.26876513671875,0.10635440051555634,0.4455561637878418,-0.635994017124176
1761315602618813000,7.27881298828125,-0.047027163207530975,0.20457737147808075,-0.2883942425251007
1761315602628860000,7.28885986328125,-0.168562114238739,-0.01865118183195591,0.031324367970228195
1761315602638908200,7.298908203125,-0.2028343379497528,-0.17323116958141327,0.27968278527259827
1761315602648955100,7.308955078125,-0.13100434839725494,-0.24429522454738617,0.38910621404647827
1761315602659003100,7.319003173828125,0.03904247283935547,-0.2008470892906189,0.3546198606491089
1761315602669049900,7.3290498046875,0.20730338990688324,-0.1283113658428192,0.3949401378631592
1761315602679097900,7.339097900390625,0.38966068625450134,-0.3021673262119293,0.2936220169067383
1761315602689144800,7.349144775390625,0.5697556138038635,-0.41846808791160583,0.15908099710941315
1761315602699192800,7.35919287109375,0.6891059875488281,-0.37311339378356934,0.03248683735728264
1761315602709239800,7.36923974609375,0.6486895680427551,-0.18552085757255554,-0.13047118484973907
1761315602719287800,7.379287841796875,0.4775487184524536,0.10686972737312317,-0.33848777413368225
1761315602729334800,7.389334716796875,0.2292129397392273,0.4263896644115448,-0.5491049289703369
1761315602739382800,7.3993828125,-0.0734342709183693,0.6112039685249329,-0.6762221455574036
1761315602749430000,7.409429931640625,-0.30835437774658203,0.48034796118736267,-0.6275531053543091
1761315602759477800,7.419477783203125,-0.4416186809539795,0.08631598204374313,-0.4484723210334778
