time,seconds_elapsed,z,y,x
1761334248420039400,0.065039306640625,0,0,0
1761334248438740700,0.08374072265625,-0.6327114105224609,-0.3075532913208008,-0.1420106589794159
1761334248457442300,0.1024423828125,-0.5017375946044922,0.17057323455810547,-0.44352805614471436
1761334248476143600,0.1211435546875,-0.041094303131103516,0.7318000793457031,-0.6010043621063232
1761334248494845000,0.139844970703125,-0.16674327850341797,0.6621150970458984,-0.49508488178253174
1761334248513546500,0.15854638671875,0.5032439231872559,0.3373703956604004,-0.2307499647140503
1761334248532247800,0.177247802734375,0.7876768112182617,-0.7217645645141602,0.1392040252685547
1761334248550949400,0.195949462890625,1.3430051803588867,-1.0338053703308105,0.45535385608673096
1761334248569650700,0.214650634765625,2.1784725189208984,-1.192337989807129,0.8764612674713135
1761334248588352000,0.23335205078125,1.1670408248901367,-0.8431823253631592,1.3929933309555054
1761334248607053300,0.25205322265625,0.040940284729003906,-0.5722167491912842,0.8937641382217407
1761334248625755000,0.2707548828125,0.29917430877685547,0.006968498229980469,0.6038618087768555
1761334248644456200,0.289456298828125,0.6716880798339844,1.198885202407837,-0.06456130743026733
1761334248663157500,0.308157470703125,0.7235040664672852,1.2200746536254883,-1.1973319053649902
1761334248681858800,0.32685888671875,-2.2286319732666016,2.6358752250671387,-6.49011754989624
1761334248700560400,0.345560302734375,-3.288125991821289,1.2584834098815918,-5.243077278137207
1761334248719261700,0.36426171875,-3.005077362060547,-1.2030394077301025,-0.48211050033569336
1761334248737963300,0.38296337890625,-3.523592948913574,-1.2866301536560059,0.12695980072021484
1761334248756664600,0.40166455078125,-1.924008846282959,-0.6554105281829834,-0.091552734375
1761334248775366000,0.420365966796875,-0.1291522979736328,-1.2878708839416504,-1.9393857717514038
1761334248794067500,0.4390673828125,-0.07070541381835938,-1.407954216003418,-0.313836932182312
1761334248812768800,0.457768798828125,-0.6995358467102051,-2.7102766036987305,1.5623705387115479
1761334248831470000,0.476469970703125,-1.4027137756347656,-3.599501132965088,1.9580522775650024
1761334248850171600,0.495171630859375,-0.7771015167236328,0.176924467086792,-0.7140640616416931
1761334248868873000,0.513873046875,3.310582160949707,2.3064661026000977,-0.12556703388690948
1761334248887574300,0.53257421875,8.266091346740723,3.838223695755005,0.7025464177131653
1761334248906275800,0.55127587890625,11.30820083618164,5.480723857879639,0.2071405053138733
1761334248924977200,0.56997705078125,14.381628036499023,5.596609115600586,3.1648497581481934
1761334248943678500,0.588678466796875,16.10614776611328,6.221710681915283,6.340602397918701
1761334248962379800,0.6073798828125,16.390140533447266,6.096343040466309,5.837102890014648
1761334248981081300,0.626081298828125,12.264766693115234,4.174002647399902,4.606642246246338
1761334248999782700,0.64478271484375,5.106132507324219,3.2636942863464355,2.9914517402648926
1761334249018484200,0.663484130859375,-3.1567068099975586,0.8291468620300293,1.2493705749511719
1761334249037185500,0.682185546875,-8.003735542297363,-1.5478944778442383,-1.188043475151062
1761334249055886800,0.700886962890625,-10.068490982055664,-3.766625165939331,-3.537228584289551
1761334249074588400,0.71958837890625,-10.507566452026367,-5.46286153793335,-3.1239101886749268
1761334249093289700,0.738289794921875,-9.704550743103027,-6.37212610244751,-3.2517642974853516
1761334249111991000,0.756990966796875,-11.345088005065918,-7.184535503387451,-3.9210643768310547
1761334249130692600,0.775692626953125,-11.916608810424805,-6.5107011795043945,-4.432589054107666
1761334249149394000,0.794393798828125,-12.742501258850098,-6.1928582191467285,-3.7847962379455566
1761334249168095200,0.81309521484375,-12.841351509094238,-5.953371047973633,-3.1070046424865723
1761334249186796500,0.831796630859375,-11.2702054977417,-5.230587005615234,-1.7720773220062256
1761334249205498000,0.850498046875,-9.068236351013184,-4.709544658660889,-0.15926510095596313
1761334249224199400,0.869199462890625,-6.337549209594727,-4.0698699951171875,1.0478541851043701
1761334249242900700,0.887900634765625,-3.0877203941345215,-3.7035911083221436,1.2232568264007568
1761334249261602300,0.906602294921875,2.3239707946777344,-2.5939059257507324,1.2736077308654785
1761334249280303600,0.9253037109375,7.0579729080200195,-0.7772424221038818,2.6881096363067627
1761334249299005200,0.944005126953125,10.263471603393555,3.427544116973877,1.217181921005249
1761334249317706500,0.96270654296875,10.608502388000488,8.034863471984863,-1.151146411895752
1761334249336407800,0.98140771484375,14.949121475219727,9.255813598632812,-1.5024774074554443
1761334249355109400,1.000109375,21.568553924560547,8.601972579956055,0.03991430997848511
1761334249373810700,1.018810791015625,23.219337463378906,7.629769325256348,2.44699764251709
1761334249392512000,1.037511962890625,21.694597244262695,7.578636169433594,6.587595462799072
1761334249411213300,1.05621337890625,14.840813636779785,6.767373085021973,7.512096881866455
1761334249429915000,1.074914794921875,5.118188858032227,4.057915687561035,3.74520206451416
1761334249448616200,1.0936162109375,-1.863180160522461,0.5722565650939941,0.45148396492004395
1761334249467317500,1.1123173828125,-5.996370315551758,-2.9138171672821045,-1.3899074792861938
1761334249486018800,1.131018798828125,-8.551118850708008,-5.5247392654418945,-2.427004814147949
1761334249504720400,1.149720458984375,-10.668506622314453,-6.75678825378418,-3.3275818824768066
1761334249523421700,1.168421630859375,-12.788960456848145,-7.4929518699646,-3.987544059753418
1761334249542123300,1.187123291015625,-14.860823631286621,-7.526537895202637,-5.065619468688965
1761334249560824600,1.205824462890625,-16.02627182006836,-7.310024261474609,-4.988142967224121
1761334249579526000,1.22452587890625,-15.667853355407715,-6.720978260040283,-4.420774936676025
1761334249598227500,1.2432275390625,-13.7091646194458,-6.307338237762451,-3.289658308029175
1761334249616928800,1.2619287109375,-10.39135456085205,-5.809506416320801,-1.5291677713394165
1761334249635630000,1.280630126953125,-6.985015392303467,-5.1890411376953125,0.3597884178161621
1761334249654331600,1.29933154296875,-4.584129810333252,-4.66888427734375,1.2419812679290771
1761334249673033000,1.318032958984375,-1.5940971374511719,-3.9873204231262207,1.9078513383865356
1761334249691734300,1.336734375,1.511662483215332,-2.3374757766723633,2.3309192657470703
1761334249710435800,1.355435791015625,5.875367164611816,0.3508591651916504,1.3833181858062744
1761334249729137200,1.37413720703125,10.671538352966309,3.9097740650177,-0.45595887303352356
1761334249747838500,1.39283837890625,13.023249626159668,8.564785957336426,-1.5947797298431396
1761334249766539800,1.411539794921875,16.179683685302734,10.721451759338379,-0.46320176124572754
1761334249785241300,1.430241455078125,20.083070755004883,11.092036247253418,0.4691987633705139
1761334249803942700,1.448942626953125,23.246458053588867,10.04228687286377,4.09744930267334
1761334249822644000,1.46764404296875,24.369583129882812,9.602621078491211,10.575848579406738
1761334249841345500,1.486345458984375,14.718506813049316,7.210935115814209,7.52672004699707
1761334249860046800,1.505046875,4.125552177429199,3.5152297019958496,3.4540019035339355
1761334249878748200,1.523748046875,-3.1863794326782227,-0.7307043075561523,-0.12495338916778564
1761334249897449700,1.54244970703125,-8.071313858032227,-4.666233539581299,-2.561335563659668
1761334249916151000,1.561151123046875,-10.458724975585938,-7.39879035949707,-3.3382182121276855
1761334249934852600,1.5798525390625,-12.680716514587402,-8.435544967651367,-3.449883222579956
1761334249953554000,1.598553955078125,-15.520904541015625,-8.825248718261719,-4.108248233795166
1761334249972255200,1.617255126953125,-17.18883514404297,-8.538063049316406,-4.921535491943359
1761334249990956500,1.63595654296875,-16.869571685791016,-7.896679401397705,-4.812928676605225
1761334250009658000,1.654658203125,-13.988622665405273,-7.290379524230957,-4.1190690994262695
1761334250028359400,1.673359375,-9.632158279418945,-6.326674938201904,-2.1057708263397217
1761334250047060700,1.692060791015625,-5.894021034240723,-5.171069622039795,0.038982510566711426
1761334250065762000,1.710761962890625,-3.5751161575317383,-4.042924404144287,1.3104921579360962
1761334250084463600,1.729463623046875,-3.0981130599975586,-3.124816417694092,1.7956089973449707
1761334250103165000,1.7481650390625,-3.0568113327026367,-2.305734395980835,1.1803102493286133
1761334250121866200,1.7668662109375,-1.3443145751953125,-1.6453123092651367,0.8009443283081055
1761334250140567800,1.78556787109375,4.338269233703613,-0.018941640853881836,1.112788200378418
1761334250159269000,1.80426904296875,11.337960243225098,3.630370855331421,0.6265791654586792
1761334250177970400,1.822970458984375,14.145827293395996,7.324036598205566,0.08745312690734863
1761334250196672000,1.841672119140625,11.448432922363281,10.407411575317383,-3.1731934547424316
1761334250215373300,1.860373291015625,9.997907638549805,12.156295776367188,-4.898384094238281
1761334250234074600,1.87907470703125,14.548872947692871,12.044857025146484,-2.051192045211792
1761334250252776200,1.897776123046875,26.127071380615234,8.314952850341797,9.247360229492188
1761334250271477500,1.9164775390625,24.86357879638672,5.0013017654418945,10.149972915649414
1761334250290178800,1.9351787109375,12.146488189697266,2.8385062217712402,5.030032157897949
1761334250308880400,1.95388037109375,1.5373859405517578,0.30750131607055664,1.457698106765747
1761334250327581700,1.972581787109375,-5.195865154266357,-3.215604543685913,-0.4983750879764557
1761334250346283000,1.991282958984375,-10.037662506103516,-6.0427985191345215,-2.08223032951355
1761334250364984600,2.009984619140625,-13.418471336364746,-7.484640598297119,-2.8307595252990723
1761334250383686000,2.028685791015625,-15.543664932250977,-7.733154296875,-2.6455163955688477
1761334250402387200,2.04738720703125,-16.93785858154297,-7.539708137512207,-2.9336869716644287
1761334250421088500,2.066088623046875,-17.17450523376465,-7.192136287689209,-3.3894922733306885
1761334250439790000,2.0847900390625,-15.17973804473877,-6.808234214782715,-3.256108283996582
1761334250458491400,2.103491455078125,-11.502138137817383,-6.428030967712402,-2.2392399311065674
1761334250477192700,2.122192626953125,-7.484689235687256,-5.689083576202393,-0.3635405898094177
1761334250495894300,2.140894287109375,-4.361937046051025,-4.779090881347656,0.9407960772514343
1761334250514595600,2.159595703125,-3.733978271484375,-3.876431703567505,1.8307876586914062
1761334250533297000,2.178296875,-4.393662452697754,-2.9113662242889404,1.3155040740966797
1761334250551998500,2.19699853515625,-4.086239814758301,-2.139470100402832,0.45090949535369873
1761334250570699800,2.21569970703125,0.046240806579589844,-1.4132685661315918,0.4651212692260742
1761334250589401000,2.234401123046875,7.637653350830078,0.8566207885742188,2.3406906127929688
1761334250608102700,2.2531025390625,14.185781478881836,4.740434169769287,1.173501968383789
1761334250626804000,2.271803955078125,15.663223266601562,10.019277572631836,-2.2884960174560547
1761334250645505300,2.29050537109375,13.67407512664795,14.323015213012695,-2.981041669845581
1761334250664206800,2.309206787109375,11.466055870056152,15.200051307678223,0.5705947875976562
1761334250682908200,2.327908203125,16.4583740234375,11.873170852661133,9.262670516967773
1761334250701609500,2.346609375,15.65272331237793,8.102720260620117,9.299955368041992
1761334250720311000,2.36531103515625,9.210886001586914,5.38015079498291,4.1698713302612305
1761334250739012400,2.384012451171875,2.010608673095703,2.304473876953125,2.822618007659912
1761334250757713700,2.402713623046875,-2.001678466796875,-1.5640764236450195,0.9638855457305908
1761334250776415000,2.4214150390625,-5.048476219177246,-5.017851829528809,-2.1144185066223145
1761334250795116500,2.440116455078125,-9.056901931762695,-6.4070048332214355,-4.196229934692383
1761334250813817900,2.45881787109375,-12.277425765991211,-6.8681535720825195,-5.02343225479126
1761334250832519200,2.477519287109375,-13.71008586883545,-7.094808578491211,-5.0471649169921875
1761334250851220700,2.496220703125,-13.548175811767578,-7.047511100769043,-4.516343116760254
1761334250869922000,2.514922119140625,-11.936294555664062,-7.197553634643555,-3.5100009441375732
1761334250888623400,2.533623291015625,-10.01870346069336,-7.177290439605713,-2.056009531021118
1761334250907324700,2.55232470703125,-8.2623929977417,-6.801144123077393,-0.6159785985946655
1761334250926026200,2.571026123046875,-7.160264492034912,-6.074751377105713,0.13450753688812256
1761334250944727600,2.5897275390625,-7.069307327270508,-5.098780632019043,0.36844706535339355
1761334250963428900,2.608428955078125,-6.847502708435059,-4.10173225402832,0.10554313659667969
1761334250982130400,2.62713037109375,-4.889013767242432,-3.0719945430755615,-0.1541767120361328
1761334251000831700,2.645831787109375,-0.5681595802307129,-1.8394496440887451,0.7558010816574097
1761334251019533000,2.664532958984375,6.286688804626465,0.47965574264526367,2.081907272338867
1761334251038234600,2.683234619140625,10.78506088256836,3.5820674896240234,1.1944864988327026
1761334251056936000,2.70193603515625,10.495361328125,7.006910800933838,-2.454763412475586
1761334251075637200,2.72063720703125,10.831416130065918,10.455024719238281,-4.539311408996582
1761334251094338800,2.7393388671875,17.635385513305664,13.208279609680176,-3.738225221633911
1761334251113040100,2.7580400390625,26.729639053344727,10.550983428955078,5.974431037902832
1761334251131741400,2.776741455078125,28.23236083984375,8.192461013793945,12.899750709533691
1761334251150443000,2.795443115234375,14.642256736755371,7.440706253051758,9.15886116027832
1761334251169144300,2.814144287109375,3.6553382873535156,4.644888401031494,6.377453804016113
1761334251187845600,2.832845703125,-2.3530755043029785,0.3639841079711914,2.2425222396850586
1761334251206547000,2.851546875,-6.597564697265625,-3.5992043018341064,-2.027970552444458
1761334251225248500,2.87024853515625,-9.070230484008789,-6.666940689086914,-4.382488250732422
1761334251243949800,2.88894970703125,-11.637721061706543,-7.834883213043213,-4.919041156768799
1761334251262651100,2.907651123046875,-14.464462280273438,-8.124155044555664,-5.273990631103516
1761334251281352700,2.926352783203125,-16.012670516967773,-8.202554702758789,-5.363077640533447
1761334251300054000,2.945053955078125,-15.605183601379395,-7.95654296875,-5.120246887207031
1761334251318755300,2.96375537109375,-13.592939376831055,-7.5731635093688965,-4.804014205932617
1761334251337456600,2.98245654296875,-10.778793334960938,-7.0724873542785645,-3.822388172149658
1761334251356158200,3.001158203125,-7.856989860534668,-6.170657157897949,-1.978665828704834
1761334251374859500,3.019859619140625,-5.0705413818359375,-5.310176372528076,-0.09824275970458984
1761334251393560800,3.038560791015625,-3.167414665222168,-4.8498663902282715,1.4642751216888428
1761334251412262400,3.057262451171875,-1.2584114074707031,-3.6643319129943848,2.043302536010742
1761334251430963700,3.075963623046875,1.8001155853271484,-2.5943641662597656,2.950347900390625
1761334251449665000,3.0946650390625,6.149350166320801,0.31377410888671875,3.5580978393554688
1761334251468366300,3.113366455078125,8.995887756347656,4.099600791931152,1.1254420280456543
1761334251487068000,3.13206787109375,8.86786937713623,10.156094551086426,-1.9728764295578003
1761334251505769200,3.150769287109375,9.555610656738281,14.499656677246094,-2.168795347213745
1761334251524470500,3.169470458984375,12.256448745727539,14.929749488830566,-0.6034815311431885
1761334251543172000,3.188172119140625,14.4588041305542,11.870664596557617,1.950320839881897
1761334251561873400,3.206873291015625,20.506118774414062,7.516989707946777,5.868796348571777
1761334251580575000,3.225574951171875,18.926105499267578,4.372247695922852,5.907372951507568
1761334251599276300,3.2442763671875,9.107993125915527,1.9783282279968262,2.752626657485962
1761334251617977600,3.2629775390625,0.21864986419677734,-0.29659080505371094,1.3483400344848633
1761334251636679200,3.28167919921875,-6.299678802490234,-2.9645133018493652,-0.08000016212463379
1761334251655380500,3.30038037109375,-9.562373161315918,-5.582880973815918,-1.8566138744354248
1761334251674081800,3.319081787109375,-11.08600902557373,-6.772092819213867,-2.986610174179077
1761334251692783000,3.337783203125,-12.406316757202148,-6.949565410614014,-3.696202278137207
1761334251711484700,3.356484619140625,-13.360288619995117,-6.481233596801758,-3.5855236053466797
1761334251730186000,3.37518603515625,-13.65006160736084,-6.416265487670898,-3.4929263591766357
1761334251748887300,3.39388720703125,-12.482739448547363,-6.519256591796875,-3.442328453063965
1761334251767588600,3.412588623046875,-10.069475173950195,-6.409246444702148,-2.419240951538086
1761334251786290200,3.431290283203125,-8.054678916931152,-6.353943824768066,-0.986993670463562
1761334251804991500,3.449991455078125,-6.065263271331787,-5.83554220199585,-0.01945030689239502
1761334251823692800,3.46869287109375,-4.523614883422852,-5.2572431564331055,1.5006541013717651
1761334251842394400,3.487394287109375,-4.031303405761719,-4.111283779144287,2.0094614028930664
1761334251861095700,3.506095703125,-2.054971218109131,-2.6664621829986572,1.9793000221252441
1761334251879797000,3.524796875,3.2162561416625977,-0.2447681427001953,2.030869483947754
1761334251898498300,3.543498291015625,7.903764724731445,3.175778865814209,1.9674980640411377
1761334251917200000,3.562199951171875,9.467305183410645,7.5488457679748535,-0.08551740646362305
1761334251935901200,3.580901123046875,11.254118919372559,11.462980270385742,-1.2212332487106323
1761334251954602500,3.5996025390625,13.302176475524902,13.288185119628906,-1.1459908485412598
1761334251973304000,3.618303955078125,14.681327819824219,13.197395324707031,-0.5510954856872559
1761334251992005400,3.63700537109375,22.494861602783203,9.248506546020508,7.170098304748535
1761334252010706700,3.655706787109375,23.94875144958496,6.082003116607666,10.907318115234375
1761334252029408300,3.674408203125,12.849235534667969,4.553592205047607,6.754769325256348
1761334252048109600,3.693109619140625,2.193277359008789,1.585831642150879,2.232252359390259
1761334252066811000,3.711810791015625,-5.082275390625,-1.9567065238952637,-0.7933359146118164
1761334252085512400,3.730512451171875,-10.029114723205566,-5.0315351486206055,-3.4982972145080566
1761334252104213800,3.7492138671875,-12.102954864501953,-7.165098667144775,-4.696258068084717
1761334252122915000,3.7679150390625,-13.997420310974121,-7.917718410491943,-4.733763694763184
1761334252141616400,3.786616455078125,-15.344672203063965,-7.833559513092041,-4.605776786804199
1761334252160318000,3.80531787109375,-15.373366355895996,-7.678554058074951,-4.721225738525391
1761334252179019300,3.824019287109375,-13.469945907592773,-7.460921287536621,-4.559403419494629
1761334252197720800,3.842720947265625,-10.304264068603516,-6.781406402587891,-3.225480556488037
1761334252216422100,3.861422119140625,-7.236832141876221,-5.980281829833984,-1.2750247716903687
1761334252235123500,3.88012353515625,-4.791269302368164,-4.9035820960998535,0.857154130935669
1761334252253824800,3.89882470703125,-3.949085235595703,-3.8765366077423096,2.1474578380584717
1761334252272526300,3.9175263671875,-4.224398612976074,-3.165342092514038,2.3889737129211426
1761334252291227600,3.9362275390625,-3.3695640563964844,-2.310760021209717,1.9954322576522827
1761334252309929000,3.954928955078125,-0.6992201805114746,-1.0020980834960938,1.57913339138031
1761334252328630500,3.973630615234375,5.117452621459961,1.7338709831237793,1.1227755546569824
1761334252347331800,3.992331787109375,12.314465522766113,5.840385913848877,0.9887588024139404
1761334252366033200,4.011033203125,12.816039085388184,9.880590438842773,-1.36018705368042
1761334252384734500,4.029734375,10.541284561157227,12.346693992614746,-2.9792182445526123
1761334252403436000,4.04843603515625,9.344850540161133,14.173734664916992,-3.306443691253662
1761334252422137300,4.067137451171875,15.515631675720215,10.850276947021484,3.72304105758667
1761334252440838700,4.085838623046875,27.155189514160156,5.086674213409424,10.866937637329102
1761334252459540000,4.1045400390625,20.391767501831055,2.465151309967041,7.910642623901367
1761334252478241500,4.123241455078125,7.360937118530273,0.9432272911071777,2.7514140605926514
1761334252496942800,4.14194287109375,-1.5633440017700195,-1.3318805694580078,0.15635275840759277
1761334252515644200,4.16064404296875,-7.821503639221191,-4.343254089355469,-0.8225123882293701
1761334252534345700,4.179345703125,-12.408536911010742,-6.644502639770508,-2.791809320449829
1761334252553047000,4.198047119140625,-14.932737350463867,-7.410799026489258,-4.314438343048096
1761334252571748400,4.216748291015625,-15.727920532226562,-7.371570587158203,-4.6381449699401855
1761334252590449700,4.23544970703125,-15.30225658416748,-7.089972019195557,-4.359261512756348
1761334252609151200,4.254151123046875,-12.915227890014648,-7.075788974761963,-4.229538917541504
1761334252627852500,4.2728525390625,-9.630236625671387,-6.899238586425781,-3.2597250938415527
1761334252646553900,4.291553955078125,-6.661961555480957,-6.147756576538086,-1.543182134628296
1761334252665255400,4.31025537109375,-4.940917491912842,-5.38987398147583,0.009533047676086426
1761334252683956700,4.328956787109375,-4.5714240074157715,-4.964639663696289,0.5556545257568359
1761334252702658000,4.347657958984375,-4.352649688720703,-4.932984352111816,0.6967014074325562
1761334252721359600,4.366359619140625,-3.8487701416015625,-4.661156177520752,0.2161952257156372
1761334252740061000,4.38506103515625,-2.018589973449707,-3.8748631477355957,0.28627610206604004
1761334252758762200,4.40376220703125,2.2734832763671875,-1.3577799797058105,0.9517632722854614
1761334252777463800,4.4224638671875,6.270493984222412,3.385956287384033,0.6908512115478516
1761334252796165000,4.4411650390625,8.808056831359863,9.367169380187988,-1.1907424926757812
1761334252814866400,4.459866455078125,8.829843521118164,14.203369140625,-3.5255589485168457
1761334252833568000,4.478568115234375,9.745686531066895,15.908073425292969,-3.4079360961914062
1761334252852269300,4.497269287109375,17.317102432250977,11.799187660217285,3.3222973346710205
1761334252870970600,4.515970703125,30.786787033081055,6.1535844802856445,9.797673225402832
1761334252889672200,4.534672119140625,22.188793182373047,5.484339714050293,10.175622940063477
1761334252908373500,4.55337353515625,5.633390426635742,4.421851634979248,5.244174003601074
1761334252927074800,4.57207470703125,-4.180507183074951,1.455498218536377,2.3643431663513184
1761334252945776000,4.590776123046875,-7.401986598968506,-3.0696938037872314,0.06699299812316895
1761334252964477700,4.609477783203125,-7.61896276473999,-6.090939998626709,-3.467127799987793
1761334252983179000,4.628178955078125,-10.06307601928711,-6.501580715179443,-5.332174777984619
1761334253001880300,4.64688037109375,-13.000763893127441,-6.323076248168945,-6.332513332366943
1761334253020581600,4.66558154296875,-13.877748489379883,-6.449090003967285,-5.706030368804932
1761334253039283200,4.684283203125,-11.884015083312988,-6.708547592163086,-5.128842353820801
1761334253057984500,4.702984619140625,-9.004725456237793,-6.950267791748047,-4.005167484283447
1761334253076685800,4.721685791015625,-6.758023262023926,-6.562048435211182,-2.1449389457702637
1761334253095387400,4.740387451171875,-5.527895927429199,-5.4654765129089355,0.045082807540893555
1761334253114088700,4.759088623046875,-5.082983016967773,-4.577425956726074,0.6698887348175049
1761334253132790000,4.7777900390625,-5.18206262588501,-4.148911952972412,0.08443737030029297
1761334253151491300,4.7964912109375,-4.924411773681641,-3.8515684604644775,0.002516031265258789
1761334253170193000,4.81519287109375,-4.132747650146484,-3.2139220237731934,0.18546557426452637
1761334253188894200,4.833894287109375,-2.0322389602661133,-1.8579018115997314,-0.11629772186279297
1761334253207595500,4.852595458984375,2.269580364227295,1.4183697700500488,-0.5716451406478882
1761334253226297000,4.871297119140625,5.646825313568115,7.164571762084961,-2.1005778312683105
1761334253244998400,4.889998291015625,8.290725708007812,13.172480583190918,-4.44716215133667
1761334253263699700,4.90869970703125,10.669567108154297,16.139179229736328,-2.387320041656494
1761334253282401300,4.9274013671875,10.630929946899414,13.719289779663086,2.022675037384033
1761334253301102600,4.9461025390625,20.672311782836914,6.222726821899414,8.939864158630371
1761334253319804000,4.964803955078125,27.622121810913086,3.674246311187744,10.158241271972656
1761334253338505500,4.98350537109375,17.7921199798584,5.6578049659729,7.219167709350586
1761334253357206800,5.002206787109375,5.577661514282227,4.071625709533691,2.058776378631592
1761334253375908000,5.020908203125,-1.5720977783203125,0.8659591674804688,1.5513808727264404
1761334253394609400,5.039609375,-7.548233985900879,-2.4315500259399414,1.5423650741577148
1761334253413311000,5.05831103515625,-11.897412300109863,-5.469691753387451,-1.4964416027069092
1761334253432012300,5.07701220703125,-13.662878036499023,-6.5362958908081055,-4.402989864349365
1761334253450713600,5.095713623046875,-14.434229850769043,-6.727499961853027,-5.676723003387451
1761334253469415000,5.114414794921875,-14.258838653564453,-6.67661190032959,-5.066995143890381
1761334253488116500,5.133116455078125,-12.877426147460938,-7.010679244995117,-4.042567729949951
1761334253506817800,5.15181787109375,-10.670929908752441,-7.172922611236572,-2.8189592361450195
1761334253525519400,5.170519287109375,-8.247844696044922,-6.515472412109375,-0.7387373447418213
1761334253544220700,5.189220703125,-7.019752502441406,-5.289724826812744,1.2939518690109253
1761334253562922000,5.207921875,-6.928735733032227,-4.36680793762207,1.6739850044250488
1761334253581623300,5.226623291015625,-6.212396144866943,-3.805633783340454,1.1940335035324097
1761334253600324900,5.245324951171875,-3.5260143280029297,-3.0896620750427246,0.41644763946533203
1761334253619026200,5.264026123046875,1.6299200057983398,-2.3953704833984375,0.1837444305419922
1761334253637727500,5.2827275390625,7.755082130432129,0.27258777618408203,0.8068075180053711
1761334253656429000,5.301428955078125,11.259846687316895,5.277288436889648,-0.7257789969444275
1761334253675130400,5.32013037109375,9.695456504821777,11.129475593566895,-3.6252975463867188
1761334253693831700,5.338831787109375,10.966301918029785,13.898552894592285,-1.9732643365859985
1761334253712533000,5.357532958984375,13.5233154296875,12.768486022949219,1.6861960887908936
1761334253731234600,5.376234619140625,19.809436798095703,8.533621788024902,4.395333290100098
1761334253749935900,5.394935791015625,25.171871185302734,5.492663860321045,8.923734664916992
1761334253768637200,5.41363720703125,17.82149887084961,4.883087635040283,8.749065399169922
1761334253787338800,5.4323388671875,5.685951232910156,2.2186880111694336,3.1857259273529053
1761334253806040000,5.4510400390625,-4.049167633056641,-0.7967157363891602,1.3658168315887451
1761334253824741400,5.469741455078125,-10.70102310180664,-4.088669300079346,-0.5845921039581299
1761334253843442700,5.488442626953125,-14.200651168823242,-6.5157670974731445,-3.4611334800720215
1761334253862144300,5.507144287109375,-15.441715240478516,-7.176087856292725,-5.140413761138916
1761334253880845600,5.525845458984375,-15.805323600769043,-6.931366920471191,-5.21085262298584
1761334253899547000,5.544546875,-15.194875717163086,-6.754234313964844,-4.370882034301758
1761334253918248400,5.56324853515625,-13.386610984802246,-6.840210914611816,-3.488166093826294
1761334253936949800,5.58194970703125,-10.554266929626465,-6.644744873046875,-2.3087425231933594
1761334253955651000,5.600651123046875,-7.289227485656738,-5.866055488586426,-0.7817292213439941
1761334253974352400,5.619352294921875,-5.456086158752441,-4.690671920776367,0.703624963760376
1761334253993054000,5.638053955078125,-5.564261436462402,-3.765124797821045,0.416629433631897
1761334254011755300,5.65675537109375,-5.340838432312012,-3.353567600250244,0.5006388425827026
1761334254030456600,5.67545654296875,-3.9608192443847656,-2.861619472503662,1.4875694513320923
1761334254049158100,5.694158203125,0.5167779922485352,-1.5396041870117188,1.446150779724121
1761334254067859500,5.712859375,6.272120475769043,-0.05161714553833008,1.890815258026123
1761334254086560800,5.731560791015625,8.233155250549316,3.4833602905273438,-1.3001606464385986
1761334254105262300,5.750262451171875,6.515772819519043,9.248512268066406,-6.7270588874816895
1761334254123963600,5.768963623046875,11.713348388671875,11.34166145324707,-2.5526604652404785
1761334254142665000,5.7876650390625,22.72128677368164,9.140045166015625,4.805610656738281
1761334254161366500,5.806366455078125,26.398983001708984,6.333835124969482,7.1597113609313965
1761334254180067800,5.82506787109375,24.39923858642578,7.350295543670654,7.739975452423096
1761334254198769200,5.84376904296875,16.935728073120117,6.5598859786987305,8.457234382629395
1761334254217470700,5.862470703125,5.048569679260254,3.842430591583252,3.7203710079193115
1761334254236172000,5.881172119140625,-5.357000827789307,-0.02477264404296875,0.5460282564163208
1761334254254873300,5.899873291015625,-10.948539733886719,-3.090287208557129,-2.1965503692626953
1761334254273574700,5.91857470703125,-12.63859748840332,-5.166275978088379,-4.352427959442139
1761334254292276200,5.937276123046875,-13.829139709472656,-6.073737144470215,-4.701181411743164
1761334254310977500,5.9559775390625,-14.654092788696289,-6.15606689453125,-4.489440441131592
1761334254329678800,5.974678955078125,-14.85019588470459,-6.203286647796631,-3.5792059898376465
1761334254348380400,5.99338037109375,-13.479150772094727,-5.8349609375,-2.3357596397399902
1761334254367081700,6.012081787109375,-10.686624526977539,-5.727538585662842,-0.3214319944381714
1761334254385783000,6.030782958984375,-7.366586208343506,-5.21453857421875,1.424713373184204
1761334254404484400,6.049484375,-5.9517998695373535,-4.530470848083496,2.249817371368408
1761334254423186000,6.06818603515625,-6.588387489318848,-3.9591307640075684,1.806300163269043
1761334254441887200,6.08688720703125,-7.307491779327393,-3.3385300636291504,0.463509202003479
1761334254460588500,6.105588623046875,-6.85499382019043,-3.2231056690216064,-0.6093554496765137
1761334254479290000,6.1242900390625,-4.724523544311523,-3.305398941040039,-0.9502876400947571
1761334254497991400,6.142991455078125,0.22048664093017578,-1.6048974990844727,-1.262059211730957
1761334254516692700,6.161692626953125,6.097655296325684,3.0855205059051514,-0.9970066547393799
1761334254535394000,6.18039404296875,11.589871406555176,7.693086624145508,-0.5645604133605957
1761334254554095600,6.199095703125,17.952869415283203,10.077720642089844,2.533799409866333
1761334254572797000,6.217796875,26.291955947875977,10.669533729553223,5.756861686706543
1761334254591498200,6.236498291015625,36.6563720703125,8.12751579284668,11.814441680908203
1761334254610200300,6.255200439453125,29.17858123779297,8.605570793151855,11.045172691345215
1761334254628901000,6.273901123046875,11.082208633422852,7.637126922607422,6.205677032470703
1761334254647602400,6.2926025390625,0.2724161148071289,3.4534683227539062,1.358154296875
1761334254666303700,6.3113037109375,-4.229162216186523,-1.6744627952575684,-1.8131251335144043
1761334254685005300,6.33000537109375,-7.342233657836914,-5.62216329574585,-4.395114898681641
1761334254703706600,6.34870654296875,-10.944049835205078,-7.323146343231201,-5.6997480392456055
1761334254722408000,6.367407958984375,-14.705326080322266,-7.458951473236084,-6.099799633026123
1761334254741109500,6.386109619140625,-16.648942947387695,-6.994702339172363,-6.346921443939209
1761334254759810800,6.404810791015625,-15.897445678710938,-6.818880558013916,-5.531277656555176
1761334254778512100,6.42351220703125,-13.05646800994873,-6.601493835449219,-4.4805803298950195
1761334254797213700,6.442213623046875,-10.143876075744629,-5.997653961181641,-2.1824593544006348
1761334254815915000,6.4609150390625,-7.604824066162109,-4.9849371910095215,0.9101505279541016
1761334254834616300,6.4796162109375,-6.216777801513672,-4.282869338989258,2.346951484680176
1761334254853317600,6.498317626953125,-6.557817459106445,-4.092138290405273,1.4482142925262451
1761334254872019200,6.517019287109375,-5.834385395050049,-3.738088607788086,-0.19070088863372803
1761334254890720500,6.535720458984375,-3.3151283264160156,-3.2023983001708984,0.03021061420440674
1761334254909421800,6.554421875,0.9920511245727539,-2.258307456970215,0.6247420310974121
1761334254928123400,6.573123291015625,7.250876426696777,-0.2782611846923828,1.2763633728027344
1761334254946824700,6.59182470703125,9.441486358642578,3.5519747734069824,-0.7949501276016235
1761334254965526000,6.610526123046875,7.818809509277344,8.764128684997559,-3.0320916175842285
1761334254984227600,6.6292275390625,5.93773078918457,12.789215087890625,-2.1635313034057617
1761334255002929000,6.647928955078125,8.186619758605957,13.934669494628906,1.35505211353302
1761334255021630200,6.666630126953125,17.28035545349121,9.516611099243164,7.394060134887695
1761334255040331500,6.68533154296875,24.522592544555664,4.1415696144104,7.282354831695557
1761334255059033000,6.704033203125,18.29966926574707,2.6264138221740723,4.460649490356445
1761334255077734400,6.722734375,7.588619232177734,1.8237929344177246,2.746623992919922
1761334255096435700,6.741435791015625,-0.2653684616088867,-0.27234983444213867,0.5932936668395996
1761334255115137300,6.76013720703125,-4.776101112365723,-2.8882532119750977,-1.0961298942565918
1761334255133838600,6.778838623046875,-8.124113082885742,-4.740941047668457,-2.05964732170105
1761334255152540000,6.797539794921875,-11.562738418579102,-5.317235946655273,-3.291576385498047
1761334255171241200,6.8162412109375,-13.495552062988281,-5.387330055236816,-4.838623046875
1761334255189942800,6.83494287109375,-13.981585502624512,-5.133504390716553,-5.478567600250244
1761334255208644000,6.85364404296875,-13.486738204956055,-5.088541030883789,-5.443586349487305
1761334255227345400,6.872345458984375,-11.781152725219727,-5.380234718322754,-4.987915992736816
1761334255246047000,6.891046875,-9.943341255187988,-5.438222885131836,-3.9934134483337402
1761334255264748300,6.909748291015625,-8.250510215759277,-5.158045768737793,-2.4805808067321777
1761334255283449600,6.92844970703125,-6.388885974884033,-4.6880784034729,-0.8507543802261353
1761334255302151000,6.94715087890625,-4.680103302001953,-4.224647045135498,0.05238842964172363
1761334255320852500,6.9658525390625,-1.7780752182006836,-3.6078968048095703,0.7143033742904663
1761334255339553800,6.9845537109375,3.762409210205078,-2.229170083999634,1.5780080556869507
1761334255358255000,7.003255126953125,8.805635452270508,1.484809398651123,1.7860807180404663
1761334255376956700,7.021956787109375,10.884819984436035,4.363515853881836,0.8222613334655762
1761334255395658000,7.040657958984375,8.252388954162598,8.436988830566406,-1.2958577871322632
1761334255414359300,7.059359375,6.766496658325195,12.088740348815918,-2.8533220291137695
1761334255433060600,7.078060546875,12.306638717651367,12.002880096435547,-1.1253353357315063
1761334255451762200,7.09676220703125,28.629806518554688,6.729124546051025,7.158334732055664
1761334255470463500,7.11546337890625,29.70176124572754,4.596190452575684,10.114238739013672
1761334255489164800,7.134164794921875,13.855377197265625,4.278897285461426,8.07715129852295
1761334255507866000,7.1528662109375,0.4414176940917969,2.074617385864258,5.02012300491333
1761334255526567700,7.171567626953125,-6.444629669189453,-1.59716796875,2.0416464805603027
1761334255545269000,7.19026904296875,-9.22553539276123,-4.966451644897461,-1.4963908195495605
1761334255563970300,7.20897021484375,-9.555473327636719,-6.840428829193115,-3.9019927978515625
1761334255582672000,7.227671875,-11.284202575683594,-6.878270626068115,-4.3290114402771
1761334255601373200,7.246373291015625,-13.428410530090332,-6.398013591766357,-4.797736644744873
1761334255620074500,7.265074462890625,-14.882305145263672,-6.117445945739746,-4.495426177978516
1761334255638775800,7.28377587890625,-14.598361015319824,-6.25553035736084,-3.4357669353485107
1761334255657477400,7.302477294921875,-12.796449661254883,-6.375471115112305,-2.918541431427002
1761334255676178700,7.3211787109375,-10.557535171508789,-6.342213153839111,-1.661333680152893
1761334255694880000,7.3398798828125,-8.177695274353027,-5.636735916137695,-0.4127088785171509
1761334255713581600,7.35858154296875,-6.635560035705566,-4.703158378601074,0.482340931892395
1761334255732283000,7.377282958984375,-5.158679008483887,-3.013021945953369,1.2068467140197754
1761334255750984200,7.395984130859375,-3.7813215255737305,-1.8372931480407715,1.8284680843353271
1761334255769685500,7.414685546875,2.0511064529418945,-0.2917637825012207,2.0277514457702637
1761334255788387000,7.433386962890625,10.312650680541992,2.3904647827148438,2.795997142791748
1761334255807088400,7.45208837890625,13.28223705291748,7.180095672607422,0.29772037267684937
1761334255825789700,7.470789794921875,10.97749137878418,10.664331436157227,-3.4611096382141113
1761334255844491000,7.489490966796875,6.411914825439453,14.22938060760498,-4.645570278167725
1761334255863192600,7.508192626953125,9.677478790283203,13.513880729675293,1.3274712562561035
1761334255881894000,7.526893798828125,28.560993194580078,6.617660999298096,9.111255645751953
1761334255900595200,7.54559521484375,31.557418823242188,5.064005374908447,9.81674575805664
1761334255919296800,7.564296875,16.012187957763672,4.683166980743408,7.410770416259766
1761334255937998000,7.582998046875,1.1004524230957031,2.4193673133850098,2.0495967864990234
1761334255956699400,7.601699462890625,-6.60776424407959,-1.6065263748168945,-0.4150261878967285
1761334255975400700,7.620400634765625,-9.473000526428223,-4.820089817047119,-2.4958255290985107
1761334255994102300,7.639102294921875,-11.62669563293457,-6.899514675140381,-3.5165882110595703
1761334256012803600,7.657803466796875,-13.261937141418457,-7.900920391082764,-4.16259765625
1761334256031505000,7.6765048828125,-13.785276412963867,-7.891284942626953,-4.1982102394104
1761334256050206500,7.69520654296875,-13.423297882080078,-7.653049945831299,-3.193321704864502
1761334256068907800,7.71390771484375,-13.387873649597168,-7.517726421356201,-2.5098843574523926
1761334256087609000,7.732609130859375,-12.824766159057617,-7.6726508140563965,-2.737637519836426
1761334256106310400,7.751310302734375,-10.706890106201172,-7.371433258056641,-2.778162717819214
1761334256125012000,7.770011962890625,-7.940550327301025,-6.585445404052734,-1.8293659687042236
1761334256143713300,7.78871337890625,-6.149436950683594,-5.658419132232666,-0.38612401485443115
1761334256162414600,7.80741455078125,-5.281044960021973,-4.67703104019165,0.5816925764083862
1761334256181116000,7.826115966796875,-3.525214672088623,-3.4810123443603516,1.1434714794158936
1761334256199817500,7.8448173828125,1.6692218780517578,-1.8908557891845703,1.1037179231643677
1761334256218518800,7.863518798828125,8.518948554992676,1.427182674407959,1.036673665046692
1761334256237220000,7.88222021484375,10.373356819152832,6.082604885101318,1.5769885778427124
1761334256255921700,7.900921630859375,8.209010124206543,11.330953598022461,-2.2766780853271484
1761334256274623000,7.919623046875,7.659560203552246,14.469018936157227,-4.781322002410889
1761334256293324300,7.93832421875,11.082420349121094,14.229984283447266,-0.07052814960479736
1761334256312025600,7.957025634765625,27.339584350585938,7.441224575042725,11.991073608398438
1761334256330727200,7.97572705078125,29.937620162963867,4.9265007972717285,10.360126495361328
1761334256349428500,7.994428466796875,17.994365692138672,4.099651336669922,4.519999027252197
1761334256368129800,8.0131298828125,6.315397262573242,1.483534812927246,0.9684655666351318
1761334256386831400,8.031831298828125,-2.1331872940063477,-1.9781198501586914,-1.1719735860824585
1761334256405532700,8.05053271484375,-8.889053344726562,-5.221436023712158,-2.5899715423583984
1761334256424234000,8.06923388671875,-13.882545471191406,-7.438680648803711,-4.031217575073242
1761334256442935300,8.087935302734374,-16.10831642150879,-8.254511833190918,-4.575207710266113
1761334256461636900,8.106636962890626,-17.018802642822266,-8.247859954833984,-3.926830768585205
1761334256480338200,8.125338134765625,-16.844409942626953,-8.073320388793945,-3.2538466453552246
1761334256499039500,8.14403955078125,-15.34532642364502,-7.9414896965026855,-3.151062488555908
1761334256517740800,8.16274072265625,-12.475286483764648,-7.455727577209473,-2.090812921524048
1761334256536442400,8.1814423828125,-8.635971069335938,-6.194432735443115,-0.7157857418060303
1761334256555143700,8.200143798828124,-5.325641632080078,-4.5520920753479,0.5575538873672485
1761334256573845000,8.218844970703126,-4.230979919433594,-3.1439199447631836,1.2613966464996338
1761334256592546600,8.237546630859375,-4.973143100738525,-2.0739259719848633,1.0442732572555542
1761334256611247900,8.256247802734375,-5.52845573425293,-1.5061523914337158,0.7894439697265625
1761334256629949200,8.27494921875,-3.016557216644287,-0.6369907855987549,0.13786113262176514
1761334256648650500,8.293650390625,2.011532783508301,1.7594847679138184,-0.7596997022628784
1761334256667352000,8.31235205078125,8.617321968078613,5.236353397369385,-0.7462658882141113
1761334256686053400,8.331053466796876,12.696677207946777,8.612801551818848,-0.7105001211166382
1761334256704754700,8.349754638671875,15.930580139160156,9.634078979492188,1.878110408782959
1761334256723456000,8.3684560546875,28.242385864257812,9.540984153747559,11.834685325622559
1761334256742157600,8.387157470703125,36.21916198730469,9.241270065307617,17.20052146911621
1761334256760859000,8.40585888671875,29.447235107421875,9.198976516723633,9.991344451904297
1761334256779560200,8.424560302734376,18.227428436279297,6.096304416656494,4.628993988037109
1761334256798261500,8.443261474609375,3.759876251220703,2.2432165145874023,-0.06916165351867676
1761334256816963000,8.461963134765625,-8.042027473449707,-2.9841456413269043,-4.829169273376465
1761334256835664400,8.480664306640625,-13.606483459472656,-5.806518077850342,-4.449306964874268
1761334256854365700,8.49936572265625,-15.51192855834961,-6.071303367614746,-3.1823065280914307
1761334256873067000,8.51806689453125,-17.972389221191406,-7.082566738128662,-4.124931812286377
1761334256891768600,8.5367685546875,-17.823352813720703,-8.036552429199219,-4.541677474975586
1761334256910470000,8.555469970703125,-15.845766067504883,-8.5721435546875,-4.593703269958496
1761334256929171200,8.574171142578125,-13.431716918945312,-8.878085136413574,-3.324031352996826
1761334256947872500,8.59287255859375,-9.669063568115234,-8.348039627075195,-2.4322237968444824
1761334256966574000,8.611573974609374,-6.739739418029785,-7.423595428466797,0.16222774982452393
1761334256985275400,8.630275390625,-3.8255085945129395,-6.332566261291504,0.21830248832702637
1761334257003976700,8.648976806640626,-4.549520015716553,-5.0742974281311035,-0.361996054649353
1761334257022678000,8.667677978515625,-5.7502875328063965,-4.037304878234863,-0.6203838586807251
1761334257041379600,8.686379638671875,-5.123959541320801,-2.888937473297119,0.20313608646392822
1761334257060081000,8.705080810546875,-1.8149547576904297,-1.321944236755371,-0.8404256105422974
1761334257078782200,8.7237822265625,2.301506996154785,1.4097800254821777,-0.43727660179138184
1761334257097483500,8.7424833984375,5.396024703979492,5.81925106048584,0.2138063907623291
1761334257116185000,8.76118505859375,7.295784950256348,10.340455055236816,3.643429756164551
1761334257134886400,8.779886474609375,9.637246131896973,12.456746101379395,4.678765773773193
1761334257153587700,8.798587646484375,17.86871337890625,9.790082931518555,3.646822452545166
1761334257172289000,8.8172890625,37.940574645996094,5.209674835205078,9.674668312072754
1761334257190990600,8.835990478515624,36.241241455078125,4.792866230010986,8.840873718261719
1761334257209692000,8.85469189453125,16.538196563720703,5.06803560256958,2.268467426300049
1761334257228393200,8.873393310546875,-0.8483943939208984,3.0298080444335938,-1.6101104021072388
1761334257247094800,8.8920947265625,-10.839225769042969,-0.8278045654296875,-3.434131145477295
1761334257265796000,8.910796142578125,-14.005125999450684,-3.867602586746216,-3.4222326278686523
1761334257284497400,8.929497314453124,-14.781883239746094,-5.488809585571289,-4.024375915527344
1761334257303198700,8.94819873046875,-15.367198944091797,-6.199151039123535,-4.4424729347229
1761334257321900300,8.966900390625,-14.433111190795898,-6.881821632385254,-4.20913553237915
1761334257340601600,8.9856015625,-12.067882537841797,-7.191773891448975,-3.824732780456543
1761334257359303000,9.004302978515625,-9.660711288452148,-6.8869242668151855,-2.2913155555725098
1761334257378004500,9.02300439453125,-7.7446088790893555,-6.5188679695129395,-1.021896243095398
1761334257396705800,9.041705810546874,-5.577714920043945,-5.602917671203613,0.24854564666748047
1761334257415407000,9.060406982421876,-4.936250686645508,-4.046234130859375,1.1079776287078857
1761334257434108400,9.0791083984375,-5.575362682342529,-2.6598803997039795,0.549530029296875
1761334257452809700,9.097809814453125,-5.194680213928223,-1.8658316135406494,-0.5805511474609375
1761334257471511300,9.11651123046875,-4.376102447509766,-1.3912997245788574,-1.0467536449432373
1761334257490212600,9.135212646484375,-3.4639272689819336,-0.2595534324645996,-1.2776939868927002
1761334257508914000,9.153913818359374,-0.13833904266357422,2.4135637283325195,-1.4768543243408203
1761334257527615200,9.172615234375,3.04150390625,6.060328006744385,0.023437976837158203
1761334257546316800,9.19131689453125,6.5009307861328125,8.726683616638184,1.436406135559082
1761334257565018000,9.21001806640625,13.328968048095703,7.679616451263428,2.857098340988159
1761334257583719400,9.228719482421875,23.039615631103516,4.854551315307617,6.32080602645874
1761334257602420700,9.247420654296874,34.488197326660156,4.608548641204834,9.772012710571289
1761334257621122000,9.2661220703125,28.64757537841797,7.696181297302246,7.017637252807617
1761334257639823600,9.28482373046875,13.534517288208008,8.034607887268066,2.713275909423828
1761334257658525000,9.30352490234375,2.188690185546875,4.706780910491943,0.03397727012634277
1761334257677226200,9.322226318359375,-4.897809028625488,0.6700129508972168,-1.0878996849060059
1761334257695927800,9.340927734375,-7.61088752746582,-2.363445281982422,-1.4459905624389648
1761334257714629000,9.359629150390624,-10.366958618164062,-4.431042671203613,-2.6392033100128174
1761334257733330400,9.378330322265626,-13.445282936096191,-5.797994136810303,-4.271692276000977
1761334257752031700,9.39703173828125,-13.548466682434082,-6.680949687957764,-4.750683784484863
1761334257770733300,9.4157333984375,-11.27302360534668,-7.330327033996582,-4.0182061195373535
1761334257789434600,9.4344345703125,-9.631908416748047,-7.118017196655273,-3.2544796466827393
1761334257808136000,9.453135986328125,-9.647839546203613,-6.265526294708252,-2.227605104446411
1761334257826837500,9.47183740234375,-8.912059783935547,-5.335638999938965,-1.1605759859085083
1761334257845538800,9.490538818359376,-6.805962562561035,-4.423891067504883,0.014428377151489258
1761334257864240000,9.509240234375,-4.61235237121582,-3.3236098289489746,-0.10009598731994629
1761334257882941400,9.52794140625,-4.5374755859375,-2.5189735889434814,-1.8504412174224854
1761334257901642800,9.546642822265625,-4.276788711547852,-2.2665185928344727,-2.420637369155884
1761334257920344300,9.56534423828125,-2.9984235763549805,-2.1645612716674805,-2.1159470081329346
1761334257939045600,9.584045654296874,-1.427485466003418,-0.5686206817626953,-1.9301151037216187
1761334257957747000,9.602746826171876,0.03766345977783203,3.3480210304260254,-1.69695246219635
1761334257976448300,9.6214482421875,1.3289575576782227,7.2369065284729,0.2460918426513672
1761334257995149600,9.640149658203125,7.935650825500488,8.53447437286377,3.168868064880371
1761334258013851100,9.65885107421875,15.997811317443848,6.018706321716309,6.279206275939941
1761334258032552400,9.677552490234374,26.615280151367188,3.3254289627075195,9.583440780639648
