time,seconds_elapsed,z,y,x
1761334248449182500,0.094182373046875,6.752545356750488,4.666004180908203,-1.1222338676452637
1761334248467883800,0.1128837890625,7.259823799133301,5.340780258178711,-1.588834285736084
1761334248486585300,0.13158544921875,7.159325122833252,5.31685209274292,-1.8161523342132568
1761334248505286700,0.15028662109375,7.956135272979736,4.9124650955200195,-1.801795482635498
1761334248523988000,0.168988037109375,8.429914474487305,3.6059837341308594,-1.552941918373108
1761334248542689500,0.187689453125,9.221938133239746,3.0173492431640625,-1.2179467678070068
1761334248561390800,0.206390869140625,10.380064964294434,2.6009981632232666,-0.6699903607368469
1761334248580092400,0.225092529296875,9.600004196166992,2.7421748638153076,0.040677983313798904
1761334248598793700,0.243793701171875,8.547162055969238,2.823530673980713,-0.33499518036842346
1761334248617495000,0.2624951171875,8.882157325744629,3.2446675300598145,-0.519242525100708
1761334248636196600,0.281196533203125,9.367900848388672,4.381258487701416,-1.0265209674835205
1761334248654898000,0.29989794921875,9.53779125213623,4.405186653137207,-1.9812572002410889
1761334248673599200,0.31859912109375,6.544369697570801,5.888736724853516,-7.310073375701904
1761334248692300500,0.337300537109375,5.37906551361084,4.54636287689209,-6.376872539520264
1761334248711002000,0.356002197265625,5.505885124206543,1.8903298377990723,-1.832902193069458
1761334248729703400,0.374703369140625,4.843072891235352,1.4811571836471558,-1.3399807214736938
1761334248748404700,0.39340478515625,6.38883638381958,1.801795482635498,-1.5744773149490356
1761334248767106300,0.412106201171875,8.236095428466797,0.9643075466156006,-3.311666488647461
1761334248785807600,0.4308076171875,8.343772888183594,0.794417142868042,-1.3639088869094849
1761334248804509200,0.44950927734375,7.69531774520874,-0.4953143000602722,0.9475577473640442
1761334248823210500,0.46821044921875,6.888936519622803,-1.3543375730514526,1.710868239402771
1761334248841911800,0.486911865234375,7.410571575164795,2.59621262550354,-0.6652047038078308
1761334248860613400,0.50561328125,11.547761917114258,4.9531426429748535,0.22013968229293823
1761334248879314700,0.524314697265625,16.752151489257812,6.7310099601745605,1.3256237506866455
1761334248898016000,0.54301611328125,20.190637588500977,8.585447311401367,0.9499505758285522
1761334248916717300,0.56171728515625,23.799013137817383,8.8438720703125,3.981656789779663
1761334248935419000,0.5804189453125,26.12244415283203,9.614361763000488,7.343572616577148
1761334248954120200,0.5991201171875,26.959932327270508,9.757930755615234,7.080362319946289
1761334248972821500,0.617821533203125,23.188844680786133,8.248059272766113,6.125626087188721
1761334248991523000,0.636523193359375,16.094125747680664,7.802994728088379,4.773681163787842
1761334249010224400,0.655224365234375,7.637889862060547,5.718846321105957,3.249453067779541
1761334249028925700,0.67392578125,2.5052852630615234,3.460021495819092,0.8446664214134216
1761334249047627300,0.692627197265625,0.16031911969184875,1.155733346939087,-1.6462619304656982
1761334249066328600,0.71132861328125,-0.5288137793540955,-0.7417750358581543,-1.4691931009292603
1761334249085030000,0.73002978515625,0.02153540402650833,-1.8424733877182007,-1.7874385118484497
1761334249103731500,0.7487314453125,-1.9262222051620483,-2.806781053543091,-2.5746772289276123
1761334249122432800,0.767432861328125,-2.8354947566986084,-2.2612173557281494,-3.1752755641937256
1761334249141134000,0.786134033203125,-3.9984066486358643,-2.0721843242645264,-2.6177480220794678
1761334249159835600,0.804835693359375,-4.400400638580322,-2.0243279933929443,-2.0554347038269043
1761334249178537000,0.823536865234375,-3.0580272674560547,-1.5433706045150757,-0.8638089895248413
1761334249197238300,0.84223828125,-1.0121639966964722,-1.2897313833236694,0.638883650302887
1761334249215939800,0.86093994140625,1.6223337650299072,-0.8997012972831726,1.801795482635498
1761334249234641200,0.87964111328125,4.835894584655762,-0.7513462901115417,1.9645073413848877
1761334249253342500,0.898342529296875,10.301101684570312,0.22013968229293823,1.9764715433120728
1761334249272043800,0.917043701171875,15.16331672668457,2.0338993072509766,3.3475589752197266
1761334249290745300,0.935745361328125,18.549161911010742,6.386443614959717,1.789831280708313
1761334249309446700,0.95444677734375,19.097118377685547,11.203195571899414,-0.6675975322723389
1761334249328148200,0.973148193359375,23.736801147460938,12.540783882141113,-1.0097711086273193
1761334249346849500,0.991849609375,30.79323387145996,11.95454216003418,0.6604190468788147
1761334249365550800,1.01055078125,32.90848922729492,11.062019348144531,3.326023578643799
1761334249384252400,1.02925244140625,31.776683807373047,11.181660652160645,7.843672752380371
1761334249402953700,1.04795361328125,25.143779754638672,10.676774978637695,9.181260108947754
1761334249421655000,1.066655029296875,15.438491821289062,8.279166221618652,5.704489231109619
1761334249440356600,1.085356689453125,8.360522270202637,5.000999450683594,2.50289249420166
1761334249459058000,1.104057861328125,4.077369689941406,1.6247265338897705,0.6101697683334351
1761334249477759200,1.12275927734375,1.3184453248977661,-0.914058268070221,-0.5144568681716919
1761334249496460500,1.14146044921875,-1.0648061037063599,-2.053041934967041,-1.5098711252212524
1761334249515162000,1.160162109375,-3.507878065109253,-2.6775684356689453,-2.2636101245880127
1761334249533863400,1.178863525390625,-5.929414749145508,-2.6273193359375,-3.4408788681030273
1761334249552564700,1.197564697265625,-7.4225358963012695,-2.407179594039917,-3.460021495819092
1761334249571266300,1.216266357421875,-7.322037220001221,-1.923829436302185,-2.9790642261505127
1761334249589967600,1.234967529296875,-5.525027275085449,-1.7228323221206665,-1.923829436302185
1761334249608669000,1.2536689453125,-2.2779672145843506,-1.5026925802230835,-0.23449662327766418
1761334249627370500,1.27237060546875,1.1174482107162476,-1.1581261157989502,1.5912270545959473
1761334249646071800,1.29107177734375,3.5365917682647705,-0.8805587291717529,2.3880369663238525
1761334249664773400,1.3097734375,6.573083877563477,-0.397208571434021,2.926422119140625
1761334249683474700,1.328474609375,9.741181373596191,1.129412293434143,3.2350962162017822
1761334249702176000,1.347176025390625,14.189437866210938,3.7950167655944824,2.218146562576294
1761334249720877300,1.365877197265625,19.113866806030273,7.434499740600586,0.30628129839897156
1761334249739579000,1.384578857421875,21.640687942504883,12.212966918945312,-0.9188438653945923
1761334249758280200,1.4032802734375,25.033710479736328,14.45743465423584,0.19381862878799438
1761334249776981500,1.4219814453125,29.23550796508789,14.871393203735352,1.2681959867477417
1761334249795683000,1.44068310546875,32.70988464355469,13.854443550109863,5.266602516174316
1761334249814384400,1.45938427734375,34.09532928466797,13.605589866638184,12.184252738952637
1761334249833085700,1.478085693359375,24.5599308013916,11.526226997375488,9.408578872680664
1761334249851787000,1.496787109375,13.962120056152344,8.09252643585205,5.383851051330566
1761334249870488600,1.515488525390625,6.58265495300293,4.0079779624938965,1.6773686408996582
1761334249889190000,1.53418994140625,1.581655740737915,0.14117653667926788,-0.9595218896865845
1761334249907891200,1.55289111328125,-0.9667003750801086,-2.557927370071411,-1.9286150932312012
1761334249926592800,1.5715927734375,-3.407379388809204,-3.531806230545044,-2.1990039348602295
1761334249945294000,1.590294189453125,-6.510870456695557,-3.862015724182129,-2.967100143432617
1761334249963995600,1.60899560546875,-8.432307243347168,-3.589233875274658,-3.845266103744507
1761334249982697000,1.627697021484375,-8.300702095031738,-3.0795626640319824,-3.7639100551605225
1761334250001398300,1.646398193359375,-5.515456199645996,-2.715853691101074,-3.0795626640319824
1761334250020099800,1.665099853515625,-1.184447169303894,-2.0338993072509766,-1.0360921621322632
1761334250038801200,1.68380126953125,2.555534601211548,-1.1222338676452637,1.179661512374878
1761334250057502500,1.70250244140625,4.874179840087891,-0.16031911969184875,2.526820659637451
1761334250076203800,1.721203857421875,5.338387489318848,0.6652047038078308,3.050848960876465
1761334250094905300,1.7399052734375,5.367101192474365,1.423729419708252,2.3976082801818848
1761334250113606700,1.758606689453125,7.089933395385742,2.029113531112671,1.9094724655151367
1761334250132308000,1.777307861328125,12.825529098510742,3.6323046684265137,2.100898265838623
1761334250151009500,1.796009521484375,19.92264175415039,7.3675007820129395,1.4572290182113647
1761334250169710800,1.8147109375,22.839492797851562,11.263015747070312,0.6652047038078308
1761334250188412200,1.833412109375,20.233707427978516,14.56511116027832,-2.9216363430023193
1761334250207113500,1.852113525390625,18.905691146850586,16.40519142150879,-4.826323509216309
1761334250225815000,1.87081494140625,23.684158325195312,16.206586837768555,-1.7276179790496826
1761334250244516400,1.889516357421875,35.55734634399414,12.370893478393555,10.1216402053833
1761334250263217700,1.9082177734375,34.526039123535156,9.140582084655762,11.36351490020752
1761334250281919200,1.926919189453125,21.91107749938965,7.154539585113525,6.238088607788086
1761334250300620500,1.94562060546875,11.294122695922852,4.790431022644043,2.4765713214874268
1761334250319322000,1.964322021484375,4.4650068283081055,1.4141582250595093,0.3086741268634796
1761334250338023400,1.9830234375,-0.5431707501411438,-1.275374412536621,-1.4787644147872925
1761334250356724700,2.001724853515625,-4.137190341949463,-2.5938198566436768,-2.3976082801818848
1761334250375426300,2.02042626953125,-6.496513366699219,-2.7421748638153076,-2.3234307765960693
1761334250394127600,2.039127685546875,-8.116454124450684,-2.4981069564819336,-2.6464617252349854
1761334250412829000,2.057828857421875,-8.535198211669922,-2.187039852142334,-3.060420274734497
1761334250431530200,2.0765302734375,-6.649653911590576,-1.94297194480896,-2.8283164501190186
1761334250450231800,2.095231689453125,-3.012563705444336,-1.7730815410614014,-1.6701902151107788
1761334250468933000,2.11393310546875,1.00259268283844,-1.25144624710083,0.36610186100006104
1761334250496985000,2.141985107421875,4.778466701507568,-0.11485548317432404,2.4741785526275635
1761334250515686700,2.160686767578125,4.350151538848877,0.849452018737793,2.7086751461029053
1761334250534388000,2.179387939453125,3.799802303314209,1.6606189012527466,1.8664016723632812
1761334250553089500,2.198089599609375,5.85284423828125,2.2683959007263184,1.160519003868103
1761334250571790800,2.216790771484375,11.966506004333496,3.469592809677124,2.4119651317596436
1761334250590492200,2.2354921875,20.03749656677246,6.795616149902344,3.2350962162017822
1761334250609193500,2.254193359375,23.933012008666992,11.542976379394531,-0.03349951654672623
1761334250627895000,2.27289501953125,23.897119522094727,17.139787673950195,-2.3617160320281982
1761334250646596400,2.291596435546875,20.293529510498047,20.350955963134766,-1.526620864868164
1761334250665297700,2.310297607421875,22.46381950378418,18.675981521606445,6.865008354187012
1761334250683999000,2.3289990234375,25.9908390045166,14.758930206298828,12.849457740783691
1761334250702700500,2.347700439453125,21.789043426513672,11.358729362487793,8.477770805358887
1761334250721401900,2.36640185546875,14.445469856262207,8.635697364807129,5.37906551361084
1761334250740103200,2.385103271484375,8.786444664001465,5.034498691558838,3.902693748474121
1761334250758804700,2.4038046875,5.91505765914917,1.1126625537872314,1.1198409795761108
1761334250777506000,2.422506103515625,2.1200408935546875,-1.2538390159606934,-1.6390835046768188
1761334250796207400,2.441207275390625,-1.8592232465744019,-1.8999011516571045,-3.2207393646240234
1761334250814908700,2.45990869140625,-4.321437835693359,-2.2325034141540527,-3.7399818897247314
1761334250833610200,2.4786103515625,-5.091926574707031,-2.2683959007263184,-3.5676984786987305
1761334250852311600,2.4973115234375,-4.170690059661865,-2.368894338607788,-2.7278177738189697
1761334250871013000,2.51601318359375,-2.359323024749756,-2.651247501373291,-1.4380863904953003
1761334250889714400,2.53471435546875,-0.6699903607368469,-2.5196423530578613,0.37806597352027893
1761334250908415700,2.553415771484375,0.8901300430297852,-2.03629207611084,1.5912270545959473
1761334250927117300,2.572117431640625,1.2969099283218384,-1.2179467678070068,2.3186452388763428
1761334250945818600,2.590818603515625,1.155733346939087,-0.26560330390930176,2.2372891902923584
1761334250964520000,2.60952001953125,2.2372891902923584,0.6843472719192505,1.887937068939209
1761334250983221500,2.628221435546875,5.142175674438477,1.4787644147872925,2.1918256282806396
1761334251001922800,2.6469228515625,11.10748291015625,3.28773832321167,3.4432718753814697
1761334251020624100,2.6656240234375,17.45564079284668,5.9676995277404785,3.737588882446289
1761334251039325400,2.684325439453125,19.61875343322754,9.410971641540527,1.1198409795761108
1761334251058027000,2.703027099609375,18.628124237060547,13.134203910827637,-2.9599215984344482
1761334251076728300,2.721728271484375,22.34657096862793,16.194623947143555,-3.9744784832000732
1761334251095429600,2.7404296875,30.762128829956055,17.008182525634766,1.4883357286453247
1761334251114131200,2.759131103515625,38.98386764526367,13.057633399963379,13.462019920349121
1761334251132832500,2.77783251953125,31.07558822631836,12.602996826171875,14.196617126464844
1761334251151533800,2.796533935546875,16.98904037475586,11.095519065856934,10.504491806030273
1761334251170235100,2.815235107421875,9.30329418182373,7.518248558044434,7.384250640869141
1761334251188936700,2.833936767578125,4.022335052490234,3.3475589752197266,2.392822742462158
1761334251207638000,2.852637939453125,0.9547362327575684,-0.20578274130821228,-1.2945170402526855
1761334251226339300,2.87133935546875,-1.6319050788879395,-2.1822543144226074,-2.699103832244873
1761334251245040600,2.89004052734375,-4.603790760040283,-2.7038896083831787,-3.098705291748047
1761334251263742200,2.9087421875,-7.17368221282959,-2.6153552532196045,-3.5126636028289795
1761334251282443500,2.927443603515625,-7.908278942108154,-2.651247501373291,-3.263810157775879
1761334251301144800,2.946144775390625,-6.690331935882568,-2.328216314315796,-3.2039895057678223
1761334251319846400,2.964846435546875,-4.218546390533447,-2.1128623485565186,-2.4909284114837646
1761334251338547700,2.983547607421875,-1.2131611108779907,-1.576870083808899,-1.031306505203247
1761334251357249000,3.0022490234375,1.5672988891601562,-0.7992027401924133,0.916451096534729
1761334251375950600,3.02095068359375,4.115654945373535,-0.3732803463935852,2.8594231605529785
1761334251394652000,3.03965185546875,5.714060306549072,0.35892340540885925,3.8883368968963623
1761334251413353200,3.058353271484375,8.214560508728027,1.337587833404541,4.342973232269287
1761334251432054800,3.0770546875,12.246466636657715,3.321237802505493,5.237888813018799
1761334251450756000,3.095756103515625,16.27358627319336,6.764509677886963,4.280759811401367
1761334251469457400,3.11445751953125,17.35274887084961,11.870793342590332,0.5670989751815796
1761334251488159000,3.133158935546875,17.03211212158203,17.883956909179688,-1.2945170402526855
1761334251506860300,3.1518603515625,19.427326202392578,20.370100021362305,-0.41156548261642456
1761334251525561600,3.1705615234375,21.61436653137207,18.62094497680664,1.5146567821502686
1761334251544263200,3.18926318359375,26.014768600463867,14.54357624053955,5.453242778778076
1761334251562964500,3.207964599609375,30.30031394958496,10.526026725769043,8.394021987915039
1761334251581665800,3.226665771484375,23.303699493408203,7.910671710968018,5.972485542297363
1761334251600367000,3.2453671875,13.438092231750488,5.630311489105225,3.634697675704956
1761334251619068700,3.264068603515625,5.582455158233643,3.3332018852233887,2.4358935356140137
1761334251637770000,3.28277001953125,0.5982056856155396,0.5670989751815796,0.6245267391204834
1761334251656471300,3.30147119140625,-1.4691931009292603,-1.3567304611206055,-1.057627558708191
1761334251675172900,3.3201728515625,-3.053241729736328,-1.9357935190200806,-2.210968017578125
1761334251693874200,3.338874267578125,-4.302295207977295,-1.7180466651916504,-2.651247501373291
1761334251712575500,3.357575439453125,-5.0464630126953125,-1.3208380937576294,-2.524427890777588
1761334251731276800,3.37627685546875,-4.847858905792236,-1.521835207939148,-2.469393014907837
1761334251749978400,3.394978271484375,-2.830709218978882,-1.5912270545959473,-2.0315065383911133
1761334251768679700,3.4136796875,-0.5479564070701599,-1.6510475873947144,-0.4163511395454407
1761334251787381000,3.432381103515625,1.3280165195465088,-1.545763373374939,0.7537391185760498
1761334251806082600,3.45108251953125,3.2781670093536377,-0.9499505758285522,2.1822543144226074
1761334251824784000,3.469783935546875,4.240081787109375,-0.2560320198535919,3.5054850578308105
1761334251843485200,3.488485107421875,4.718646049499512,1.0791629552841187,3.4648072719573975
1761334251862186500,3.5071865234375,8.63330364227295,2.888136863708496,3.438486099243164
1761334251880888000,3.52588818359375,14.263615608215332,5.888736724853516,3.6849467754364014
1761334251899589400,3.54458935546875,17.26421546936035,9.961320877075195,2.3784656524658203
1761334251918291000,3.563291015625,18.6855525970459,14.428720474243164,0.3613162338733673
1761334251936992300,3.5819921875,20.91326904296875,17.30967903137207,-0.28953152894973755
1761334251955693600,3.600693603515625,22.348962783813477,18.515661239624023,-0.3326023519039154
1761334251974395100,3.61939501953125,26.555545806884766,16.244873046875,3.9912281036376953
1761334251993096400,3.638096435546875,34.17668533325195,11.741580963134766,12.497713088989258
1761334252011797800,3.6567978515625,27.912275314331055,10.076175689697266,11.349157333374023
1761334252030499300,3.675499267578125,16.007984161376953,8.003992080688477,6.400800704956055
1761334252049200600,3.69420068359375,7.204789161682129,4.88853645324707,2.495713949203491
1761334252067902000,3.71290185546875,0.7680960893630981,1.5290136337280273,-0.3924229145050049
1761334252086603300,3.731603271484375,-2.6249263286590576,-1.0432707071304321,-2.6560330390930176
1761334252105304800,3.750304931640625,-4.505684852600098,-2.282752752304077,-3.1657042503356934
1761334252124006100,3.769006103515625,-6.463014125823975,-2.5148565769195557,-3.1106693744659424
1761334252142707500,3.78770751953125,-7.293323516845703,-2.2755744457244873,-3.1202406883239746
1761334252161408800,3.80640869140625,-6.403193473815918,-2.280359983444214,-3.2159535884857178
1761334252180110300,3.8251103515625,-3.7423746585845947,-1.9022940397262573,-2.493321180343628
1761334252198811600,3.843811767578125,-0.6125625967979431,-1.306481122970581,-0.672383189201355
1761334252217513000,3.862512939453125,2.306680917739868,-0.44745782017707825,1.5337992906570435
1761334252236214500,3.881214599609375,3.9194436073303223,0.6364908218383789,3.6131622791290283
1761334252254915800,3.899915771484375,3.9792640209198,1.4428720474243164,4.366901397705078
1761334252273617200,3.9186171875,4.094119548797607,2.225325107574463,4.161118507385254
1761334252292318500,3.937318359375,5.702096462249756,3.1489546298980713,3.572484254837036
1761334252311020000,3.95602001953125,9.882357597351074,5.034498691558838,3.2135608196258545
1761334252329721300,3.974721435546875,17.37189292907715,8.719446182250977,2.682354211807251
1761334252348422700,3.993422607421875,21.537796020507812,13.215559005737305,1.3854442834854126
1761334252367124200,4.012124267578125,19.745573043823242,16.486547470092773,-1.2993026971817017
1761334252385825500,4.030825439453125,17.9700984954834,19.092330932617188,-2.455035924911499
1761334252404526800,4.04952685546875,19.25025749206543,18.58026695251465,0.8350951075553894
1761334252423228200,4.068228271484375,31.36511993408203,12.655638694763184,10.339386940002441
1761334252441929700,4.0869296875,34.51407241821289,8.276773452758789,12.665210723876953
1761334252460631000,4.105631103515625,22.44467544555664,6.869793891906738,7.369893550872803
1761334252479332400,4.124332275390625,11.023734092712402,5.197210788726807,3.1585259437561035
1761334252498034000,4.143033935546875,3.7160534858703613,2.524427890777588,1.8687944412231445
1761334252516735200,4.1617353515625,-1.947757601737976,-0.06939185410737991,0.21774685382843018
1761334252535436500,4.1804365234375,-5.6446685791015625,-1.5050854682922363,-1.852044701576233
1761334252554138000,4.19913818359375,-7.2574310302734375,-1.7515461444854736,-2.926422119140625
1761334252572839400,4.21783935546875,-7.668996810913086,-1.4883357286453247,-2.909672260284424
1761334252591540700,4.236540771484375,-6.233303070068359,-1.4620146751403809,-2.6871397495269775
1761334252610242300,4.2552421875,-3.3092737197875977,-1.5146567821502686,-2.3162522315979004
1761334252628943600,4.273943603515625,-0.06939185410737991,-1.1629117727279663,-0.6915257573127747
1761334252647645000,4.29264501953125,2.421536445617676,-0.4546363055706024,1.0480563640594482
1761334252666346500,4.311346435546875,3.335594654083252,0.17706887423992157,2.1774685382843018
1761334252685047800,4.3300478515625,3.5126636028289795,0.24646073579788208,2.5076780319213867
1761334252703749000,4.3487490234375,3.8213376998901367,0.37088751792907715,2.1846470832824707
1761334252722450400,4.367450439453125,4.797609329223633,0.7465606927871704,1.7802600860595703
1761334252741152000,4.386152099609375,8.039883613586426,2.234896421432495,2.172683000564575
1761334252759853300,4.404853271484375,12.433106422424316,6.056233882904053,2.4741785526275635
1761334252778554600,4.4235546875,15.964912414550781,11.650653839111328,1.545763373374939
1761334252797256200,4.442256103515625,16.64208221435547,17.685352325439453,-1.3710874319076538
1761334252815957500,4.46095751953125,17.328821182250977,20.71227264404297,-2.4717857837677
1761334252834658800,4.479658935546875,19.989641189575195,20.123638153076172,0.2584248483181
1761334252853360000,4.498360107421875,34.56193161010742,13.256237030029297,9.159725189208984
1761334252872061700,4.517061767578125,37.909488677978516,10.198209762573242,13.148560523986816
1761334252890763000,4.535762939453125,22.255643844604492,10.147960662841797,10.29870891571045
1761334252909464300,4.55446435546875,8.274380683898926,8.202595710754395,6.106483459472656
1761334252928166000,4.573165771484375,2.076970100402832,4.347758769989014,4.084548473358154
1761334252946867200,4.5918671875,1.0863415002822876,0.15314064919948578,0.7154539823532104
1761334252965568500,4.610568603515625,-0.04785645380616188,-1.4141582250595093,-2.1272194385528564
1761334252984269800,4.629269775390625,-3.28773832321167,-1.1509476900100708,-3.672982692718506
1761334253002971400,4.647971435546875,-5.532206058502197,-1.2059825658798218,-3.9840497970581055
1761334253021672700,4.666672607421875,-4.876572608947754,-1.3543375730514526,-3.239881753921509
1761334253040374000,4.6853740234375,-2.2540390491485596,-1.7850457429885864,-2.3856441974639893
1761334253059075600,4.70407568359375,0.4163511395454407,-1.8592232465744019,-0.8805587291717529
1761334253077777000,4.72277685546875,2.122433662414551,-1.1030912399291992,1.3878371715545654
1761334253096478200,4.741478271484375,2.9551360607147217,0.014356935396790504,2.974278450012207
1761334253115179800,4.7601796875,2.888136863708496,0.605384111404419,2.8139593601226807
1761334253133881000,4.778881103515625,2.9144580364227295,0.8781659007072449,2.3330020904541016
1761334253152582400,4.79758251953125,3.428914785385132,1.399801254272461,2.3497519493103027
1761334253171284000,4.816283935546875,4.634897232055664,2.266003131866455,2.1774685382843018
1761334253189985300,4.8349853515625,7.9728851318359375,4.5822553634643555,1.5840486288070679
1761334253208686600,4.8536865234375,12.224930763244629,9.09990406036377,0.8901300430297852
1761334253227388200,4.87238818359375,14.70628833770752,15.725630760192871,-1.8687944412231445
1761334253246089500,4.89108935546875,17.984455108642578,20.73859405517578,-2.6392834186553955
1761334253264790800,4.909790771484375,18.269201278686523,21.131017684936523,1.1365907192230225
1761334253283492400,4.928492431640625,22.250858306884766,15.177674293518066,8.080561637878418
1761334253302193700,4.947193603515625,34.688751220703125,8.48734188079834,12.287144660949707
1761334253320895000,4.96589501953125,33.01616668701172,9.796216011047363,11.327622413635254
1761334253339596300,4.98459619140625,20.068603515625,9.76989459991455,6.5491557121276855
1761334253358297900,5.0032978515625,10.447063446044922,7.365108013153076,3.2446675300598145
1761334253376999200,5.021999267578125,4.199403762817383,4.1659040451049805,4.223331928253174
1761334253395700500,5.040700439453125,-1.368694543838501,1.0169496536254883,2.342573404312134
1761334253414401800,5.05940185546875,-4.40757942199707,-1.0719845294952393,-1.184447169303894
1761334253433103400,5.078103271484375,-5.5034918785095215,-1.5960127115249634,-3.759124279022217
1761334253451804700,5.0968046875,-5.900700569152832,-1.5337992906570435,-4.266402721405029
1761334253470506000,5.115506103515625,-5.216353416442871,-1.7874385118484497,-3.170490026473999
1761334253489207600,5.13420751953125,-3.4002010822296143,-2.2205393314361572,-2.115255117416382
1761334253507908900,5.152908935546875,-1.1174482107162476,-2.0889341831207275,-0.32303106784820557
1761334253526610200,5.171610107421875,0.9355936646461487,-1.0815558433532715,2.1822543144226074
1761334253545311500,5.1903115234375,1.3112667798995972,0.035892341285943985,3.524627685546875
1761334253564013000,5.209012939453125,1.4476577043533325,0.6317051649093628,3.4097721576690674
1761334253582714400,5.22771435546875,3.0580272674560547,1.2538390159606934,2.641676187515259
1761334253601415700,5.246415771484375,7.087540626525879,1.7276179790496826,1.978864312171936
1761334253620117000,5.265116943359375,13.11984634399414,3.1441688537597656,2.352144718170166
1761334253638818600,5.283818603515625,18.458234786987305,7.310073375701904,2.108076810836792
1761334253657519900,5.302519775390625,19.01815414428711,13.00259780883789,-1.0049854516983032
1761334253676221200,5.32122119140625,18.092132568359375,18.005990982055664,-2.038684844970703
1761334253694922800,5.3399228515625,20.817556381225586,18.556339263916016,1.6534404754638672
1761334253713624000,5.3586240234375,24.394826889038086,15.732809066772461,4.632504463195801
1761334253732325400,5.377325439453125,32.642887115478516,10.794022560119629,8.513663291931152
1761334253751027000,5.39602685546875,31.93461036682129,9.743574142456055,12.251252174377441
1761334253769728300,5.414728271484375,20.807985305786133,8.075776100158691,7.994420528411865
1761334253788429600,5.4334296875,9.324830055236816,5.355136871337891,3.9625144004821777
1761334253807131100,5.452131103515625,1.275374412536621,2.3712873458862305,2.699103832244873
1761334253825832400,5.47083251953125,-4.015156269073486,-0.5934200286865234,-0.2991028428077698
1761334253844533800,5.48953369140625,-6.180660724639893,-2.0673987865448,-3.0101709365844727
1761334253863235300,5.5082353515625,-7.003791809082031,-2.1894326210021973,-4.1036906242370605
1761334253881936600,5.5269365234375,-6.927221775054932,-1.950150489807129,-3.7256247997283936
1761334253900638000,5.545637939453125,-5.831308841705322,-1.9908283948898315,-2.7589244842529297
1761334253919339500,5.564339599609375,-3.541377544403076,-2.132004976272583,-1.770688772201538
1761334253938040800,5.583040771484375,-0.24646073579788208,-1.7611174583435059,-0.4091726839542389
1761334253956742100,5.6017421875,2.414358139038086,-0.8781659007072449,1.4141582250595093
1761334253975443500,5.620443359375,3.2303106784820557,0.25363919138908386,2.0171494483947754
1761334253994145000,5.63914501953125,2.967100143432617,0.8303094506263733,1.852044701576233
1761334254012846300,5.657846435546875,3.570091485977173,1.0504491329193115,2.6057839393615723
1761334254031547600,5.676547607421875,6.362515449523926,2.0482561588287354,2.8737800121307373
1761334254050249200,5.695249267578125,11.956934928894043,3.1561331748962402,3.524627685546875
1761334254068950500,5.713950439453125,16.89093589782715,5.745167255401611,1.7228323221206665
1761334254087651800,5.73265185546875,15.725630760192871,10.64806079864502,-3.328416347503662
1761334254106353200,5.751353271484375,16.1970157623291,15.550954818725586,-5.225924491882324
1761334254125054700,5.7700546875,26.361726760864258,14.883357048034668,2.761317253112793
1761334254143756000,5.788756103515625,34.69353485107422,11.528619766235352,8.193024635314941
1761334254162457300,5.807457275390625,34.86103439331055,10.849058151245117,8.49452018737793
1761334254181159000,5.826158935546875,30.92723274230957,11.270195007324219,10.621739387512207
1761334254199860200,5.844860107421875,20.429920196533203,9.688538551330566,7.848458290100098
1761334254218561500,5.8635615234375,8.532805442810059,6.357729911804199,3.625126361846924
1761334254237262800,5.882262939453125,0.3397808074951172,2.8498518466949463,0.7250252366065979
1761334254255964400,5.90096435546875,-2.998206853866577,0.3684946894645691,-2.139183521270752
1761334254274665700,5.919665771484375,-4.297509670257568,-1.1724830865859985,-3.3308091163635254
1761334254293367000,5.938366943359375,-5.3694939613342285,-1.4261223077774048,-3.390629768371582
1761334254312068400,5.957068359375,-6.149554252624512,-1.5984054803848267,-2.9862427711486816
1761334254330770000,5.97577001953125,-5.630311489105225,-1.3854442834854126,-1.7395820617675781
1761334254349471200,5.99447119140625,-3.570091485977173,-1.3112667798995972,-0.03349951654672623
1761334254368172500,6.013172607421875,-0.29431718587875366,-1.1318050622940063,2.0889341831207275
1761334254386874000,6.0318740234375,2.3473589420318604,-0.6221339106559753,3.5126636028289795
1761334254405575400,6.050575439453125,2.4335005283355713,-0.04785645380616188,3.82373046875
1761334254424276700,6.06927685546875,1.667797327041626,0.49292147159576416,2.8139593601226807
1761334254442978300,6.087978271484375,1.3304094076156616,0.9475577473640442,1.4117653369903564
1761334254461679600,6.1066796875,2.5196423530578613,0.6891329288482666,0.8039883971214294
1761334254480381000,6.125380859375,5.927021503448486,1.1653046607971191,0.5479564070701599
1761334254499082200,6.144082275390625,11.739188194274902,4.431507587432861,0.40677985548973083
1761334254517783800,6.16278369140625,17.599210739135742,9.521040916442871,0.48574298620224
1761334254536485000,6.181485107421875,23.315664291381836,12.971491813659668,2.6703901290893555
1761334254555186400,6.2001865234375,30.733413696289062,14.481362342834473,5.548955917358398
1761334254573888000,6.218887939453125,40.99623107910156,12.866207122802734,11.411371231079102
1761334254592589300,6.23758935546875,45.351165771484375,11.497512817382812,14.83789348602295
1761334254611291100,6.256291015625,29.008188247680664,12.361321449279785,11.586047172546387
1761334254629992200,6.2749921875,13.646267890930176,9.954142570495605,6.166304111480713
1761334254648693500,6.293693603515625,6.776473522186279,5.120640277862549,2.2157537937164307
1761334254667394800,6.312394775390625,3.22552490234375,0.605384111404419,-0.8614161610603333
1761334254686096400,6.331096435546875,-0.031106693670153618,-2.1272194385528564,-3.019742250442505
1761334254704797700,6.349797607421875,-4.218546390533447,-2.746960401535034,-3.988835334777832
1761334254723499000,6.3684990234375,-7.29093074798584,-2.3330020904541016,-4.2592244148254395
1761334254742200600,6.38720068359375,-8.049455642700195,-2.0171494483947754,-4.242474555969238
1761334254760902000,6.40590185546875,-6.1399827003479,-1.8640087842941284,-3.249453067779541
1761334254779603200,6.424603271484375,-3.084348440170288,-1.5960127115249634,-1.648654818534851
1761334254798304500,6.443304443359375,-0.3900300860404968,-0.851844847202301,1.2610175609588623
1761334254817006000,6.462006103515625,1.7324036359786987,0.06939185410737991,4.0079779624938965
1761334254835707400,6.480707275390625,2.045863389968872,0.44027936458587646,4.015156269073486
1761334254854408700,6.49940869140625,1.9525432586669922,0.5910272002220154,2.2396819591522217
1761334254873110000,6.518110107421875,3.7016966342926025,0.9332008361816406,1.4859428405761719
1761334254891811300,6.536811279296875,6.908079147338867,1.490728497505188,1.8041882514953613
1761334254910513000,6.555512939453125,12.689138412475586,2.8498518466949463,2.581855535507202
1761334254929214200,6.574214111328125,17.726030349731445,5.773880958557129,1.7587246894836426
1761334254947915800,6.592915771484375,17.32403564453125,10.61695384979248,-1.1389836072921753
1761334254966617000,6.6116171875,15.27338695526123,15.818950653076172,-1.7826528549194336
1761334254985318400,6.630318359375,14.663217544555664,18.88894271850586,0.05503492057323456
1761334255004019700,6.649019775390625,20.482561111450195,16.895721435546875,6.573083877563477
1761334255022721300,6.66772119140625,31.465618133544922,10.743773460388184,10.52363395690918
1761334255041422600,6.686422607421875,31.67379379272461,7.168896675109863,7.668996810913086
1761334255060124000,6.7051240234375,21.975683212280273,6.544369697570801,6.099305152893066
1761334255078825500,6.723825439453125,12.2799654006958,5.123033046722412,3.783052682876587
1761334255097526800,6.74252685546875,6.1950178146362305,2.778067111968994,1.9405791759490967
1761334255116228000,6.76122802734375,2.5196423530578613,0.39481574296951294,0.8063812255859375
1761334255134929400,6.779929443359375,-1.0049854516983032,-0.6293123364448547,-0.397208571434021
1761334255153631000,6.798630859375,-3.981656789779663,-0.9690931439399719,-2.0267207622528076
1761334255172332300,6.817332275390625,-5.008177757263184,-0.7800601720809937,-3.5437703132629395
1761334255191033600,6.83603369140625,-5.106283664703369,-0.6675975322723389,-3.8117663860321045
1761334255209735000,6.85473486328125,-3.862015724182129,-0.9379864931106567,-3.6394832134246826
1761334255228436500,6.8734365234375,-2.0817556381225586,-1.2729816436767578,-2.991028308868408
1761334255247137800,6.8921376953125,-0.3158525824546814,-1.2251251935958862,-1.7180466651916504
1761334255265839000,6.910839111328125,1.404586911201477,-0.9834501147270203,-0.11724831163883209
1761334255284540700,6.929540771484375,3.1824541091918945,-0.4785645306110382,1.0528420209884644
1761334255303242000,6.948241943359375,5.225924491882324,-0.09810572862625122,1.730010747909546
1761334255321943300,6.966943359375,9.631111145019531,0.7154539823532104,2.2683959007263184
1761334255340644600,6.98564453125,15.263815879821777,3.414557933807373,2.912065267562866
1761334255359346200,7.00434619140625,19.211973190307617,7.046862602233887,2.723032236099243
1761334255378047500,7.023047607421875,18.65444564819336,10.52363395690918,0.5862415432929993
1761334255396748800,7.041748779296875,15.79262924194336,14.701501846313477,-1.5122638940811157
1761334255415450400,7.060450439453125,17.13739585876465,17.154146194458008,-2.234896421432495
1761334255434151700,7.079151611328125,29.020153045654297,13.39980697631836,4.07258415222168
1761334255452853000,7.09785302734375,41.587257385253906,8.810373306274414,11.040483474731445
1761334255471554300,7.11655419921875,31.862825393676758,8.525627136230469,11.064412117004395
1761334255490256000,7.135255859375,15.598811149597168,7.573283672332764,8.195417404174805
1761334255508957200,7.153957275390625,5.5345988273620605,4.639683246612549,5.2737812995910645
1761334255527658500,7.172658447265625,1.0408778190612793,0.9882357716560364,1.6558332443237305
1761334255546359800,7.19135986328125,-0.22971096634864807,-1.730010747909546,-1.674975872039795
1761334255565061400,7.210061279296875,-1.1629117727279663,-2.4981069564819336,-3.0628130435943604
1761334255583762700,7.2287626953125,-3.4791641235351562,-1.9669002294540405,-3.5844483375549316
1761334255602464000,7.247464111328125,-5.501099109649658,-1.397408366203308,-3.840480327606201
1761334255621165600,7.26616552734375,-6.333801746368408,-1.368694543838501,-2.8498518466949463
1761334255639867000,7.284866943359375,-5.182853698730469,-1.5672988891601562,-2.1535403728485107
1761334255658568200,7.303568115234375,-3.2542388439178467,-1.7850457429885864,-1.3160524368286133
1761334255677269500,7.32226953125,-0.5958128571510315,-1.5744773149490356,0.038285162299871445
1761334255695971000,7.34097119140625,1.2442678213119507,-0.8303094506263733,0.8973084688186646
1761334255714672400,7.35967236328125,2.825923442840576,0.349352091550827,1.820937991142273
1761334255733373700,7.378373779296875,3.9625144004821777,1.892722725868225,2.4263222217559814
1761334255752075300,7.3970751953125,7.0061845779418945,3.0723843574523926,2.5603201389312744
1761334255770776600,7.415776611328125,14.809179306030273,4.900500774383545,3.6394832134246826
1761334255789478000,7.434477783203125,21.47079849243164,9.193224906921387,3.0005996227264404
1761334255808179200,7.45317919921875,21.092731475830078,13.677373886108398,-0.916451096534729
1761334255826880800,7.471880859375,17.316858291625977,17.113468170166016,-3.840480327606201
1761334255845582000,7.49058203125,14.624932289123535,19.987247467041016,-1.9070796966552734
1761334255864283400,7.509283447265625,27.48396110534668,14.117653846740723,7.551748275756836
1761334255882984700,7.527984619140625,42.314674377441406,8.930013656616211,12.208181381225586
1761334255901686300,7.546686279296875,34.03311538696289,9.626325607299805,11.093125343322754
1761334255920387600,7.5653876953125,16.97707748413086,8.09970474243164,6.9583282470703125
1761334255939089000,7.5840888671875,5.20678186416626,5.26181697845459,2.60339093208313
1761334255957790500,7.60279052734375,0.5742774605751038,1.6534404754638672,0.6005984544754028
1761334255976491800,7.62149169921875,-1.8664016723632812,-0.8997012972831726,-1.1724830865859985
1761334255995193000,7.640193115234375,-3.9792640209198,-2.251646041870117,-2.093719720840454
1761334256013894400,7.658894287109375,-5.194818019866943,-2.6943182945251465,-2.737389087677002
1761334256032596000,7.677595947265625,-5.26181697845459,-2.421536445617676,-2.328216314315796
1761334256051297300,7.69629736328125,-4.981856822967529,-2.2612173557281494,-1.5050854682922363
1761334256069998600,7.71499853515625,-4.922036170959473,-2.3736801147460938,-1.275374412536621
1761334256088700200,7.7337001953125,-3.6155550479888916,-2.50289249420166,-1.7850457429885864
1761334256107401500,7.7524013671875,-0.9906286001205444,-2.1296122074127197,-1.179661512374878
1761334256126102800,7.771102783203125,1.4787644147872925,-1.332802176475525,0.13639089465141296
1761334256144804000,7.78980419921875,2.65842604637146,-0.4163511395454407,1.5385849475860596
1761334256163505700,7.808505615234375,3.737588882446289,0.5168496966362,2.201396942138672
1761334256182207000,7.82720703125,6.786045074462891,1.7682958841323853,2.4717857837677
1761334256200908300,7.845908203125,13.713266372680664,4.077369689941406,2.342573404312134
1761334256219609600,7.864609619140625,18.56830406188965,8.499305725097656,2.6847469806671143
1761334256238311200,7.883311279296875,18.017953872680664,13.466805458068848,1.191625714302063
1761334256257012500,7.902012451171875,15.9170560836792,18.324235916137695,-2.940778970718384
1761334256275713800,7.9207138671875,16.852649688720703,20.1164608001709,-3.1657042503356934
1761334256294415400,7.939415283203125,26.919254302978516,15.603596687316895,8.329415321350098
1761334256313116700,7.95811669921875,40.68516159057617,9.872786521911621,14.93121337890625
1761334256331818000,7.97681787109375,33.638301849365234,8.980263710021973,8.669196128845215
1761334256350519300,7.995519287109375,21.114267349243164,7.2430739402771,4.118047714233398
1761334256369220900,8.014220947265626,10.96869945526123,4.395615100860596,1.0504491329193115
1761334256387922200,8.032922119140625,3.3786656856536865,1.0887342691421509,-0.6269195079803467
1761334256406623500,8.05162353515625,-2.801995277404785,-1.552941918373108,-2.249253273010254
1761334256425325000,8.070324951171875,-6.472585201263428,-2.8283164501190186,-3.4815568923950195
1761334256444026400,8.0890263671875,-8.066205024719238,-3.1680972576141357,-3.311666488647461
1761334256462727700,8.107727783203124,-8.535198211669922,-2.957528829574585,-2.5148565769195557
1761334256481429000,8.126428955078126,-7.874779224395752,-2.9479575157165527,-2.038684844970703
1761334256500130600,8.145130615234375,-5.682953834533691,-2.837887763977051,-1.4428720474243164
1761334256518831900,8.163831787109375,-2.1655044555664062,-2.2061824798583984,-0.05024927482008934
1761334256537533200,8.182533203125,1.6630117893218994,-0.8997012972831726,1.5098711252212524
1761334256556234500,8.201234375,4.051048755645752,0.5694918036460876,2.651247501373291
1761334256574936000,8.21993603515625,3.9290146827697754,1.7084753513336182,3.098705291748047
1761334256593637400,8.238637451171876,2.9766714572906494,2.5387847423553467,2.682354211807251
1761334256612338700,8.257338623046875,3.610769271850586,3.0867412090301514,2.5674986839294434
1761334256631040300,8.276040283203125,7.719245910644531,4.347758769989014,1.5840486288070679
1761334256649741600,8.294741455078125,13.823336601257324,7.6474609375,0.9020941257476807
1761334256668443000,8.31344287109375,19.642681121826172,11.203195571899414,1.0097711086273193
1761334256687144200,8.332144287109376,22.715065002441406,13.600804328918457,1.9214365482330322
1761334256705845800,8.350845703125,28.18505859375,13.794622421264648,7.4225358963012695
1761334256724547000,8.369547119140625,42.29314041137695,13.622339248657227,18.831514358520508
1761334256743248400,8.388248291015625,43.472801208496094,13.055240631103516,15.79262924194336
1761334256761950000,8.406949951171875,35.03810119628906,12.119647026062012,8.614161491394043
1761334256780651300,8.4256513671875,19.475183486938477,8.819944381713867,4.701896667480469
1761334256799352600,8.4443525390625,6.455835342407227,4.094119548797607,-0.7226324677467346
1761334256818054000,8.463053955078125,-2.60339093208313,0.13639089465141296,-3.8500516414642334
1761334256836755500,8.48175537109375,-5.781059741973877,-0.5599204897880554,-1.7395820617675781
1761334256855456800,8.500456787109375,-8.374878883361816,-1.179661512374878,-2.328216314315796
1761334256874158000,8.519157958984374,-9.836894035339355,-2.091326951980591,-3.046063184738159
1761334256892859400,8.537859375,-8.702695846557617,-2.8737800121307373,-3.25663161277771
1761334256911561000,8.55656103515625,-6.460621356964111,-3.2231321334838867,-2.8737800121307373
1761334256930262300,8.57526220703125,-4.3549370765686035,-3.4121651649475098,-0.8733802437782288
1761334256948963600,8.593963623046875,0.059820566326379776,-3.201596736907959,0.882951557636261
1761334256967665200,8.6126650390625,3.5988051891326904,-2.0578274726867676,1.9932212829589844
1761334256986366500,8.631366455078124,4.393222332000732,-0.8446664214134216,1.404586911201477
1761334257005067800,8.65006787109375,2.981456995010376,0.24167509377002716,1.0289137363433838
1761334257023769000,8.66876904296875,2.455035924911499,1.2275179624557495,1.6510475873947144
1761334257042470700,8.687470703125,4.570291042327881,2.383251428604126,1.34476637840271
1761334257061172000,8.706171875,8.437092781066895,4.615755081176758,0.6556333899497986
1761334257079873300,8.724873291015625,12.390035629272461,8.202595710754395,1.6079767942428589
1761334257098574600,8.74357470703125,14.632110595703125,12.564711570739746,2.888136863708496
1761334257117276000,8.76227587890625,16.905292510986328,17.402999877929688,7.51585578918457
1761334257135977500,8.7809775390625,20.21456527709961,16.22812271118164,4.768895626068115
1761334257154678800,8.7996787109375,36.813575744628906,11.22233772277832,8.583054542541504
1761334257173380000,8.818380126953125,50.153564453125,8.324629783630371,12.703495025634766
1761334257192081400,8.837081298828124,36.244083404541016,9.32722282409668,7.247859954833984
1761334257210783000,8.855782958984374,16.23051643371582,8.647661209106445,2.060220241546631
1761334257229484300,8.874484375,2.1846470832824707,5.711667537689209,-0.8805587291717529
1761334257248185600,8.893185546875,-4.091726779937744,2.227717876434326,-1.6175481081008911
1761334257266887000,8.911886962890625,-5.556134223937988,-0.11964113265275955,-1.7587246894836426
1761334257285588500,8.93058837890625,-6.372086524963379,-1.0791629552841187,-2.6009981632232666
1761334257304289800,8.949289794921874,-6.4319071769714355,-1.8113667964935303,-2.392822742462158
1761334257322991000,8.9679912109375,-4.625326156616211,-2.5196423530578613,-2.2947168350219727
1761334257341692400,8.9866923828125,-2.1128623485565186,-2.579462766647339,-1.277767300605774
1761334257360394000,9.00539404296875,-0.23688943684101105,-2.2372891902923584,0.6628118753433228
1761334257379095300,9.02409521484375,2.093719720840454,-1.9142581224441528,1.6558332443237305
1761334257397796600,9.042796630859375,3.5150563716888428,-0.8327022790908813,3.014956474304199
1761334257416498200,9.061498291015624,3.438486099243164,0.8063812255859375,3.22552490234375
1761334257435199500,9.080199462890626,3.0269205570220947,1.8089739084243774,1.9860427379608154
1761334257453900800,9.09890087890625,3.8285162448883057,2.3808584213256836,1.2969099283218384
1761334257472602000,9.11760205078125,4.500899314880371,3.077169895172119,0.8901300430297852
1761334257491303700,9.1363037109375,6.283552169799805,5.06082010269165,0.5599204897880554
1761334257510005000,9.1550048828125,10.183853149414062,8.346165657043457,1.3758729696273804
1761334257528706300,9.173706298828124,12.78485107421875,12.102896690368652,2.667997360229492
1761334257547408000,9.192407958984376,18.283557891845703,12.945170402526855,4.326223373413086
1761334257566109200,9.211109130859375,26.251657485961914,10.138389587402344,5.766702651977539
1761334257584810500,9.229810546875,38.88097381591797,7.946564197540283,10.667202949523926
1761334257603511800,9.24851171875,43.03730773925781,9.824930191040039,11.387442588806152
1761334257622213000,9.267213134765624,30.551559448242188,12.564711570739746,6.97268533706665
1761334257640914400,9.28591455078125,16.247264862060547,10.679167747497559,3.500699520111084
1761334257659616000,9.304615966796876,7.202396392822266,7.04925537109375,1.6773686408996582
1761334257678317300,9.3233173828125,2.376072883605957,3.500699520111084,1.124626636505127
1761334257697018600,9.3420185546875,0.12203395366668701,1.179661512374878,0.4785645306110382
1761334257715720000,9.360719970703125,-3.3236305713653564,-0.4378865361213684,-1.2346965074539185
1761334257734421500,9.37942138671875,-5.350351333618164,-1.4500504732131958,-2.5986053943634033
1761334257753122800,9.398122802734376,-3.9146578311920166,-2.280359983444214,-2.1774685382843018
1761334257771824000,9.41682421875,-1.6654045581817627,-2.651247501373291,-1.5601203441619873
1761334257790525400,9.435525390625,-1.0911271572113037,-1.9932212829589844,-0.5096712112426758
1761334257809227000,9.45422705078125,-1.0408778190612793,-1.1030912399291992,0.4211367964744568
1761334257827928300,9.47292822265625,0.46420758962631226,-0.3326023519039154,1.8113667964935303
1761334257846629600,9.491629638671874,2.878565549850464,0.6149554252624512,2.50289249420166
1761334257865331200,9.510331298828126,3.9936211109161377,1.6630117893218994,1.3663017749786377
1761334257884032500,9.529032470703125,3.7567315101623535,2.234896421432495,-0.22492532432079315
1761334257902733800,9.54773388671875,4.627718925476074,2.335394859313965,0.038285162299871445
1761334257921435100,9.56643505859375,5.903093338012695,2.9623143672943115,0.07417750358581543
1761334257940136700,9.58513671875,7.5804619789123535,5.979663848876953,0.3278166949748993
1761334257958838000,9.603838134765626,7.994420528411865,10.088140487670898,1.301695466041565
1761334257977539300,9.622539306640626,12.268001556396484,13.225131034851074,4.118047714233398
1761334257996240600,9.64124072265625,20.056638717651367,12.411571502685547,6.8865437507629395
1761334258014942200,9.659942138671875,29.881568908691406,8.243273735046387,10.856236457824707
1761334258033643500,9.6786435546875,37.842491149902344,8.087740898132324,12.122039794921875
