time,seconds_elapsed,z,y,x
1761334248420039400,0.065039306640625,-0.25045454502105713,-0.8419243693351746,-0.019242240116000175
1761334248438740700,0.08374072265625,-0.2571740746498108,-0.4021017551422119,-0.29962918162345886
1761334248457442300,0.1024423828125,-0.21807873249053955,0.23136503994464874,-0.6319395899772644
1761334248476143600,0.1211435546875,-0.11728604137897491,0.845894992351532,-0.8866702318191528
1761334248494845000,0.139844970703125,0.02871064469218254,1.4958550930023193,-1.1151336431503296
1761334248513546500,0.15854638671875,0.05070177838206291,1.3425281047821045,-1.2024873495101929
1761334248532247800,0.177247802734375,0.021380268037319183,0.7206677198410034,-1.1102467775344849
1761334248550949400,0.195949462890625,0,0.1611155867576599,-0.9392045736312866
1761334248569650700,0.214650634765625,-0.021380268037319183,-0.32268932461738586,-0.6569850444793701
1761334248588352000,0.23335205078125,-0.21807873249053955,-0.35384342074394226,-0.6093376278877258
1761334248607053300,0.25205322265625,-0.3237583339214325,-0.16997312009334564,-0.7816014885902405
1761334248625755000,0.2707548828125,-0.21685700118541718,-0.48823368549346924,-0.8323032855987549
1761334248644456200,0.289456298828125,-0.25350889563560486,-1.121700406074524,-0.7492256760597229
1761334248663157500,0.308157470703125,-0.39400777220726013,-1.8742858171463013,-0.5323686599731445
1761334248681858800,0.32685888671875,0.1795942485332489,-1.4534000158309937,-0.34788748621940613
1761334248700560400,0.345560302734375,0.6328558921813965,0.2906189262866974,-0.6258309483528137
1761334248719261700,0.36426171875,0.667064368724823,1.0541999340057373,-1.2147046327590942
1761334248737963300,0.38296337890625,0.6774490475654602,0.9466876983642578,-1.7595959901809692
1761334248756664600,0.40166455078125,0.943175196647644,0.19593487679958344,-1.7815871238708496
1761334248775366000,0.420365966796875,1.9859213829040527,-1.0960441827774048,-0.9673043489456177
1761334248794067500,0.4390673828125,2.3255622386932373,-1.890168309211731,-0.026572618633508682
1761334248812768800,0.457768798828125,1.6865977048873901,-1.810755968093872,0.7993165850639343
1761334248831470000,0.476469970703125,0.9541707634925842,-1.399643898010254,1.3472622632980347
1761334248850171600,0.495171630859375,0.8875865340232849,-1.817475438117981,1.2214241027832031
1761334248868873000,0.513873046875,0.5784889459609985,-1.8865031003952026,0.9275981783866882
1761334248887574300,0.53257421875,0.42271843552589417,-1.2762492895126343,0.6087267398834229
1761334248906275800,0.55127587890625,0.8796452879905701,-0.1614210158586502,0.0009162971982732415
1761334248924977200,0.56997705078125,1.186299443244934,0.5514581799507141,-0.4010327160358429
1761334248943678500,0.588678466796875,0.9211840629577637,0.3309359848499298,-0.2507599890232086
1761334248962379800,0.6073798828125,0.6395754218101501,-0.052076224237680435,0.601396381855011
1761334248981081300,0.626081298828125,0.370184063911438,-0.4454731345176697,1.507308840751648
1761334248999782700,0.64478271484375,0.33047783374786377,-0.6898190379142761,1.831678032875061
1761334249018484200,0.663484130859375,-0.020769402384757996,-0.7399099469184875,1.2996147871017456
1761334249037185500,0.682185546875,-0.13500112295150757,-0.15592323243618011,0.508544921875
1761334249055886800,0.700886962890625,0.053756099194288254,0.41706791520118713,-0.07116574794054031
1761334249074588400,0.71958837890625,0.02626718580722809,0.826958179473877,-0.31490078568458557
1761334249093289700,0.738289794921875,0.01954767294228077,0.41523534059524536,0.013133592903614044
1761334249111991000,0.756990966796875,0.13683371245861053,0.02916879393160343,0.25320345163345337
1761334249130692600,0.775692626953125,0.3347539007663727,-0.019700389355421066,0.3381136655807495
1761334249149394000,0.794393798828125,0.5564978122711182,0.2331976294517517,0.17745621502399445
1761334249168095200,0.81309521484375,0.7721330523490906,0.6455313563346863,-0.2721402645111084
1761334249186796500,0.831796630859375,0.8863648176193237,1.0596976280212402,-0.6863065958023071
1761334249205498000,0.850498046875,0.7984002828598022,0.9356921315193176,-0.9453132748603821
1761334249224199400,0.869199462890625,0.5864301919937134,0.597273051738739,-0.9288198947906494
1761334249242900700,0.887900634765625,0.5283980369567871,0.4787652790546417,-0.7852666974067688
1761334249261602300,0.906602294921875,0.6487383842468262,0.7121156454086304,-0.2861901521682739
1761334249280303600,0.9253037109375,0.5467239618301392,0.893542468547821,0.38209593296051025
1761334249299005200,0.944005126953125,0.3640754222869873,0.9454659819602966,0.7467821836471558
1761334249317706500,0.96270654296875,0.1802051067352295,0.4091266989707947,0.2214384824037552
1761334249336407800,0.98140771484375,0.24801109731197357,-0.3556760251522064,-0.5904008150100708
1761334249355109400,1.000109375,0.6047561168670654,-0.7191405892372131,-0.5897899270057678
1761334249373810700,1.018810791015625,1.1795798540115356,-0.9518800377845764,-0.24770566821098328
1761334249392512000,1.037511962890625,1.1759146451950073,-1.0642791986465454,0.47067132592201233
1761334249411213300,1.05621337890625,0.5119046568870544,-1.1840087175369263,1.1352921724319458
1761334249429915000,1.074914794921875,0.0977383628487587,-0.8651372194290161,1.1493420600891113
1761334249448616200,1.0936162109375,0.0030543238390237093,-0.17913609743118286,0.8768963813781738
1761334249467317500,1.1123173828125,-0.06414080411195755,0.2130390852689743,0.7437278628349304
1761334249486018800,1.131018798828125,-0.17226386070251465,0.17027856409549713,0.8707877397537231
1761334249504720400,1.149720458984375,-0.2626718580722809,0.0896444097161293,1.1475094556808472
1761334249523421700,1.168421630859375,-0.2974911332130432,-0.005039634648710489,1.302058219909668
1761334249542123300,1.187123291015625,-0.18692462146282196,-0.007483093533664942,1.1145228147506714
1761334249560824600,1.205824462890625,-0.039706211537122726,0.05787943676114082,0.5977311730384827
1761334249579526000,1.22452587890625,0.13439024984836578,0.15317434072494507,-0.1438586562871933
1761334249598227500,1.2432275390625,0.33597561717033386,0.33399030566215515,-0.8194751143455505
1761334249616928800,1.2619287109375,0.44898560643196106,0.5416843295097351,-1.204319953918457
1761334249635630000,1.280630126953125,0.4202749729156494,0.6553052067756653,-1.1756092309951782
1761334249654331600,1.29933154296875,0.38728827238082886,0.9503529071807861,-1.0222822427749634
1761334249673033000,1.318032958984375,0.35735589265823364,1.2130247354507446,-0.7687733173370361
1761334249691734300,1.336734375,0.19120067358016968,0.9815070033073425,-0.40775224566459656
1761334249710435800,1.355435791015625,0.0513126403093338,0.5520690679550171,0.000305432389723137
1761334249729137200,1.37413720703125,0.1185077652335167,0.5270236134529114,0.3136790692806244
1761334249747838500,1.39283837890625,0.16126830875873566,0.41645705699920654,0.014966187067329884
1761334249766539800,1.411539794921875,0.16676609218120575,-0.020311253145337105,-0.4401280879974365
1761334249785241300,1.430241455078125,0.5534434914588928,-0.8834632039070129,-0.6569850444793701
1761334249803942700,1.448942626953125,1.0806198120117188,-1.6928590536117554,-0.3857611119747162
1761334249822644000,1.46764404296875,0.4734202027320862,-1.3391683101654053,0.7168498039245605
1761334249841345500,1.486345458984375,-0.14233149588108063,-0.7289143800735474,1.1859939098358154
1761334249860046800,1.505046875,-0.49052441120147705,0.06582067906856537,0.9556979537010193
1761334249878748200,1.523748046875,-0.6249146461486816,0.5600103139877319,0.6722567081451416
1761334249897449700,1.54244970703125,-0.5723803043365479,0.6681333780288696,0.5030471682548523
1761334249916151000,1.561151123046875,-0.45448338985443115,0.5771145224571228,0.6478220820426941
1761334249934852600,1.5798525390625,-0.4471530318260193,0.3614792227745056,0.9355394244194031
1761334249953554000,1.598553955078125,-0.43371400237083435,0.04505127668380737,0.8628464937210083
1761334249972255200,1.617255126953125,-0.2889390289783478,-0.19868376851081848,0.3436114490032196
1761334249990956500,1.63595654296875,-0.03481929376721382,-0.23961171507835388,-0.43401941657066345
1761334250009658000,1.654658203125,0.2968802750110626,-0.11804962158203125,-1.0748165845870972
1761334250028359400,1.673359375,0.49541133642196655,-0.16814053058624268,-1.2440260648727417
1761334250047060700,1.692060791015625,0.4825831651687622,-0.25060728192329407,-0.9978476166725159
1761334250065762000,1.710761962890625,0.3439168632030487,-0.20051635801792145,-0.5739074349403381
1761334250084463600,1.729463623046875,0.17104214429855347,0.050549060106277466,-0.25381430983543396
1761334250103165000,1.7481650390625,0.08918625861406326,0.5154171586036682,-0.18234314024448395
1761334250121866200,1.7668662109375,0.07391463965177536,0.8294016718864441,-0.2263254076242447
1761334250140567800,1.78556787109375,0.05192350596189499,0.8831577301025391,-0.019242240116000175
1761334250159269000,1.80426904296875,0.009773836471140385,1.1207841634750366,0.4926624298095703
1761334250177970400,1.822970458984375,-0.1802051067352295,1.6901100873947144,0.9043853282928467
1761334250196672000,1.841672119140625,-0.07880155742168427,1.7493640184402466,0.5586358308792114
1761334250215373300,1.860373291015625,0.3274235129356384,0.4647153913974762,-0.4725039005279541
1761334250234074600,1.87907470703125,0.9010255336761475,-1.947589635848999,-1.4663809537887573
1761334250252776200,1.897776123046875,0.5778780579566956,-2.3788602352142334,-0.8396336436271667
1761334250271477500,1.9164775390625,0.0824667438864708,-0.7875574231147766,0.4364628791809082
1761334250290178800,1.9351787109375,-0.08918625861406326,0.6742420196533203,0.8292489647865295
1761334250308880400,1.95388037109375,-0.258395791053772,1.1000148057937622,0.8365793228149414
1761334250327581700,1.972581787109375,-0.4062250852584839,0.9399681687355042,0.9282090067863464
1761334250346283000,1.991282958984375,-0.3439168632030487,0.8306233882904053,1.0607666969299316
1761334250364984600,2.009984619140625,-0.18142683804035187,0.6540834903717041,1.0809252262115479
1761334250383686000,2.028685791015625,-0.12767073512077332,0.3272708058357239,0.9642500281333923
1761334250402387200,2.04738720703125,-0.13683371245861053,-0.15409064292907715,0.6252201199531555
1761334250421088500,2.066088623046875,-0.028099779039621353,-0.5761982202529907,0.026572618633508682
1761334250439790000,2.0847900390625,0.1893680840730667,-0.7612902522087097,-0.6136136651039124
1761334250458491400,2.103491455078125,0.42394015192985535,-0.8462004065513611,-0.9917389750480652
1761334250477192700,2.122192626953125,0.5076286196708679,-0.7502946853637695,-0.9508110284805298
1761334250495894300,2.140894287109375,0.47036588191986084,-0.46807512640953064,-0.5329795479774475
1761334250514595600,2.159595703125,0.29016077518463135,-0.27748534083366394,-0.1127045527100563
1761334250533297000,2.178296875,0.1282816082239151,-0.13942988216876984,-0.021685699000954628
1761334250551998500,2.19699853515625,0.056199558079242706,0.009010255336761475,-0.1951712965965271
1761334250570699800,2.21569970703125,0.13194678723812103,0.15378521382808685,-0.3185659945011139
1761334250589401000,2.234401123046875,0.014049889519810677,0.5282453298568726,-0.011911863461136818
1761334250608102700,2.2531025390625,-0.0769689604640007,1.187368392944336,0.795651376247406
1761334250626804000,2.271803955078125,0.22357651591300964,0.8825469017028809,1.2592977285385132
1761334250645505300,2.29050537109375,0.545502245426178,-0.7735075354576111,1.0870338678359985
1761334250664206800,2.309206787109375,0.729983389377594,-3.3287549018859863,-0.06994401663541794
1761334250682908200,2.327908203125,0.4410443603992462,-3.193142890930176,-0.6893609166145325
1761334250701609500,2.346609375,0.2412915825843811,-0.388662725687027,-0.8561269640922546
1761334250720311000,2.36531103515625,0.35246896743774414,1.3248130083084106,-0.8359684348106384
1761334250739012400,2.384012451171875,-0.08857539296150208,1.0487021207809448,-0.6166679859161377
1761334250757713700,2.402713623046875,-0.6835576891899109,0.13851359486579895,-0.10415244847536087
1761334250776415000,2.4214150390625,-0.8839213252067566,-0.07162389904260635,0.49082985520362854
1761334250795116500,2.440116455078125,-0.8362739086151123,0.20387612283229828,0.7058542370796204
1761334250813817900,2.45881787109375,-0.720820426940918,0.34865108132362366,0.5317577719688416
1761334250832519200,2.477519287109375,-0.56382817029953,0.12812888622283936,0.20372340083122253
1761334250851220700,2.496220703125,-0.3610210716724396,-0.4185950756072998,-0.10231985151767731
1761334250869922000,2.514922119140625,-0.0922405794262886,-0.8584177494049072,-0.2721402645111084
1761334250888623400,2.533623291015625,0.16676609218120575,-1.0655008554458618,-0.27947062253952026
1761334250907324700,2.55232470703125,0.27550002932548523,-1.0752747058868408,-0.16218459606170654
1761334250926026200,2.571026123046875,0.2761108875274658,-0.8883501291275024,-0.013744457624852657
1761334250944727600,2.5897275390625,0.19669845700263977,-0.4631882309913635,-0.03695731982588768
1761334250963428900,2.608428955078125,0.09712749719619751,-0.08139773458242416,-0.29474225640296936
1761334250982130400,2.62713037109375,0.06352993845939636,0.2997818887233734,-0.5360338687896729
1761334251000831700,2.645831787109375,-0.03237583488225937,0.45249807834625244,-0.5842921733856201
1761334251019533000,2.664532958984375,-0.2761108875274658,0.5447386503219604,-0.20616686344146729
1761334251038234600,2.683234619140625,-0.5222893953323364,1.651625633239746,0.40958482027053833
1761334251056936000,2.70193603515625,-0.38789913058280945,2.494619131088257,0.31062474846839905
1761334251075637200,2.72063720703125,0.1386663019657135,1.2423462867736816,-0.37354379892349243
1761334251094338800,2.7393388671875,0.9511164426803589,-2.3758058547973633,-0.7211259007453918
1761334251113040100,2.7580400390625,1.2534945011138916,-4.311025619506836,-0.0027488914784044027
1761334251131741400,2.776741455078125,0.7953459620475769,-2.779587507247925,1.434615969657898
1761334251150443000,2.795443115234375,0.4416552484035492,-0.6299542784690857,1.4034618139266968
1761334251169144300,2.814144287109375,-0.10995566099882126,0.8849903345108032,0.6514872908592224
1761334251187845600,2.832845703125,-0.6811142563819885,1.4115557670593262,0.36193737387657166
1761334251206547000,2.851546875,-0.8735366463661194,1.1702642440795898,0.4456258714199066
1761334251225248500,2.87024853515625,-0.7611374855041504,0.6204859018325806,0.7681624889373779
1761334251243949800,2.88894970703125,-0.6579013466835022,0.14401137828826904,1.0467168092727661
1761334251262651100,2.907651123046875,-0.5754346251487732,-0.23655737936496735,0.9563088417053223
1761334251281352700,2.926352783203125,-0.4465421438217163,-0.4021017551422119,0.47555822134017944
1761334251300054000,2.945053955078125,-0.2932150959968567,-0.35995206236839294,-0.13530655205249786
1761334251318755300,2.96375537109375,-0.04459312930703163,-0.32268932461738586,-0.6380482912063599
1761334251337456600,2.98245654296875,0.20280711352825165,-0.27320927381515503,-0.897665798664093
1761334251356158200,3.001158203125,0.3084867000579834,-0.32818710803985596,-0.8732311725616455
1761334251374859500,3.019859619140625,0.2632827162742615,-0.2286161482334137,-0.6783653497695923
1761334251393560800,3.038560791015625,0.09896009415388107,0.14217877388000488,-0.43401941657066345
1761334251412262400,3.057262451171875,-0.03543015569448471,0.6027708053588867,-0.2764163017272949
1761334251430963700,3.075963623046875,-0.20158538222312927,0.9717331528663635,-0.035735588520765305
1761334251449665000,3.0946650390625,-0.4685332775115967,1.208748698234558,0.4572322964668274
1761334251468366300,3.113366455078125,-0.4740310609340668,1.483637809753418,0.9104939699172974
1761334251487068000,3.13206787109375,-0.1802051067352295,1.4524837732315063,0.6905826330184937
1761334251505769200,3.150769287109375,-0.09285144507884979,0.5355756878852844,-0.04306596517562866
1761334251524470500,3.169470458984375,-0.07941242307424545,-0.8388700485229492,-0.7632755637168884
1761334251543172000,3.188172119140625,0.2932150959968567,-1.780212640762329,-1.5971059799194336
1761334251561873400,3.206873291015625,0.4868592321872711,-1.0997092723846436,-1.3264929056167603
1761334251580575000,3.225574951171875,0.3121519088745117,0.0902552679181099,-0.26969680190086365
1761334251599276300,3.2442763671875,0.15271618962287903,0.3040579557418823,0.36621344089508057
1761334251617977600,3.2629775390625,-0.15271618962287903,0.06154462695121765,0.6068941354751587
1761334251636679200,3.28167919921875,-0.4783071279525757,0.13729186356067657,0.5164861679077148
1761334251655380500,3.30038037109375,-0.5583304166793823,0.5343539714813232,0.32162031531333923
1761334251674081800,3.319081787109375,-0.4563159942626953,0.9240856766700745,0.27519458532333374
1761334251692783000,3.337783203125,-0.31520622968673706,0.8629992008209229,0.2837466895580292
1761334251711484700,3.356484619140625,-0.24862197041511536,0.2851211428642273,0.2263254076242447
1761334251730186000,3.37518603515625,-0.18753549456596375,-0.27198755741119385,-0.006414080038666725
1761334251748887300,3.39388720703125,-0.002443459117785096,-0.5309942364692688,-0.3124573230743408
1761334251767588600,3.412588623046875,0.20463970303535461,-0.6000219583511353,-0.4517345130443573
1761334251786290200,3.431290283203125,0.32131487131118774,-0.6268999576568604,-0.4358520209789276
1761334251804991500,3.449991455078125,0.4214966893196106,-0.5291616320610046,-0.29962918162345886
1761334251823692800,3.46869287109375,0.3707949221134186,-0.28848087787628174,-0.0766635313630104
1761334251842394400,3.487394287109375,0.19181154668331146,-0.08017600327730179,0.04367683082818985
1761334251861095700,3.506095703125,0.020769402384757996,-0.016646064817905426,-0.012522728182375431
1761334251879797000,3.524796875,-0.04153880476951599,0.1922696828842163,0.12064579129219055
1761334251898498300,3.543498291015625,-0.13683371245861053,0.7493783831596375,0.4572322964668274
1761334251917200000,3.562199951171875,-0.1081230640411377,1.35657799243927,0.41874781250953674
1761334251935901200,3.580901123046875,-0.056810423731803894,1.0761910676956177,0.02107483521103859
1761334251954602500,3.5996025390625,-0.033597562462091446,-0.304974228143692,-0.3686569035053253
1761334251973304000,3.618303955078125,0.40866854786872864,-2.0715951919555664,-1.0454950332641602
1761334251992005400,3.63700537109375,0.6291907429695129,-2.52852201461792,-0.9178243279457092
1761334252010706700,3.655706787109375,0.2370155304670334,-1.004414439201355,0.25442516803741455
1761334252029408300,3.674408203125,-0.09651663154363632,0.4017963111400604,0.8139773011207581
1761334252048109600,3.693109619140625,-0.3194822669029236,0.7927497625350952,0.878118097782135
1761334252066811000,3.711810791015625,-0.5210676789283752,0.5581777095794678,0.8915571570396423
1761334252085512400,3.730512451171875,-0.5387827157974243,0.1769980639219284,0.8329141139984131
1761334252104213800,3.7492138671875,-0.3903425931930542,0.04505127668380737,0.7974839806556702
1761334252122915000,3.7679150390625,-0.3042106628417969,0.13423752784729004,0.6740893125534058
1761334252141616400,3.786616455078125,-0.3084867000579834,0.02611446939408779,0.323452889919281
1761334252160318000,3.80531787109375,-0.24434591829776764,-0.11377356201410294,-0.15179990231990814
1761334252179019300,3.824019287109375,-0.03237583488225937,-0.3110828995704651,-0.5335903763771057
1761334252197720800,3.842720947265625,0.18325942754745483,-0.5780308246612549,-0.6239983439445496
1761334252216422100,3.861422119140625,0.29016077518463135,-0.8327614068984985,-0.4663952589035034
1761334252235123500,3.88012353515625,0.21868959069252014,-0.8321505188941956,-0.14569124579429626
1761334252253824800,3.89882470703125,-0.004276053514331579,-0.5077813267707825,0.07422006875276566
1761334252272526300,3.9175263671875,-0.235793799161911,0.10369429737329483,-0.0021380267571657896
1761334252291227600,3.9362275390625,-0.4367683231830597,0.5789470672607422,-0.13469567894935608
1761334252309929000,3.954928955078125,-0.5937605500221252,0.5453495383262634,-0.1493564397096634
1761334252328630500,3.973630615234375,-0.6438514590263367,0.3156643807888031,0.038789913058280945
1761334252347331800,3.992331787109375,-0.6957749724388123,0.6730202436447144,0.6490437984466553
1761334252366033200,4.011033203125,-0.49663305282592773,0.967457115650177,0.8414662480354309
1761334252384734500,4.029734375,-0.11362084746360779,0.43661558628082275,0.23548837006092072
1761334252403436000,4.04843603515625,0.360410213470459,-1.3025164604187012,-0.9770781993865967
1761334252422137300,4.067137451171875,0.6157516837120056,-2.8687736988067627,-1.906814455986023
1761334252440838700,4.085838623046875,0.48075059056282043,-1.3868157863616943,-0.7779362797737122
1761334252459540000,4.1045400390625,0.36712974309921265,0.45310893654823303,0.467006117105484
1761334252478241500,4.123241455078125,0.24251331388950348,0.8098539710044861,0.9556979537010193
1761334252496942800,4.14194287109375,-0.020158538594841957,0.28695371747016907,1.183550477027893
1761334252515644200,4.16064404296875,-0.37690356373786926,0.17027856409549713,1.2202024459838867
1761334252534345700,4.179345703125,-0.481361448764801,0.4689914286136627,0.9550870656967163
1761334252553047000,4.198047119140625,-0.3860665261745453,0.6546943187713623,0.5763509273529053
1761334252571748400,4.216748291015625,-0.31154105067253113,0.4030180275440216,0.17745621502399445
1761334252590449700,4.23544970703125,-0.29504770040512085,-0.141262486577034,-0.2568686306476593
1761334252609151200,4.254151123046875,-0.14110976457595825,-0.4815141558647156,-0.5623010396957397
1761334252627852500,4.2728525390625,0.08613193035125732,-0.5761982202529907,-0.6325504779815674
1761334252646553900,4.291553955078125,0.16737695038318634,-0.5071704983711243,-0.467006117105484
1761334252665255400,4.31025537109375,0.08429934084415436,-0.37400195002555847,-0.21838416159152985
1761334252683956700,4.328956787109375,-0.07757982611656189,-0.12354740500450134,-0.10476330667734146
1761334252702658000,4.347657958984375,-0.2211330533027649,0.25152358412742615,-0.08643736690282822
1761334252721359600,4.366359619140625,-0.2412915825843811,0.606436014175415,-0.05589412897825241
1761334252740061000,4.38506103515625,-0.18631376326084137,0.7017309069633484,0.04734202101826668
1761334252758762200,4.40376220703125,-0.205861434340477,0.4378373324871063,0.40775224566459656
1761334252777463800,4.4224638671875,-0.22785256803035736,0.301003634929657,0.6887500286102295
1761334252796165000,4.4411650390625,-0.13255766034126282,0.7286089658737183,0.5244274139404297
1761334252814866400,4.459866455078125,0.13011419773101807,0.661413848400116,-0.383928507566452
1761334252833568000,4.478568115234375,0.5216785073280334,-0.6635518670082092,-1.740659236907959
1761334252852269300,4.497269287109375,0.9364557266235352,-2.2224788665771484,-2.6190826892852783
1761334252870970600,4.515970703125,1.2253947257995605,-1.7325652837753296,-0.8817833065986633
1761334252889672200,4.534672119140625,0.8491020202636719,-0.7759509682655334,0.8567378520965576
1761334252908373500,4.55337353515625,0.3689623177051544,-0.48334676027297974,0.9636391997337341
1761334252927074800,4.57207470703125,-0.13988803327083588,-0.4656316637992859,0.35705047845840454
1761334252945776000,4.590776123046875,-0.6102539300918579,-0.10583232343196869,-0.028405211865901947
1761334252964477700,4.609477783203125,-0.6359102129936218,0.38041603565216064,0.10598503798246384
1761334252983179000,4.628178955078125,-0.5797106623649597,0.5954404473304749,0.34666576981544495
1761334253001880300,4.64688037109375,-0.5106829404830933,0.2338084876537323,0.24281874299049377
1761334253020581600,4.66558154296875,-0.48930269479751587,-0.4338667094707489,-0.09560033679008484
1761334253039283200,4.684283203125,-0.360410213470459,-0.771064043045044,-0.35582873225212097
1761334253057984500,4.702984619140625,-0.10140355676412582,-0.6611084342002869,-0.38820457458496094
1761334253076685800,4.721685791015625,0.07757982611656189,-0.4027126133441925,-0.22388194501399994
1761334253095387400,4.740387451171875,-0.012217295356094837,-0.2133445292711258,-0.024740023538470268
1761334253114088700,4.759088623046875,-0.21258094906806946,-0.06123919412493706,0.11759147047996521
1761334253132790000,4.7777900390625,-0.30482152104377747,0.1311832070350647,0.13164135813713074
1761334253151491300,4.7964912109375,-0.36224281787872314,0.37064221501350403,0.12370011955499649
1761334253170193000,4.81519287109375,-0.46364638209342957,0.5575668215751648,0.2000582218170166
1761334253188894200,4.833894287109375,-0.5137372612953186,0.5337430834770203,0.3637699782848358
1761334253207595500,4.852595458984375,-0.4618137776851654,0.47204574942588806,0.5983420610427856
1761334253226297000,4.871297119140625,-0.32681265473365784,0.8257364630699158,0.6563742160797119
1761334253244998400,4.889998291015625,0.16249002516269684,0.9326378107070923,0.2507599890232086
1761334253263699700,4.90869970703125,0.4367683231830597,0.11285726726055145,-0.2886336147785187
1761334253282401300,4.9274013671875,0.5155698657035828,-1.8926118612289429,-1.7547091245651245
1761334253301102600,4.9461025390625,0.8240565657615662,-1.1937824487686157,-2.39428448677063
1761334253319804000,4.964803955078125,1.2400555610656738,1.2050834894180298,-1.1530072689056396
1761334253338505500,4.98350537109375,0.8533781170845032,1.531285285949707,0.13225223124027252
1761334253357206800,5.002206787109375,0.6078104376792908,0.31932955980300903,0.6997455954551697
1761334253375908000,5.020908203125,0.2406807243824005,-0.5713112950325012,1.0387755632400513
1761334253394609400,5.039609375,-0.4111120104789734,-0.09972367435693741,0.961195707321167
1761334253413311000,5.05831103515625,-0.6847794055938721,1.0334304571151733,0.43401941657066345
1761334253432012300,5.07701220703125,-0.627968966960907,1.6730059385299683,0.04917461425065994
1761334253450713600,5.095713623046875,-0.47097674012184143,1.123227596282959,-0.10598503798246384
1761334253469415000,5.114414794921875,-0.3848448097705841,-0.06062832847237587,-0.17318016290664673
1761334253488116500,5.133116455078125,-0.2461785078048706,-0.8168789148330688,-0.2611446976661682
1761334253506817800,5.15181787109375,0.03848448023200035,-1.012966513633728,-0.2977965772151947
1761334253525519400,5.170519287109375,0.2052505612373352,-0.9585995674133301,-0.15546508133411407
1761334253544220700,5.189220703125,0.0922405794262886,-0.8663589954376221,0.0009162971982732415
1761334253562922000,5.207921875,-0.09590577334165573,-0.5444332361221313,-0.12675444781780243
1761334253581623300,5.226623291015625,-0.21930044889450073,-0.0013744457392022014,-0.43951719999313354
1761334253600324900,5.245324951171875,-0.2663370370864868,0.3162752389907837,-0.6130027770996094
1761334253619026200,5.264026123046875,-0.22846342623233795,0.27229297161102295,-0.33139413595199585
1761334253637727500,5.2827275390625,-0.24984370172023773,0.2838993966579437,0.32650721073150635
1761334253656429000,5.301428955078125,-0.17531819641590118,0.8886555433273315,0.8561269640922546
1761334253675130400,5.32013037109375,0.17287473380565643,0.9014837145805359,0.4224129915237427
1761334253693831700,5.338831787109375,0.379347026348114,-0.07528908550739288,-0.406530499458313
1761334253712533000,5.357532958984375,0.43860089778900146,-1.3910918235778809,-1.3136646747589111
1761334253731234600,5.376234619140625,1.0360267162322998,-1.0942115783691406,-1.6673554182052612
1761334253749935900,5.394935791015625,1.2333359718322754,0.16783510148525238,-0.6814196705818176
1761334253768637200,5.41363720703125,0.5900954008102417,0.5123628377914429,0.5311469435691833
1761334253787338800,5.4323388671875,0.34208428859710693,0.4860956370830536,1.0980294942855835
1761334253806040000,5.4510400390625,-0.014660755172371864,0.4604393243789673,1.1523964405059814
1761334253824741400,5.469741455078125,-0.42394015192985535,0.8251255750656128,0.8536835312843323
1761334253843442700,5.488442626953125,-0.45937031507492065,1.3547453880310059,0.383928507566452
1761334253862144300,5.507144287109375,-0.2809978127479553,1.439044713973999,0.08399390429258347
1761334253880845600,5.525845458984375,-0.17043127119541168,0.772591233253479,-0.06811141967773438
1761334253899547000,5.544546875,-0.15088360011577606,-0.12171480804681778,-0.2458730787038803
1761334253918248400,5.56324853515625,-0.053145237267017365,-0.5267181396484375,-0.5024362802505493
1761334253936949800,5.58194970703125,0.12705987691879272,-0.490066260099411,-0.6423243284225464
1761334253955651000,5.600651123046875,0.24923282861709595,-0.3837758004665375,-0.48533207178115845
1761334253974352400,5.619352294921875,0.23518294095993042,-0.3770562708377838,-0.1805105358362198
1761334253993054000,5.638053955078125,0.2724456787109375,-0.378888875246048,-0.0821613147854805
1761334254011755300,5.65675537109375,0.30543237924575806,-0.09666935354471207,-0.18356487154960632
1761334254030456600,5.67545654296875,0.15577052533626556,0.16905683279037476,-0.3387245237827301
1761334254049158100,5.694158203125,0.0616973415017128,0.3669770061969757,-0.30024003982543945
1761334254067859500,5.712859375,-0.0873536616563797,1.2881611585617065,0.2977965772151947
1761334254086560800,5.731560791015625,0,1.9466733932495117,0.8665117025375366
1761334254105262300,5.750262451171875,0.5687150955200195,0.5758927464485168,0.1646280586719513
1761334254123963600,5.768963623046875,0.7654135823249817,-1.4350740909576416,-0.8915571570396423
1761334254142665000,5.7876650390625,0.618806004524231,-1.5719077587127686,-0.9654718041419983
1761334254161366500,5.806366455078125,0.9804379940032959,-0.14248420298099518,-0.7706059217453003
1761334254180067800,5.82506787109375,1.2974767684936523,0.6772963404655457,-0.31001389026641846
1761334254198769200,5.84376904296875,0.7312051653862,0.4030180275440216,0.6459894776344299
1761334254217470700,5.862470703125,0.3549124300479889,0.0798705667257309,1.1670571565628052
1761334254236172000,5.881172119140625,0.13744457066059113,0.5410735011100769,0.9599739909172058
1761334254254873300,5.899873291015625,-0.021380268037319183,0.9833396077156067,0.5006036758422852
1761334254273574700,5.91857470703125,-0.03176496922969818,0.8929315805435181,0.3503309488296509
1761334254292276200,5.937276123046875,-0.05925388261675835,0.3559814393520355,0.3643808364868164
1761334254310977500,5.9559775390625,-0.06475166976451874,-0.17852523922920227,0.2733619809150696
1761334254329678800,5.974678955078125,-0.006108647678047419,-0.4179842174053192,-0.05345066636800766
1761334254348380400,5.99338037109375,0.08002328872680664,-0.5401571989059448,-0.42791077494621277
1761334254367081700,6.012081787109375,0.14660754799842834,-0.6391173005104065,-0.6447677612304688
1761334254385783000,6.030782958984375,0.1588248461484909,-0.5688678026199341,-0.5103775262832642
1761334254404484400,6.049484375,0.07391463965177536,-0.31902414560317993,-0.24892739951610565
1761334254423186000,6.06818603515625,-0.07880155742168427,-0.0899498388171196,-0.18417572975158691
1761334254441887200,6.08688720703125,-0.21135921776294708,-0.03191768378019333,-0.26969680190086365
1761334254460588500,6.105588623046875,-0.2718348205089569,-0.1308777779340744,-0.35766133666038513
1761334254479290000,6.1242900390625,-0.2712239623069763,-0.1314886510372162,-0.3692677617073059
1761334254497991400,6.142991455078125,-0.1649334877729416,-0.08323032408952713,-0.2617555558681488
1761334254516692700,6.161692626953125,-0.0977383628487587,-0.16386447846889496,-0.3173442482948303
1761334254535394000,6.18039404296875,-0.04520399495959282,-0.439364492893219,-0.6520981788635254
1761334254554095600,6.199095703125,-0.059864748269319534,-0.9512691497802734,-1.2257001399993896
1761334254572797000,6.217796875,0.2309068888425827,-1.6953024864196777,-1.6197079420089722
1761334254591498200,6.236498291015625,0.3329212963581085,-1.356272578239441,-0.22876885533332825
1761334254610200300,6.255200439453125,0.12217295914888382,-0.550541877746582,1.4767656326293945
1761334254628901000,6.273901123046875,-0.27366742491722107,0.08231402933597565,1.4621047973632812
1761334254647602400,6.2926025390625,-0.5699368119239807,0.34193155169487,0.9306524991989136
1761334254666303700,6.3113037109375,-0.7037162184715271,0.3816377818584442,0.8042035102844238
1761334254685005300,6.33000537109375,-0.6035344004631042,0.5172497630119324,0.9673043489456177
1761334254703706600,6.34870654296875,-0.4575377106666565,0.6754637360572815,1.089477300643921
1761334254722408000,6.367407958984375,-0.42882707715034485,0.5258018374443054,0.878118097782135
1761334254741109500,6.386109619140625,-0.4214966893196106,0.07620538026094437,0.40714138746261597
1761334254759810800,6.404810791015625,-0.3231474757194519,-0.23228132724761963,-0.11026109009981155
1761334254778512100,6.42351220703125,-0.05253437161445618,-0.3092502951622009,-0.39309149980545044
1761334254797213700,6.442213623046875,0.1692095398902893,-0.3611738085746765,-0.4053087830543518
1761334254815915000,6.4609150390625,0.09285144507884979,-0.40026915073394775,-0.2202167510986328
1761334254834616300,6.4796162109375,-0.19242240488529205,-0.1259908676147461,-0.0461202897131443
1761334254853317600,6.498317626953125,-0.3347539007663727,0.41645705699920654,-0.19394956529140472
1761334254872019200,6.517019287109375,-0.2528980076313019,0.8287907838821411,-0.4773908257484436
1761334254890720500,6.535720458984375,-0.22418737411499023,0.8623883724212646,-0.5885682106018066
1761334254909421800,6.554421875,-0.2156352698802948,0.7249437570571899,-0.44990190863609314
1761334254928123400,6.573123291015625,-0.24312418699264526,1.0291544198989868,0.2721402645111084
1761334254946824700,6.59182470703125,-0.08613193035125732,1.1378883123397827,1.0338886976242065
1761334254965526000,6.610526123046875,0.22357651591300964,0.5031998753547668,1.053436279296875
1761334254984227600,6.6292275390625,0.29443681240081787,-0.8852958083152771,0.2214384824037552
1761334255002929000,6.647928955078125,0.18875721096992493,-2.6732969284057617,-1.311832070350647
1761334255021630200,6.666630126953125,-0.12278381735086441,-2.82540225982666,-2.0631957054138184
1761334255040331500,6.68533154296875,0.037262752652168274,-0.7942769527435303,-1.2495238780975342
1761334255059033000,6.704033203125,0.33047783374786377,0.5306887626647949,-0.2360992431640625
1761334255077734400,6.722734375,0.1594357043504715,0.3455967605113983,0.2984074354171753
1761334255096435700,6.741435791015625,-0.08124501258134842,-0.42531460523605347,0.46395179629325867
1761334255115137300,6.76013720703125,-0.24434591829776764,-0.6519454121589661,0.5213730931282043
1761334255133838600,6.778838623046875,-0.3426951467990875,0.019394956529140472,0.47006043791770935
1761334255152540000,6.797539794921875,-0.401949018239975,0.9198096394538879,0.20738859474658966
1761334255171241200,6.8162412109375,-0.370184063911438,1.2606722116470337,-0.08826996386051178
1761334255189942800,6.83494287109375,-0.32192572951316833,0.8629992008209229,-0.26908594369888306
1761334255208644000,6.85364404296875,-0.28038692474365234,0.1824958473443985,-0.38759371638298035
1761334255227345400,6.872345458984375,-0.12461641430854797,-0.16936226189136505,-0.4309650957584381
1761334255246047000,6.891046875,0.07757982611656189,-0.03741546720266342,-0.457843154668808
1761334255264748300,6.909748291015625,0.17653992772102356,0.29245150089263916,-0.4315759539604187
1761334255283449600,6.92844970703125,0.10934479534626007,0.4738783538341522,-0.33017241954803467
1761334255302151000,6.94715087890625,0.0030543238390237093,0.5960513353347778,-0.21288637816905975
1761334255320852500,6.9658525390625,-0.02871064469218254,0.597273051738739,-0.11698060482740402
1761334255339553800,6.9845537109375,0.030543239787220955,0.4964803457260132,0.2562577724456787
1761334255358255000,7.003255126953125,0.0360410213470459,0.5960513353347778,0.8103121519088745
1761334255376956700,7.021956787109375,0.07024945318698883,1.2356266975402832,1.14017915725708
1761334255395658000,7.040657958984375,0.11484257876873016,1.5056289434432983,0.6081159114837646
1761334255414359300,7.059359375,0.11362084746360779,0.4689914286136627,-0.6588176488876343
1761334255433060600,7.078060546875,0.3646862804889679,-1.8449643850326538,-2.0717480182647705
1761334255451762200,7.09676220703125,0.5723803043365479,-2.199265956878662,-1.4181225299835205
1761334255470463500,7.11546337890625,0.6310232877731323,-0.9231693744659424,0.5012145638465881
1761334255489164800,7.134164794921875,0.3970620930194855,-0.036804601550102234,1.2085959911346436
1761334255507866000,7.1528662109375,-0.027488915249705315,0.35903576016426086,0.9031635522842407
1761334255526567700,7.171567626953125,-0.4569268524646759,0.578336238861084,0.47372564673423767
1761334255545269000,7.19026904296875,-0.5626064538955688,0.8544471263885498,0.323452889919281
1761334255563970300,7.20897021484375,-0.4050033390522003,0.790917158126831,0.5983420610427856
1761334255582672000,7.227671875,-0.3237583339214325,0.44700029492378235,0.9379828572273254
1761334255601373200,7.246373291015625,-0.25961753726005554,-0.06979130208492279,0.9477567076683044
1761334255620074500,7.265074462890625,-0.20158538222312927,-0.3617846667766571,0.562911868095398
1761334255638775800,7.28377587890625,-0.18814635276794434,-0.3868301212787628,-0.026572618633508682
1761334255657477400,7.302477294921875,-0.06291907280683517,-0.1510363221168518,-0.5006036758422852
1761334255676178700,7.3211787109375,0.0720820426940918,0.17821979522705078,-0.7589994668960571
1761334255694880000,7.3398798828125,0.1539379209280014,0.4292852282524109,-0.664926290512085
1761334255713581600,7.35858154296875,0.1637117564678192,0.4286743700504303,-0.4364628791809082
1761334255732283000,7.377282958984375,0.0977383628487587,0.2887863218784332,-0.18356487154960632
1761334255750984200,7.395984130859375,-0.03787361457943916,-0.06123919412493706,-0.15790854394435883
1761334255769685500,7.414685546875,-0.1178968995809555,-0.5988001823425293,-0.0027488914784044027
1761334255788387000,7.433386962890625,-0.3274235129356384,-0.2835939824581146,0.7480039000511169
1761334255807088400,7.45208837890625,-0.5369501113891602,0.6644681692123413,1.2947279214859009
1761334255825789700,7.470789794921875,-0.23762640357017517,1.0315978527069092,0.9483675956726074
1761334255844491000,7.489490966796875,0.2559523284435272,-0.5713112950325012,-0.6319395899772644
1761334255863192600,7.508192626953125,0.4685332775115967,-3.171151876449585,-2.7907357215881348
1761334255881894000,7.526893798828125,0.7379246354103088,-2.670853614807129,-2.140775680541992
1761334255900595200,7.54559521484375,0.8271108865737915,-0.5291616320610046,0.3533852696418762
1761334255919296800,7.564296875,0.20341797173023224,0.044440411031246185,1.7162245512008667
1761334255937998000,7.582998046875,-0.27000224590301514,-0.26710063219070435,1.7412700653076172
1761334255956699400,7.601699462890625,-0.6194168925285339,-0.3153589367866516,1.2818996906280518
1761334255975400700,7.620400634765625,-0.7947350740432739,0.1617264449596405,1.0149518251419067
1761334255994102300,7.639102294921875,-0.8045089244842529,0.5392408967018127,0.8005383014678955
1761334256012803600,7.657803466796875,-0.7043271064758301,0.7707586288452148,0.5311469435691833
1761334256031505000,7.6765048828125,-0.5516108870506287,0.6308705806732178,0.2782489061355591
1761334256050206500,7.69520654296875,-0.4917461574077606,0.2955058515071869,0.06933315098285675
1761334256068907800,7.71390771484375,-0.4734202027320862,0.1928805559873581,-0.2360992431640625
1761334256087609000,7.732609130859375,-0.3555232882499695,0.15073087811470032,-0.6136136651039124
1761334256106310400,7.751310302734375,-0.08674279600381851,-0.10583232343196869,-0.8078686594963074
1761334256125012000,7.770011962890625,0.14294235408306122,-0.3214675784111023,-0.693026065826416
1761334256143713300,7.78871337890625,0.1844811588525772,-0.3568977415561676,-0.42913252115249634
1761334256162414600,7.80741455078125,0.04764745384454727,-0.22128576040267944,-0.27947062253952026
1761334256181116000,7.826115966796875,-0.10567960888147354,-0.07528908550739288,-0.2770271897315979
1761334256199817500,7.8448173828125,-0.1288924664258957,-0.05085449293255806,-0.15118902921676636
1761334256218518800,7.863518798828125,-0.08368847519159317,0.33887723088264465,0.536644697189331
1761334256237220000,7.88222021484375,-0.29016077518463135,0.9607375860214233,1.0033453702926636
1761334256255921700,7.900921630859375,-0.3243691921234131,1.0621411800384521,0.536644697189331
1761334256274623000,7.919623046875,0.04825831577181816,-0.27198755741119385,-0.6081159114837646
1761334256293324300,7.93832421875,0.516791582107544,-3.0074400901794434,-2.297157049179077
1761334256312025600,7.957025634765625,0.2822195291519165,-1.920711636543274,-2.1419973373413086
1761334256330727200,7.97572705078125,0.12217295914888382,0.9271399974822998,-0.7186824083328247
1761334256349428500,7.994428466796875,-0.027488915249705315,1.3981167078018188,0.27397283911705017
1761334256368129800,8.0131298828125,-0.28405213356018066,0.7249437570571899,0.9324851036071777
1761334256386831400,8.031831298828125,-0.41233372688293457,0.310166597366333,1.311832070350647
1761334256405532700,8.05053271484375,-0.4043924808502197,0.45738500356674194,1.3637555837631226
1761334256424234000,8.06923388671875,-0.20463970303535461,0.5978838801383972,1.089477300643921
1761334256442935300,8.087935302734374,0.034208428114652634,0.35048365592956543,0.757777750492096
1761334256461636900,8.106636962890626,0.12095122784376144,-0.2689332067966461,0.3814850449562073
1761334256480338200,8.125338134765625,0.1282816082239151,-0.7344121932983398,-0.10048725455999374
1761334256499039500,8.14403955078125,0.27855435013771057,-0.7661771774291992,-0.6563742160797119
1761334256517740800,8.16274072265625,0.4770853817462921,-0.6006327867507935,-1.0687079429626465
1761334256536442400,8.1814423828125,0.5656607747077942,-0.5761982202529907,-1.0852012634277344
1761334256555143700,8.200143798828124,0.5277871489524841,-0.6488910913467407,-0.7107411623001099
1761334256573845000,8.218844970703126,0.3836230933666229,-0.5963567495346069,-0.2733619809150696
1761334256592546600,8.237546630859375,0.18570289015769958,-0.40637779235839844,-0.11636973917484283
1761334256611247900,8.256247802734375,-0.024434590712189674,-0.20112723112106323,-0.27091851830482483
1761334256629949200,8.27494921875,-0.1954767256975174,0.05299251899123192,-0.34788748621940613
1761334256648650500,8.293650390625,-0.24434591829776764,-0.0007635809597559273,-0.34177884459495544
1761334256667352000,8.31235205078125,-0.41355544328689575,0.04810560122132301,-0.2513708472251892
1761334256686053400,8.331053466796876,-0.4477638900279999,-0.2848156988620758,-0.25442516803741455
1761334256704754700,8.349754638671875,-0.027488915249705315,-1.7014111280441284,-0.8481857180595398
1761334256723456000,8.3684560546875,0.4312705397605896,-1.1100940704345703,-1.5683953762054443
1761334256742157600,8.387157470703125,0.3995055556297302,1.049312949180603,-0.981354296207428
1761334256760859000,8.40585888671875,0.08857539296150208,1.2008074522018433,0.4828886091709137
1761334256779560200,8.424560302734376,-0.4477638900279999,0.1262962967157364,1.9208643436431885
1761334256798261500,8.443261474609375,-0.8497129082679749,-0.06856957077980042,2.430936336517334
1761334256826313700,8.471313720703124,-0.47525280714035034,1.041982650756836,1.5628975629806519
1761334256845015000,8.49001513671875,-0.6175842881202698,0.6944005489349365,1.266017198562622
1761334256863716400,8.50871630859375,-0.7513636946678162,0.1818849891424179,1.053436279296875
1761334256882418000,8.52741796875,-0.6621774435043335,-0.1870773434638977,0.48533207178115845
1761334256901119200,8.546119140625,-0.4673115611076355,-0.47235119342803955,-0.0461202897131443
1761334256919820500,8.564820556640624,-0.18753549456596375,-0.5902481079101562,-0.4407389461994171
1761334256938521900,8.58352197265625,0.03298669680953026,-0.513279139995575,-0.8121446967124939
1761334256957223400,8.602223388671876,0.2730565667152405,-0.030695954337716103,-0.9514219164848328
1761334256975924700,8.6209248046875,0.22846342623233795,0.0487164668738842,-0.6514872908592224
1761334256994626000,8.6396259765625,0.1948658674955368,-0.27137666940689087,-0.2306014597415924
1761334257013327400,8.658327392578125,0.17592905461788177,-0.3061959743499756,-0.14813470840454102
1761334257032029000,8.67702880859375,0.08979712426662445,-0.05329795181751251,-0.2568686306476593
1761334257050730200,8.695730224609376,0.001221729558892548,0.15561780333518982,-0.18356487154960632
1761334257069431600,8.714431640625,-0.053756099194288254,-0.16081015765666962,0.07238747924566269
1761334257088133000,8.733133056640625,-0.3689623177051544,-0.37400195002555847,0.4114174246788025
1761334257106834400,8.75183447265625,-0.43310311436653137,-0.5328267812728882,0.17134757339954376
1761334257125535700,8.77053564453125,-0.5491674542427063,-0.4436405599117279,-0.7473930716514587
1761334257144237000,8.789237060546874,0.08491020649671555,-0.49861836433410645,-2.5378377437591553
1761334257162938600,8.807938720703126,0.729983389377594,0.10125083476305008,-3.1138832569122314
1761334257181640000,8.826639892578125,0.5174024701118469,0.5337430834770203,-0.7626646757125854
1761334257200341200,8.84534130859375,0.1899789422750473,0.1623373180627823,1.2812888622283936
1761334257219042600,8.86404248046875,0.15699224174022675,-0.08323032408952713,1.7663154602050781
1761334257237743900,8.882743896484374,0.13500112295150757,-0.052076224237680435,1.2806780338287354
1761334257256445400,8.901445556640626,-0.024434590712189674,0.1922696828842163,0.6307178735733032
1761334257275146800,8.920146728515626,-0.2254091054201126,0.1519526094198227,0.3393353819847107
1761334257293848000,8.93884814453125,-0.20463970303535461,-0.0435241162776947,0.1536324918270111
1761334257312549400,8.95754931640625,-0.07941242307424545,-0.04535670951008797,-0.19944734871387482
1761334257331251000,8.9762509765625,0.07330377399921417,-0.18280129134655,-0.4725039005279541
1761334257349952300,8.9949521484375,0.2260199636220932,-0.5120574235916138,-0.5360338687896729
1761334257368653600,9.013653564453126,0.3249800503253937,-0.490677148103714,-0.6001746654510498
1761334257387355000,9.03235498046875,0.3591884970664978,-0.32452189922332764,-0.5519163012504578
1761334257406056400,9.051056396484375,0.24495677649974823,-0.16569706797599792,-0.34666576981544495
1761334257424757800,9.0697578125,0.08857539296150208,0.008399390615522861,-0.168904110789299
1761334257443459000,9.088458984375,-0.031154103577136993,0.08781181275844574,-0.08765909820795059
1761334257462160400,9.107160400390624,-0.15577052533626556,0.06582067906856537,0.07605266571044922
1761334257480862000,9.125862060546876,-0.29443681240081787,-0.11133010685443878,0.2617555558681488
1761334257499563300,9.144563232421875,-0.4111120104789734,-0.18280129134655,0.3430005609989166
1761334257518264600,9.1632646484375,-0.593149721622467,-0.06551524996757507,0.3790415823459625
1761334257536966100,9.181966064453125,-0.6902772188186646,-0.1363755613565445,-0.09132428467273712
1761334257555667500,9.20066748046875,-0.4685332775115967,-0.24205516278743744,-0.8677334189414978
1761334257574368800,9.21936865234375,0.0824667438864708,-0.3727802336215973,-1.6783509254455566
1761334257593070000,9.238070068359375,0.4514290690422058,0.10674861818552017,-1.436448574066162
1761334257611771600,9.256771728515625,0.4111120104789734,0.38530296087265015,0.20250166952610016
1761334257630473000,9.275472900390625,0.3176496922969818,-0.07284562289714813,1.2055416107177734
1761334257649174300,9.29417431640625,0.20402882993221283,-0.40088000893592834,1.1841614246368408
1761334257667875600,9.31287548828125,0.039706211537122726,-0.35384342074394226,0.8732311725616455
1761334257686577200,9.3315771484375,-0.17165300250053406,-0.09239330142736435,0.6557633280754089
1761334257705278500,9.350278564453125,-0.37751442193984985,-0.0032070400193333626,0.796262264251709
1761334257723979800,9.368979736328125,-0.4575377106666565,-0.008093958720564842,0.6991347670555115
1761334257742681000,9.38768115234375,-0.39278605580329895,0.06582067906856537,0.23915356397628784
1761334257761382400,9.40638232421875,-0.31031930446624756,0.001679878099821508,-0.0870482325553894
1761334257780084000,9.425083984375,-0.19303326308727264,-0.1925751268863678,-0.057726722210645676
1761334257798785300,9.443785400390626,-0.05803215503692627,-0.39965829253196716,-0.010079269297420979
1761334257817486600,9.462486572265625,0.0769689604640007,-0.33857181668281555,-0.19883649051189423
1761334257836188000,9.48118798828125,0.07635809481143951,-0.20662501454353333,-0.35094180703163147
1761334257854889500,9.499889404296875,-0.06475166976451874,-0.01359174121171236,-0.22937972843647003
1761334257873590800,9.5185908203125,-0.20830489695072174,0.05177079141139984,0.05283980444073677
1761334257892292000,9.5372919921875,-0.22418737411499023,-0.026419902220368385,0.20127993822097778
1761334257910993400,9.555993408203125,-0.2632827162742615,-0.008704823441803455,0.36621344089508057
1761334257929695000,9.574695068359375,-0.2919933497905731,-0.0795651376247406,0.5568032264709473
1761334257948396300,9.593396240234375,-0.3347539007663727,-0.28787001967430115,0.7229584455490112
1761334257967097600,9.61209765625,-0.2528980076313019,-0.6391173005104065,0.28008151054382324
1761334257985799200,9.630799072265624,0.001221729558892548,-0.6782126426696777,-0.7339540123939514
1761334258004500500,9.64950048828125,0.3017672002315521,-0.3000873327255249,-1.749211311340332
1761334258023201800,9.668201904296875,0.3543015718460083,0.2649625837802887,-2.3014330863952637
