time,seconds_elapsed,z,y,x
1761330818416928000,0.058927978515625,0,0,0
1761330818435628800,0.07762890625,-0.009169578552246094,0.005368709564208984,0.09642879664897919
1761330818454329600,0.09632958984375,-0.0025539398193359375,0.07056522369384766,-0.06547555327415466
1761330818473030700,0.11503076171875,0.2573671340942383,0.1030282974243164,-0.3564082384109497
1761330818491731500,0.1337314453125,0.7325153350830078,0.09227991104125977,-0.4187281131744385
1761330818510432300,0.152432373046875,0.994786262512207,-0.05390214920043945,-0.34271347522735596
1761330818529133000,0.171133056640625,1.1855688095092773,0.09165334701538086,-0.2751455307006836
1761330818547833900,0.189833740234375,1.5674610137939453,0.4910573959350586,-0.4052642583847046
1761330818566535000,0.208534912109375,1.5585803985595703,0.36466073989868164,-0.38681507110595703
1761330818585235700,0.227235595703125,1.1521415710449219,-0.04102039337158203,-0.23015046119689941
1761330818603936500,0.2459365234375,0.9374761581420898,-0.48694467544555664,0.06407451629638672
1761330818622637300,0.26463720703125,0.8408584594726562,-1.2787799835205078,0.44306057691574097
1761330818641338000,0.283338134765625,0.8547286987304688,-1.9537792205810547,0.6013296842575073
1761330818660039000,0.302038818359375,0.6552276611328125,-2.187671184539795,0.3248160481452942
1761330818678740000,0.320739990234375,0.20295047760009766,-2.0350501537323,-0.2217332124710083
1761330818697440800,0.339440673828125,-0.010825157165527344,-1.797956943511963,-0.23969632387161255
1761330818716141600,0.3581416015625,-0.19814014434814453,-1.7358226776123047,0.3643350303173065
1761330818734842400,0.37684228515625,-0.6588582992553711,-1.48325514793396,0.6045176982879639
1761330818753543200,0.395543212890625,-1.1189613342285156,-1.2120463848114014,0.5278765559196472
1761330818772244000,0.414243896484375,-1.439652442932129,-1.1299993991851807,0.2904898524284363
1761330818790945000,0.432945068359375,-1.631474494934082,-1.0613389015197754,-0.12215855717658997
1761330818809645800,0.451645751953125,-1.5529193878173828,-0.9378514289855957,-0.3942650556564331
1761330818828346600,0.4703466796875,-1.5565471649169922,-0.792914867401123,-0.23378345370292664
1761330818847047400,0.48904736328125,-1.8581938743591309,-0.567490816116333,-0.12225925922393799
1761330818865748200,0.507748291015625,-2.1265220642089844,-0.3413865566253662,-0.21697190403938293
1761330818884449300,0.52644921875,-2.1226110458374023,-0.16009521484375,-0.2446843683719635
1761330818903150000,0.545150146484375,-2.1677746772766113,-0.19881486892700195,-0.10317716002464294
1761330818921851000,0.563850830078125,-2.2955265045166016,-0.22429180145263672,-0.19377440214157104
1761330818940551700,0.5825517578125,-2.1008524894714355,-0.22903776168823242,-0.18623417615890503
1761330818959252700,0.601252685546875,-1.6646709442138672,-0.2044849395751953,-0.042318761348724365
1761330818977953500,0.61995361328125,-1.1805105209350586,-0.17053675651550293,-0.087490975856781
1761330818996654300,0.638654296875,-0.8189067840576172,-0.05490517616271973,-0.23209984600543976
1761330819015355100,0.657355224609375,-0.5890522003173828,0.07611966133117676,-0.2271874099969864
1761330819034056000,0.676055908203125,-0.4607992172241211,0.3559846878051758,-0.18135115504264832
1761330819052756700,0.6947568359375,-0.2337799072265625,0.6650502681732178,-0.08647970855236053
1761330819071457500,0.71345751953125,-0.10896778106689453,0.872312068939209,0.004409134387969971
1761330819090158600,0.73215869140625,0.023590087890625,1.073275089263916,0.10284145176410675
1761330819108859400,0.750859375,0.2905244827270508,1.3186540603637695,0.18935230374336243
1761330819127560200,0.769560302734375,0.4911689758300781,1.305288314819336,0.35972827672958374
1761330819146261000,0.788260986328125,0.9280500411987305,1.1180601119995117,0.5459760427474976
1761330819164961800,0.8069619140625,1.5263395309448242,0.9194908142089844,0.8975346088409424
1761330819183662600,0.82566259765625,2.333561897277832,0.9045844078063965,0.9911696314811707
1761330819202363600,0.84436376953125,2.9018726348876953,1.2247118949890137,0.7856162190437317
1761330819221064400,0.863064453125,2.4646453857421875,0.8054943084716797,1.0112478733062744
1761330819239765200,0.88176513671875,2.1321754455566406,0.45233917236328125,1.4491198062896729
1761330819258466000,0.900466064453125,2.0118560791015625,-0.05655860900878906,1.9981669187545776
1761330819277167000,0.9191669921875,1.7564315795898438,-0.8044285774230957,2.0360090732574463
1761330819295868000,0.937867919921875,1.1009607315063477,-1.1764891147613525,1.6084702014923096
1761330819314568700,0.956568603515625,0.1297435760498047,-1.10847806930542,1.1123511791229248
1761330819333269500,0.97526953125,-0.6070699691772461,-1.083932876586914,0.6252886056900024
1761330819351970300,0.99397021484375,-0.7123785018920898,-1.0895264148712158,0.4324524998664856
1761330819370671400,1.01267138671875,-0.7093524932861328,-1.263880729675293,0.6357660293579102
1761330819389372200,1.0313720703125,-1.1762895584106445,-1.187993049621582,0.8630356192588806
1761330819408073000,1.050072998046875,-1.8109874725341797,-0.9822583198547363,0.7563470602035522
1761330819426773800,1.068773681640625,-2.241758346557617,-0.7615947723388672,0.3759012818336487
1761330819445474800,1.087474853515625,-2.250356674194336,-0.6558032035827637,-0.08189281821250916
1761330819464175600,1.106175537109375,-1.926743507385254,-0.6561684608459473,-0.296808123588562
1761330819482876400,1.12487646484375,-1.3952808380126953,-0.5290377140045166,-0.3518729507923126
1761330819501577200,1.1435771484375,-1.0503568649291992,-0.442340612411499,-0.27364301681518555
1761330819520278000,1.162278076171875,-0.9323558807373047,-0.27963709831237793,-0.09015955030918121
1761330819538978800,1.180978759765625,-0.9068813323974609,-0.07996296882629395,0.09627799689769745
1761330819557679900,1.199679931640625,-1.0639276504516602,-0.24451732635498047,0.4795016050338745
1761330819576380700,1.218380615234375,-1.0667228698730469,-0.3835721015930176,0.7332578301429749
1761330819595081500,1.23708154296875,-1.0290956497192383,-0.34187793731689453,0.9144925475120544
1761330819613782500,1.255782470703125,-0.9481267929077148,-0.11091923713684082,0.6701251268386841
1761330819632483300,1.2744833984375,-0.7211904525756836,0.20803380012512207,0.25588586926460266
1761330819651184000,1.29318408203125,-0.6505861282348633,0.462677001953125,0.03944799304008484
1761330819669885000,1.311885009765625,-0.6941375732421875,0.733184814453125,0.03355439752340317
1761330819688585700,1.330585693359375,-0.658076286315918,0.8970131874084473,0.07865723967552185
1761330819707286800,1.349286865234375,-0.46141624450683594,0.946627140045166,0.4156637489795685
1761330819725987600,1.367987548828125,-0.34743690490722656,0.9812369346618652,0.6025272607803345
1761330819744688400,1.3866884765625,-0.2984161376953125,0.8643295764923096,-0.006557241082191467
1761330819763389200,1.40538916015625,0.04119110107421875,0.8433742523193359,-0.817345142364502
1761330819782090200,1.42409033203125,0.7796287536621094,0.5619213581085205,-1.0711193084716797
1761330819800791000,1.442791015625,1.462327003479004,0.20389175415039062,-0.588084876537323
1761330819819491800,1.461491943359375,2.105940818786621,0.6424651145935059,-0.5257792472839355
1761330819838192600,1.480192626953125,2.4221038818359375,1.123868703842163,-0.5829993486404419
1761330819856893400,1.4988935546875,2.3895301818847656,0.9127616882324219,-0.31465959548950195
1761330819875594500,1.517594482421875,2.4689626693725586,0.27451419830322266,0.3081701993942261
1761330819894295300,1.53629541015625,2.4486942291259766,-0.610943078994751,0.466574102640152
1761330819912996000,1.55499609375,2.139317512512207,-1.199145793914795,-0.06412860751152039
1761330819931697000,1.57369677734375,1.5720806121826172,-1.3930408954620361,-0.7290374040603638
1761330819950397700,1.592397705078125,1.2419185638427734,-1.4687774181365967,-1.073915958404541
1761330819969098800,1.6110986328125,1.2070026397705078,-1.4748213291168213,-0.9949049949645996
1761330819987799600,1.629799560546875,1.044438362121582,-1.283890962600708,-0.7894426584243774
1761330820006500400,1.648500244140625,0.3089637756347656,-1.0001766681671143,-0.49510592222213745
1761330820025201200,1.667201171875,-0.627105712890625,-0.7185089588165283,-0.2986908555030823
1761330820043902200,1.685902099609375,-1.2636823654174805,-0.6033432483673096,-0.0758410394191742
1761330820062603000,1.70460302734375,-1.5508818626403809,-0.5118105411529541,-0.15360604226589203
1761330820081303800,1.7233037109375,-1.7880439758300781,-0.4975404739379883,-0.46012550592422485
1761330820100004600,1.742004638671875,-2.1164474487304688,-0.4582521915435791,-0.5403468608856201
1761330820118705400,1.760705322265625,-2.2193918228149414,-0.2863500118255615,-0.5395252108573914
1761330820137406500,1.779406494140625,-2.2346644401550293,-0.12690234184265137,-0.5282196998596191
1761330820156107300,1.798107177734375,-1.9436311721801758,-0.033876895904541016,-0.22174522280693054
1761330820174808000,1.81680810546875,-1.805246353149414,-0.20830583572387695,-0.045822322368621826
1761330820193508900,1.8355087890625,-1.7828788757324219,-0.19430279731750488,-0.2384190559387207
1761330820212210000,1.8542099609375,-1.4433374404907227,-0.1456599235534668,-0.305789589881897
1761330820230910700,1.87291064453125,-1.1356182098388672,-0.10896730422973633,-0.27742329239845276
1761330820249611500,1.891611572265625,-0.8181562423706055,0.03431987762451172,-0.3533889055252075
1761330820268312300,1.910312255859375,-0.5926799774169922,0.21013712882995605,-0.42291152477264404
1761330820287013400,1.929013427734375,-0.49536991119384766,0.39472103118896484,-0.3088162839412689
1761330820305714200,1.947714111328125,-0.47632598876953125,0.44408655166625977,-0.14117681980133057
1761330820324415000,1.9664150390625,-0.28448486328125,0.5953896045684814,-0.021144099533557892
1761330820343116000,1.985115966796875,-0.11139869689941406,0.9183974266052246,-0.2656458914279938
1761330820361816800,2.00381689453125,0.23013591766357422,1.008350133895874,-0.37880027294158936
1761330820380517600,2.022517578125,0.7839326858520508,0.7358179092407227,-0.019579201936721802
1761330820399218400,2.041218505859375,1.4822368621826172,0.4836690425872803,0.4471662640571594
1761330820417919500,2.05991943359375,2.4650697708129883,0.6030488014221191,0.6256681084632874
1761330820436620300,2.078620361328125,2.604100227355957,0.6997976303100586,0.6377542614936829
1761330820455321000,2.097321044921875,1.9118423461914062,0.39443325996398926,0.7711679935455322
1761330820474022000,2.11602197265625,1.6867179870605469,0.009115457534790039,1.3978137969970703
1761330820492723000,2.134722900390625,2.1071367263793945,-0.5597093105316162,1.7305293083190918
1761330820511423700,2.153423828125,2.2949447631835938,-0.9045844078063965,1.73507821559906
1761330820530124500,2.17212451171875,1.9302024841308594,-1.1014094352722168,1.4538848400115967
1761330820548825300,2.190825439453125,1.3802719116210938,-1.1527307033538818,0.9694562554359436
1761330820567526100,2.209526123046875,1.0607566833496094,-1.3015773296356201,0.6729542016983032
1761330820586227200,2.228227294921875,0.7250814437866211,-1.2543730735778809,0.6547653079032898
1761330820604928000,2.246927978515625,-0.023360252380371094,-1.0298523902893066,0.7747164368629456
1761330820623628800,2.26562890625,-0.8816738128662109,-0.7477803230285645,0.8868353962898254
1761330820642329900,2.284329833984375,-1.6423091888427734,-0.8021011352539062,0.7432374954223633
1761330820661030700,2.30303076171875,-2.1304574012756348,-0.6622505187988281,0.14440341293811798
1761330820679731500,2.3217314453125,-2.3944625854492188,-0.37351179122924805,-0.07399484515190125
1761330820698432500,2.3404326171875,-2.2757949829101562,-0.3643836975097656,-0.026567615568637848
1761330820717133300,2.35913330078125,-2.06459903717041,-0.37809038162231445,0.09548124670982361
1761330820735834000,2.377834228515625,-1.8270249366760254,-0.20125317573547363,0.3327237069606781
1761330820754535000,2.396534912109375,-1.49298095703125,-0.09418869018554688,0.481911301612854
1761330820773236000,2.415236083984375,-1.247420310974121,0.027004241943359375,0.5929498672485352
1761330820791936800,2.433936767578125,-1.140608787536621,-0.11000823974609375,0.8806618452072144
1761330820810637600,2.452637451171875,-1.0972681045532227,-0.0494384765625,1.1102993488311768
1761330820829338400,2.47133837890625,-0.9847583770751953,0.18381810188293457,0.9999390840530396
1761330820848039200,2.4900390625,-0.7845420837402344,0.41193079948425293,0.7348166704177856
1761330820866740200,2.508740234375,-0.389251708984375,0.756251335144043,0.6523514986038208
1761330820885441000,2.52744091796875,0.08131217956542969,0.9419806003570557,0.6667859554290771
1761330820904141800,2.546141845703125,0.2556648254394531,0.9016032218933105,0.8167140483856201
1761330820922843000,2.5648427734375,0.44814014434814453,1.030869483947754,0.8900744915008545
1761330820941543700,2.583543701171875,0.4872560501098633,0.8684210777282715,0.5851710438728333
1761330820960244500,2.602244384765625,0.25164318084716797,0.8325388431549072,-0.21309399604797363
1761330820978945500,2.620945556640625,-0.10250186920166016,1.0611350536346436,-1.0947232246398926
1761330820997646300,2.639646240234375,0.2452831268310547,0.757455587387085,-1.0779750347137451
1761330821016347100,2.65834716796875,1.3867416381835938,0.4598679542541504,-0.5251992344856262
1761330821035048000,2.6770478515625,2.518914222717285,0.7526006698608398,-0.16007596254348755
1761330821053748700,2.695748779296875,3.0042028427124023,0.8793127536773682,0.2354620099067688
1761330821072449800,2.71444970703125,2.597102165222168,0.730309009552002,0.47356629371643066
1761330821091150600,2.733150634765625,1.9650821685791016,0.2879199981689453,0.3555469512939453
1761330821109851600,2.7518515625,1.54156494140625,-0.3556976318359375,0.0252191424369812
1761330821128552400,2.770552490234375,1.0866031646728516,-1.0513572692871094,-0.5088775753974915
1761330821147253200,2.789253173828125,0.6354036331176758,-1.3556625843048096,-1.1048002243041992
1761330821165954000,2.8079541015625,0.24038219451904297,-1.5532538890838623,-1.3196572065353394
1761330821184655000,2.826655029296875,0.027853012084960938,-1.6584242582321167,-0.8403980135917664
1761330821203356000,2.84535595703125,-0.09040641784667969,-1.6496198177337646,-0.10268211364746094
1761330821222056700,2.864056640625,-0.3534402847290039,-1.386885166168213,0.2539495527744293
1761330821240757500,2.882757568359375,-0.6305780410766602,-1.1128509044647217,0.37150484323501587
1761330821259458600,2.90145849609375,-0.8697185516357422,-1.1265685558319092,0.15363535284996033
1761330821278159400,2.920159423828125,-1.1435871124267578,-1.135507583618164,-0.07727301120758057
1761330821296860400,2.9388603515625,-1.2511119842529297,-0.8114032745361328,-0.31228190660476685
1761330821315561200,2.957561279296875,-1.3376989364624023,-0.4333925247192383,-0.3662682771682739
1761330821334262000,2.976261962890625,-2.0118799209594727,-0.10814380645751953,-0.4120952785015106
1761330821352962800,2.994962890625,-2.6773929595947266,0.2804539203643799,-0.6046081781387329
1761330821371664000,3.013663818359375,-2.80853271484375,0.495577335357666,-0.5524816513061523
1761330821390364700,3.03236474609375,-2.632719039916992,0.37208080291748047,-0.2831239104270935
1761330821409065500,3.0510654296875,-2.096498489379883,0.43813419342041016,-0.3083874583244324
1761330821427766300,3.069766357421875,-1.676116943359375,0.37439489364624023,-0.38069644570350647
1761330821446467300,3.08846728515625,-1.2281723022460938,0.3009495735168457,-0.3060312867164612
1761330821465168100,3.107168212890625,-0.7000942230224609,0.41699719429016113,-0.25923967361450195
1761330821483869200,3.125869140625,-0.13545608520507812,0.6373651027679443,-0.46154165267944336
1761330821502570000,3.144570068359375,0.3386545181274414,0.8386955261230469,-0.7148352861404419
1761330821521270800,3.163270751953125,0.5163688659667969,0.7801003456115723,-0.7200762629508972
1761330821539971600,3.1819716796875,0.3544607162475586,0.8589751720428467,-0.8008248805999756
1761330821558672400,3.20067236328125,0.24217796325683594,1.0169758796691895,-0.6434701681137085
1761330821577373400,3.21937353515625,0.41585445404052734,1.0132412910461426,-0.4617002606391907
1761330821596074200,3.23807421875,0.8744974136352539,0.6601552963256836,-0.2334984540939331
1761330821614775300,3.256775390625,1.3765020370483398,0.4444081783294678,0.26806119084358215
1761330821633476000,3.27547607421875,1.9149370193481445,0.7290418148040771,0.4723292887210846
1761330821652177000,3.294177001953125,2.2818450927734375,1.2638890743255615,0.1978796124458313
1761330821670877700,3.312877685546875,2.584463119506836,0.7021944522857666,0.4115586578845978
1761330821689578800,3.331578857421875,3.170100212097168,-0.47422051429748535,1.2779173851013184
1761330821708279600,3.350279541015625,3.866598129272461,-1.4813915491104126,2.0804152488708496
1761330821726980600,3.368980712890625,3.924581527709961,-2.0305423736572266,2.131772994995117
1761330821745681400,3.387681396484375,2.3732337951660156,-1.765769124031067,1.3274002075195312
1761330821764382200,3.40638232421875,0.36133861541748047,-1.1602461338043213,0.28996121883392334
1761330821783083000,3.4250830078125,-0.8961277008056641,-0.9066567420959473,-0.0795544981956482
1761330821801784000,3.4437841796875,-1.3106746673583984,-1.0084547996520996,-0.07335448265075684
1761330821820484900,3.46248486328125,-1.7339086532592773,-1.1652042865753174,0.10287559032440186
1761330821839185700,3.481185546875,-2.2888031005859375,-0.9008431434631348,-0.023101985454559326
1761330821857886700,3.49988671875,-2.6996350288391113,-0.5838015079498291,-0.23463952541351318
1761330821876587500,3.51858740234375,-2.6713905334472656,-0.3837771415710449,-0.2787843346595764
1761330821895288300,3.537288330078125,-2.3860816955566406,-0.3279426097869873,-0.3365519940853119
1761330821913989400,3.5559892578125,-1.9338116645812988,-0.2868835926055908,-0.44036805629730225
1761330821932690200,3.574690185546875,-1.2676048278808594,-0.1621410846710205,-0.6134179830551147
1761330821951391000,3.593390869140625,-0.47686195373535156,-0.16083717346191406,-0.5543730854988098
1761330821970092000,3.612092041015625,-0.1499338150024414,-0.2694213390350342,-0.35770297050476074
1761330821988792800,3.630792724609375,-0.15539836883544922,-0.31409621238708496,-0.16175752878189087
1761330822007493600,3.64949365234375,-0.31801509857177734,-0.2294330596923828,0.11857017874717712
1761330822026194700,3.668194580078125,-0.36321449279785156,-0.11858987808227539,0.4197407066822052
1761330822044895500,3.6868955078125,-0.5210247039794922,0.03463888168334961,0.3729674816131592
1761330822063596500,3.705596435546875,-0.6189804077148438,0.3053574562072754,0.012475430965423584
1761330822082297300,3.72429736328125,-0.6879940032958984,0.44890332221984863,-0.15698571503162384
1761330822100998100,3.742998046875,-0.5347537994384766,0.6628632545471191,-0.07165136188268661
1761330822119699000,3.761698974609375,-0.28051185607910156,0.8277952671051025,0.1337328553199768
1761330822138400000,3.78039990234375,-0.17922592163085938,0.9786911010742188,0.3376682996749878
1761330822157100800,3.799100830078125,-0.19217967987060547,1.111717700958252,0.30514854192733765
1761330822175801900,3.8178017578125,-0.1698322296142578,1.1423094272613525,-0.1497126966714859
1761330822194502700,3.836502685546875,-0.27280616760253906,0.9032576084136963,-0.597434937953949
1761330822213203500,3.855203369140625,-0.1782827377319336,0.6130673885345459,-0.9683783054351807
1761330822231904300,3.873904296875,0.5470561981201172,-0.0900883674621582,-0.7735134363174438
1761330822250605300,3.892605224609375,1.911733627319336,-0.3595104217529297,-0.5785594582557678
1761330822269306000,3.91130615234375,2.765444755554199,0.419208288192749,-0.6833828091621399
1761330822288007200,3.930007080078125,2.2801151275634766,1.1450302600860596,-0.9525917172431946
1761330822306708000,3.9487080078125,1.4655570983886719,1.137476921081543,-0.41237640380859375
1761330822325408800,3.96740869140625,1.2566099166870117,0.40934276580810547,0.21748682856559753
1761330822344109800,3.98610986328125,1.318364143371582,-0.569927453994751,0.17731264233589172
1761330822362810600,4.004810546875,1.268106460571289,-1.212895393371582,-0.2288670390844345
1761330822381511700,4.02351171875,1.1981744766235352,-1.6915762424468994,-0.6511426568031311
1761330822400212500,4.04221240234375,1.3066463470458984,-1.9175313711166382,-0.6259746551513672
1761330822418913300,4.060913330078125,0.9812641143798828,-1.7927687168121338,-0.22684544324874878
1761330822437614000,4.079614013671875,0.3329010009765625,-1.2725093364715576,0.07294604182243347
1761330822456315100,4.098315185546875,-0.40917491912841797,-1.0731003284454346,0.49900802969932556
1761330822475016000,4.117015869140625,-1.1259021759033203,-0.9745042324066162,0.606169581413269
1761330822493717000,4.135717041015625,-1.6012520790100098,-0.9721074104309082,0.5223791003227234
1761330822512417800,4.154417724609375,-1.656296730041504,-1.0153305530548096,0.2553630769252777
1761330822531118600,4.17311865234375,-1.6991825103759766,-0.8719172477722168,-0.15183213353157043
1761330822549819600,4.191819580078125,-1.7904739379882812,-0.679572582244873,-0.44246259331703186
1761330822568520400,4.2105205078125,-1.919020175933838,-0.5162553787231445,-0.38665103912353516
1761330822587221200,4.22922119140625,-2.0694823265075684,-0.278059720993042,-0.32200711965560913
1761330822605922300,4.24792236328125,-2.254216194152832,-0.05139470100402832,-0.283424973487854
1761330822624623000,4.266623046875,-2.195211410522461,0.15478014945983887,-0.32083988189697266
1761330822643324200,4.28532421875,-1.9841241836547852,0.41332316398620605,-0.551671028137207
1761330822662025000,4.30402490234375,-1.7082500457763672,0.6447336673736572,-0.8569597005844116
1761330822680725800,4.322725830078125,-1.1834163665771484,0.8540115356445312,-1.015606164932251
1761330822699426800,4.3414267578125,-0.30824851989746094,0.9734315872192383,-0.915986180305481
1761330822718127600,4.360127685546875,0.36331844329833984,1.0673797130584717,-0.6293382048606873
1761330822736828700,4.37882861328125,0.6241273880004883,1.2122061252593994,-0.4077207148075104
1761330822755529500,4.397529541015625,0.5032577514648438,1.319624423980713,-0.21122057735919952
1761330822774230300,4.416230224609375,0.17659568786621094,1.5060155391693115,-0.21459132432937622
1761330822792931300,4.434931396484375,-0.10933685302734375,1.8424758911132812,-0.44033801555633545
1761330822811632000,4.453632080078125,0.15308570861816406,1.7879140377044678,-0.4482247829437256
1761330822830333000,4.4723330078125,0.8958063125610352,1.1566612720489502,-0.16436412930488586
1761330822849034000,4.491033935546875,2.298368453979492,0.717322826385498,-0.16116833686828613
1761330822867734800,4.50973486328125,3.2470102310180664,1.0262174606323242,-0.07530409097671509
1761330822886435800,4.528435791015625,2.1294937133789062,1.714672327041626,-0.5190284252166748
1761330822905136600,4.54713671875,0.9738016128540039,1.3326787948608398,-0.8181907534599304
1761330822923837400,4.56583740234375,1.3951091766357422,0.18664813041687012,-0.3016059994697571
1761330822942538500,4.58453857421875,2.9703311920166016,-0.9767487049102783,0.5943973660469055
1761330822961239300,4.6032392578125,3.9997682571411133,-1.6912755966186523,1.1269662380218506
1761330822979940000,4.621940185546875,3.0301408767700195,-1.5224308967590332,0.20934271812438965
1761330822998641200,4.64064111328125,1.051478385925293,-1.3594563007354736,-0.7415330410003662
1761330823017342200,4.65934228515625,-0.09121894836425781,-1.3679503202438354,-1.0089685916900635
1761330823036043000,4.67804296875,-0.5100812911987305,-1.3784486055374146,-0.6802632212638855
1761330823054743800,4.696743896484375,-1.1350831985473633,-1.3515946865081787,-0.20834380388259888
1761330823073444900,4.71544482421875,-1.8504438400268555,-1.1716735363006592,0.14544600248336792
1761330823092145700,4.734145751953125,-1.9446797370910645,-0.9355401992797852,0.1477852463722229
1761330823110846500,4.752846435546875,-1.7415566444396973,-0.8311309814453125,-0.07992468774318695
1761330823129547500,4.771547607421875,-1.603546142578125,-0.7419829368591309,-0.3588969111442566
1761330823148248300,4.790248291015625,-1.7231974601745605,-0.5305428504943848,-0.6514889597892761
1761330823166949400,4.808949462890625,-1.9465479850769043,-0.1501905918121338,-0.9476547837257385
1761330823185650200,4.827650146484375,-2.1328792572021484,0.10317826271057129,-0.8982314467430115
1761330823204351200,4.846351318359375,-2.0907154083251953,0.05038857460021973,-0.5411744117736816
1761330823223052000,4.865052001953125,-1.6399898529052734,-0.10567045211791992,-0.20562130212783813
1761330823241752800,4.8837529296875,-0.9329719543457031,-0.16214966773986816,0.12535083293914795
1761330823260454000,4.902453857421875,-0.14603137969970703,-0.18190717697143555,0.23341785371303558
1761330823279154700,4.92115478515625,0.3122882843017578,-0.04913735389709473,0.17526575922966003
1761330823297855700,4.939855712890625,0.3116579055786133,0.2533447742462158,-0.14585146307945251
1761330823316556500,4.958556640625,0.2520332336425781,0.4575951099395752,-0.01245097815990448
1761330823335257600,4.977257568359375,-0.06192970275878906,0.6907508373260498,0.20132407546043396
1761330823353958400,4.99595849609375,-0.42051124572753906,1.011148452758789,0.22043994069099426
1761330823372659200,5.0146591796875,-0.7917747497558594,1.1777989864349365,0.41054996848106384
1761330823391360300,5.0333603515625,-0.8628025054931641,1.3882801532745361,0.25308847427368164
1761330823410061000,5.05206103515625,-0.9116220474243164,1.4387669563293457,-0.3178742229938507
1761330823428762000,5.07076220703125,-0.7329235076904297,1.4805195331573486,-0.9001307487487793
1761330823447463000,5.089462890625,-0.31786060333251953,1.0853075981140137,-0.8803142309188843
1761330823466164000,5.1081640625,0.2940645217895508,0.5736114978790283,-0.7911548614501953
1761330823484864800,5.12686474609375,1.713871955871582,0.6168291568756104,-1.0540803670883179
1761330823503565600,5.145565673828125,2.703221321105957,0.9300673007965088,-1.0652841329574585
1761330823522266600,5.1642666015625,3.030466079711914,1.1429967880249023,-0.8337929248809814
1761330823540967400,5.182967529296875,2.7753477096557617,0.4271411895751953,-0.1661202311515808
1761330823559668200,5.201668212890625,2.670177459716797,-0.7894229888916016,-0.22366520762443542
1761330823578369300,5.220369384765625,2.660079002380371,-1.845505714416504,-0.5834172964096069
1761330823597070300,5.2390703125,2.419475555419922,-2.2763898372650146,-1.3056567907333374
1761330823615771100,5.257771240234375,1.877995491027832,-2.4545371532440186,-1.5591669082641602
1761330823634472000,5.276471923828125,1.1385860443115234,-2.336103916168213,-1.1351178884506226
1761330823653173000,5.295173095703125,0.1689157485961914,-1.8573473691940308,-0.3167446255683899
1761330823671873800,5.313873779296875,-0.6993656158447266,-1.6377122402191162,0.13584020733833313
1761330823690574800,5.332574951171875,-1.0844430923461914,-1.5002554655075073,0.2948446273803711
1761330823709275600,5.351275634765625,-1.4319953918457031,-1.4225947856903076,0.14208488166332245
1761330823727976400,5.3699765625,-1.7528362274169922,-1.1576085090637207,-0.17474550008773804
1761330823746677500,5.388677490234375,-1.9312777519226074,-0.7359158992767334,-0.5638806223869324
1761330823765378600,5.407378662109375,-2.232816696166992,-0.31071996688842773,-0.5952627658843994
1761330823784079400,5.426079345703125,-2.4862003326416016,0.18729233741760254,-0.5115348100662231
1761330823802780200,5.4447802734375,-2.482118606567383,0.5327215194702148,-0.15750247240066528
1761330823821481200,5.463481201171875,-2.4546728134155273,0.6659646034240723,0.17791160941123962
1761330823840182000,5.48218212890625,-2.3051910400390625,0.7857964038848877,0.03617887943983078
1761330823858883000,5.500883056640625,-1.946683406829834,0.7051436901092529,-0.24626456201076508
1761330823877584000,5.519583984375,-1.5826196670532227,0.7259328365325928,-0.5643161535263062
1761330823896285000,5.538284912109375,-1.246255874633789,0.8705463409423828,-1.084263801574707
1761330823914985700,5.55698583984375,-0.9594430923461914,0.9642882347106934,-1.3052597045898438
1761330823933686800,5.575686767578125,-0.5182723999023438,1.1377546787261963,-1.358603835105896
1761330823952387600,5.5943876953125,-0.08132171630859375,1.1713497638702393,-0.8792387247085571
1761330823971088600,5.613088623046875,0.29253482818603516,1.2931044101715088,-0.4893772602081299
1761330823989789400,5.63178955078125,0.6557559967041016,1.4495811462402344,-0.46025651693344116
1761330824008490200,5.650490234375,0.7279453277587891,1.4495584964752197,-0.5146867632865906
1761330824027191300,5.66919140625,0.8785028457641602,1.3674018383026123,-0.6216756105422974
1761330824045892000,5.68789208984375,1.2607479095458984,1.116337776184082,-0.5686514377593994
1761330824064593200,5.70659326171875,1.947641372680664,0.7862765789031982,-0.14070963859558105
1761330824083294000,5.7252939453125,3.2776060104370117,-0.04782414436340332,0.7380050420761108
1761330824101995000,5.7439951171875,4.520090103149414,-0.6449196338653564,1.2223951816558838
1761330824120695800,5.76269580078125,4.127790451049805,-0.21319055557250977,0.6291460990905762
1761330824139396900,5.78139697265625,2.5598812103271484,0.5858302116394043,0.11027461290359497
1761330824158097700,5.80009765625,2.299960136413574,0.8087198734283447,0.1869928240776062
1761330824176798700,5.818798828125,3.016770362854004,-0.5598582029342651,1.2118616104125977
1761330824195499500,5.83749951171875,3.542438507080078,-1.6571414470672607,1.9161336421966553
1761330824214200600,5.85620068359375,3.4349374771118164,-2.3239989280700684,2.0481860637664795
1761330824232901400,5.8749013671875,1.903458595275879,-2.2301876544952393,1.3669657707214355
1761330824251602200,5.893602294921875,0.02082347869873047,-1.8472535610198975,0.6574828624725342
1761330824270303200,5.91230322265625,-1.3672142028808594,-1.7045782804489136,0.47203949093818665
1761330824289004300,5.93100439453125,-2.155440330505371,-1.442579984664917,0.5940610766410828
1761330824307705000,5.949705078125,-2.3636374473571777,-1.2005486488342285,0.9478160738945007
1761330824326406100,5.96840625,-2.4159774780273438,-1.0884425640106201,1.2116563320159912
1761330824345107000,5.98710693359375,-2.3466386795043945,-1.051851749420166,1.1893013715744019
1761330824363808000,6.00580810546875,-2.1191797256469727,-0.9560607671737671,1.108181357383728
1761330824382508800,6.0245087890625,-1.7794837951660156,-0.8092812299728394,1.081763744354248
1761330824401209600,6.043209716796875,-1.4509973526000977,-0.6772670745849609,1.0609632730484009
1761330824419910700,6.06191064453125,-1.5642318725585938,-0.5913918018341064,0.9334017634391785
1761330824438611500,6.080611572265625,-1.8877673149108887,-0.3533024787902832,0.9490058422088623
1761330824457312500,6.0993125,-2.1814937591552734,-0.10755419731140137,0.7667257785797119
1761330824476013600,6.118013671875,-2.2214698791503906,0.1578977108001709,0.5478744506835938
1761330824494714400,6.13671435546875,-1.856964111328125,0.42679667472839355,0.6266480684280396
1761330824513415400,6.15541552734375,-1.5376949310302734,0.556286096572876,0.7342175245285034
1761330824532116200,6.1741162109375,-1.3795652389526367,0.6698064804077148,0.6417597532272339
1761330824550817300,6.1928173828125,-1.1072349548339844,0.8492140769958496,0.4064960479736328
1761330824569518000,6.21151806640625,-0.6751632690429688,1.0545940399169922,0.08752959966659546
1761330824588219000,6.230218994140625,-0.4267616271972656,1.357658863067627,-0.08058536052703857
1761330824606920000,6.248919921875,-0.24501514434814453,1.66914701461792,-0.08898824453353882
1761330824625620700,6.267620849609375,0.028375625610351562,1.7745530605316162,0.07150442898273468
1761330824644321800,6.28632177734375,0.5855655670166016,1.7681105136871338,0.019041836261749268
1761330824663022600,6.305022705078125,1.3151206970214844,1.7714977264404297,-0.3845725655555725
1761330824681723600,6.3237236328125,1.841517448425293,1.611729383468628,-0.8169295191764832
1761330824700424700,6.3424248046875,2.2603158950805664,1.4504249095916748,-1.083854079246521
1761330824719125500,6.36112548828125,2.9820852279663086,1.4055862426757812,-1.2518393993377686
1761330824737826600,6.37982666015625,3.5786848068237305,1.3120155334472656,-1.0264641046524048
1761330824756527400,6.39852734375,3.384614944458008,1.1612544059753418,-0.8912107348442078
1761330824775228400,6.417228515625,2.737213134765625,0.6363368034362793,-0.588868260383606
1761330824793929200,6.43592919921875,2.4942626953125,-0.549691915512085,0.2172859162092209
1761330824812630300,6.45463037109375,2.5286970138549805,-1.319248914718628,0.4577939510345459
1761330824831331000,6.4733310546875,2.5762720108032227,-1.8189902305603027,0.5203752517700195
1761330824850031900,6.492031982421875,2.2344141006469727,-1.928909182548523,0.43640536069869995
1761330824868733000,6.51073291015625,1.4850282669067383,-1.7543997764587402,0.07984963804483414
1761330824887434000,6.52943408203125,0.5556964874267578,-1.663793683052063,0.1061573252081871
1761330824906134800,6.548134765625,-0.24688243865966797,-1.589680790901184,0.12210109084844589
1761330824924835800,6.5668359375,-0.8830814361572266,-1.4882941246032715,0.015145383775234222
1761330824943536600,6.58553662109375,-1.3685359954833984,-1.391702651977539,-0.3106609582901001
1761330824962237700,6.60423779296875,-1.5557308197021484,-1.4316198825836182,-0.6540331244468689
1761330824980938500,6.6229384765625,-1.2997236251831055,-1.4174036979675293,-0.8210662603378296
1761330824999639600,6.6416396484375,-1.0885963439941406,-1.363588809967041,-0.8282853960990906
1761330825018340400,6.66034033203125,-1.1990127563476562,-1.143149495124817,-0.7853028774261475
1761330825037041400,6.67904150390625,-1.3673601150512695,-0.9611372947692871,-0.8633410930633545
1761330825055742200,6.6977421875,-1.6466102600097656,-0.7455470561981201,-0.933070719242096
1761330825074443300,6.716443359375,-2.036214828491211,-0.5378096103668213,-0.8982001543045044
1761330825093144000,6.73514404296875,-2.4097681045532227,-0.23157000541687012,-0.8595907688140869
1761330825111845000,6.75384521484375,-2.711566925048828,0.13338875770568848,-0.8252195119857788
1761330825130546200,6.772546142578125,-2.8573312759399414,0.3012411594390869,-0.6770322322845459
1761330825149247000,6.7912470703125,-2.7019166946411133,0.3652820587158203,-0.5841426849365234
1761330825167948000,6.809947998046875,-2.319417953491211,0.2523641586303711,-0.5740878582000732
1761330825186648800,6.82864892578125,-1.8530025482177734,0.23654437065124512,-0.5764260292053223
1761330825205350000,6.847349853515625,-1.6397075653076172,0.3883533477783203,-0.7871323823928833
1761330825224050700,6.86605078125,-1.4107236862182617,0.48557019233703613,-0.8841102123260498
1761330825242751700,6.884751708984375,-1.238722801208496,0.6122345924377441,-0.6487004160881042
1761330825261452500,6.90345263671875,-0.9824790954589844,0.7717494964599609,-0.0949556827545166
1761330825280153600,6.922153564453125,-0.4035806655883789,0.9621388912200928,0.61551433801651
1761330825298854400,6.9408544921875,0.35433101654052734,1.4385859966278076,0.8832322359085083
1761330825317555500,6.959555419921875,0.9751405715942383,1.905146837234497,0.7633688449859619
1761330825336256300,6.97825634765625,1.5251379013061523,2.1436104774475098,0.35725998878479004
1761330825354957300,6.996957275390625,2.933030128479004,1.808826208114624,0.45418888330459595
1761330825373658000,7.015658203125,4.706635475158691,1.2530460357666016,1.0121188163757324
1761330825392359200,7.034359130859375,5.294232368469238,1.2697796821594238,0.9822572469711304
1761330825411060200,7.053060302734375,4.311994552612305,1.1376245021820068,0.7497169375419617
1761330825429761000,7.071760986328125,3.143695831298828,0.5784213542938232,1.0207104682922363
1761330825448462000,7.090462158203125,2.5638046264648438,0.22124505043029785,1.0992530584335327
1761330825467163000,7.109162841796875,2.338850975036621,-0.30057859420776367,0.9172517657279968
1761330825485864000,7.127864013671875,2.314441680908203,-0.7410471439361572,0.950378954410553
1761330825504564700,7.146564697265625,1.8782949447631836,-0.9827418327331543,1.010634422302246
1761330825523265800,7.165265869140625,1.2507457733154297,-1.2212178707122803,0.9597445130348206
1761330825541966800,7.183966796875,0.4530143737792969,-1.4432165622711182,1.0843815803527832
1761330825560667600,7.202667724609375,-0.4069633483886719,-1.5394961833953857,1.2411590814590454
1761330825579368700,7.22136865234375,-1.2378473281860352,-1.3804537057876587,1.038334846496582
1761330825598069500,7.240069580078125,-2.069181442260742,-1.3769973516464233,0.5807932615280151
1761330825616770600,7.2587705078125,-2.4363889694213867,-1.5323597192764282,0.09281421452760696
1761330825635471400,7.277471435546875,-2.414936065673828,-1.552450180053711,-0.15609285235404968
1761330825654172400,7.29617236328125,-2.1237850189208984,-1.3524820804595947,-0.37416401505470276
1761330825672873200,7.314873291015625,-1.7023258209228516,-1.1646583080291748,-0.25945785641670227
1761330825691574300,7.33357421875,-1.4160614013671875,-0.9721187353134155,0.3124317526817322
1761330825710275300,7.352275390625,-1.5940141677856445,-0.7487461566925049,0.7490053176879883
1761330825728976100,7.37097607421875,-2.091580867767334,-0.5938131809234619,0.7727801203727722
1761330825747677200,7.38967724609375,-2.4861488342285156,-0.4006156921386719,0.469917356967926
1761330825766378000,7.4083779296875,-2.5256805419921875,-0.2506725788116455,0.14294882118701935
1761330825785079000,7.4270791015625,-2.4894323348999023,-0.09645819664001465,0.209401935338974
1761330825803779800,7.44577978515625,-2.069488048553467,0.11070656776428223,0.6254353523254395
1761330825822481000,7.46448095703125,-1.1052665710449219,0.2936985492706299,1.1238393783569336
1761330825841182000,7.483181884765625,-0.16504669189453125,0.29729533195495605,1.286695122718811
1761330825859882800,7.5018828125,0.17472457885742188,0.2698202133178711,0.9364819526672363
1761330825878583800,7.520583740234375,-0.18186187744140625,0.2902524471282959,0.6761014461517334
1761330825897284600,7.53928466796875,-0.7381525039672852,0.5118439197540283,0.527237594127655
1761330825915985700,7.557985595703125,-0.9341983795166016,0.8588802814483643,0.27925580739974976
1761330825934686500,7.5766865234375,-0.4987831115722656,1.0103983879089355,0.19016849994659424
1761330825953387500,7.595387451171875,0.210205078125,1.196692943572998,0.14495062828063965
1761330825972088300,7.61408837890625,0.9739475250244141,1.3742945194244385,0.08145885914564133
1761330825990789400,7.632789306640625,1.7150135040283203,1.4704387187957764,0.04426416754722595
1761330826009490400,7.651490478515625,2.181285858154297,1.4780256748199463,-0.13504479825496674
1761330826028191500,7.67019140625,2.6607561111450195,1.3407635688781738,-0.41126835346221924
1761330826046892300,7.688892333984375,2.659296989440918,1.4407904148101807,-0.7610196471214294
1761330826065593300,7.70759326171875,2.063258171081543,1.6167714595794678,-1.1322568655014038
1761330826084294100,7.726294189453125,1.6503143310546875,1.1370017528533936,-0.6987560987472534
1761330826102995200,7.7449951171875,1.9264030456542969,0.1340014934539795,0.07220439612865448
1761330826121696000,7.763696044921875,2.640639305114746,-0.9107120037078857,0.3329886496067047
1761330826140397000,7.78239697265625,3.18369197845459,-1.3945525884628296,0.12018445879220963
1761330826159097900,7.801097900390625,3.0176830291748047,-1.453065276145935,-0.8084700107574463
1761330826177799000,7.819798828125,1.8717756271362305,-1.5699470043182373,-1.2098370790481567
1761330826196499700,7.838499755859375,0.8432140350341797,-1.5490186214447021,-1.0830965042114258
1761330826215200800,7.85720068359375,0.23236465454101562,-1.507561445236206,-0.6630228161811829
1761330826233901800,7.87590185546875,-0.21218204498291016,-1.462397575378418,-0.3429967164993286
1761330826252602600,7.8946025390625,-0.8040494918823242,-1.3379957675933838,-0.4637130796909332
1761330826271303700,7.9133037109375,-1.4523696899414062,-1.2799735069274902,-0.7886801958084106
1761330826290004500,7.93200439453125,-1.7792320251464844,-1.233964204788208,-0.8386735320091248
1761330826308705500,7.95070556640625,-1.7044858932495117,-1.1127617359161377,-0.8651167750358582
1761330826327406600,7.969406494140625,-1.7904291152954102,-1.0000979900360107,-0.7975374460220337
1761330826346107400,7.988107421875,-2.095330238342285,-0.7255711555480957,-0.7916015386581421
1761330826364808400,8.006808349609376,-2.631760597229004,-0.4436030387878418,-0.9257333874702454
1761330826383509500,8.025509521484375,-2.9010934829711914,-0.23894596099853516,-1.0285615921020508
1761330826402210300,8.044210205078125,-3.012303352355957,-0.044190168380737305,-0.991201639175415
1761330826420911400,8.062911376953124,-2.6944093704223633,0.1099088191986084,-0.9031227827072144
1761330826439612200,8.081612060546876,-2.1755247116088867,0.24839234352111816,-0.6768390536308289
1761330826458313200,8.100313232421875,-1.8866891860961914,0.3972620964050293,-0.512907862663269
1761330826477014300,8.11901416015625,-1.7373967170715332,0.5291481018066406,-0.6457910537719727
1761330826495715000,8.137715087890625,-1.7340564727783203,0.4621129035949707,-0.7216565608978271
1761330826514416000,8.156416015625,-1.7146577835083008,0.5665643215179443,-0.8125496506690979
1761330826533117000,8.175116943359376,-1.571033000946045,0.702777624130249,-0.7926797270774841
1761330826551818000,8.19381787109375,-1.2120065689086914,0.7117600440979004,-0.55583655834198
1761330826570518800,8.212518798828125,-0.42660999298095703,0.8328962326049805,-0.18178674578666687
1761330826589219800,8.2312197265625,0.4711122512817383,1.0460236072540283,0.13414527475833893
1761330826607921000,8.2499208984375,0.7606325149536133,1.37839937210083,0.07597184181213379
1761330826626621700,8.26862158203125,0.6946678161621094,1.8024883270263672,-0.4035272002220154
1761330826645322800,8.28732275390625,1.3438444137573242,1.641932487487793,-0.45164915919303894
1761330826664023600,8.3060234375,2.603682518005371,1.1856365203857422,-0.0523727685213089
1761330826682724600,8.324724609375,4.350969314575195,0.9125454425811768,0.3128584623336792
1761330826701425700,8.34342578125,5.039211273193359,0.8727574348449707,0.3983232378959656
1761330826720126500,8.36212646484375,4.054059028625488,0.7237982749938965,0.2762724757194519
1761330826738827500,8.38082763671875,2.8364791870117188,0.08437800407409668,0.7104614973068237
1761330826757528300,8.3995283203125,1.9875764846801758,-0.11777734756469727,0.8620097041130066
1761330826776229400,8.4182294921875,1.4682512283325195,-0.41991424560546875,0.489341139793396
1761330826794930400,8.436930419921875,1.2496471405029297,-0.841808557510376,0.36067137122154236
1761330826813631500,8.455631591796875,1.2784957885742188,-0.9841245412826538,0.3257598280906677
1761330826832332300,8.474332275390625,1.4459142684936523,-1.3165984153747559,0.457569420337677
1761330826851033300,8.493033447265624,1.4539356231689453,-1.5988831520080566,0.4970170557498932
1761330826869734100,8.511734130859375,1.0132665634155273,-1.6942505836486816,0.5417376756668091
1761330826888435200,8.530435302734375,-0.08608436584472656,-1.460193395614624,0.22493433952331543
1761330826907136300,8.54913623046875,-1.0947513580322266,-1.2864670753479004,-0.10458427667617798
1761330826925837000,8.567837158203124,-1.2954378128051758,-1.1993780136108398,-0.21872565150260925
1761330826944538000,8.5865380859375,-1.1147966384887695,-1.0741665363311768,-0.23150506615638733
1761330826963239000,8.605239013671875,-1.0004148483276367,-0.9395568370819092,-0.15726876258850098
1761330826981940000,8.62393994140625,-1.018148422241211,-0.8617842197418213,0.05302219092845917
1761330827000641000,8.64264111328125,-1.0827016830444336,-0.8061513900756836,0.2691155672073364
1761330827019341800,8.661341796875,-1.307119369506836,-0.7696335315704346,0.37158316373825073
1761330827038043000,8.68004296875,-1.8325839042663574,-0.6736972332000732,0.41151654720306396
1761330827056743700,8.69874365234375,-2.416898727416992,-0.4532945156097412,0.3132462501525879
1761330827075444700,8.71744482421875,-2.568962574005127,-0.18657732009887695,0.08014200627803802
1761330827094145500,8.7361455078125,-2.4634017944335938,0.017607688903808594,0.09625214338302612
1761330827112846600,8.7548466796875,-2.311481475830078,0.17919588088989258,0.13660119473934174
1761330827131547600,8.773547607421875,-2.0871191024780273,0.41485118865966797,0.002217710018157959
1761330827150248400,8.79224853515625,-1.746994972229004,0.565321683883667,-0.004045411944389343
1761330827168949500,8.810949462890624,-0.9477977752685547,0.8050696849822998,0.20025312900543213
1761330827187650300,8.829650390625,-0.9919948577880859,0.845146656036377,0.27185219526290894
1761330827206351400,8.848351318359375,-1.0406789779663086,1.0583670139312744,-0.11933267116546631
1761330827225052400,8.867052490234375,-0.4675588607788086,1.3453826904296875,-0.30795133113861084
1761330827243753200,8.885753173828125,0.4893922805786133,1.5284950733184814,-0.07297483086585999
1761330827262454300,8.904454345703124,1.3885831832885742,1.4895825386047363,0.16366791725158691
1761330827281155300,8.9231552734375,1.7577953338623047,1.2103028297424316,0.21927571296691895
1761330827299856400,8.9418564453125,2.28568172454834,1.2168898582458496,-0.2392827868461609
1761330827318557200,8.96055712890625,2.441068649291992,1.4237709045410156,-0.7216464281082153
1761330827337258200,8.97925830078125,2.2399988174438477,1.1927990913391113,-0.6682750582695007
1761330827355959000,8.997958984375,1.990788459777832,1.0861282348632812,-0.7227632999420166
1761330827374660000,9.01666015625,1.5846328735351562,0.9365999698638916,-0.1577451229095459
1761330827393361200,9.035361083984375,1.2027454376220703,0.32523345947265625,0.6878262758255005
1761330827412062000,9.05406201171875,1.5429983139038086,-0.3184540271759033,0.7419116497039795
1761330827430763000,9.072762939453124,2.133960723876953,-0.8267731666564941,0.14601057767868042
1761330827449463800,9.0914638671875,2.530466079711914,-1.2113535404205322,-0.6270592212677002
1761330827468164900,9.110164794921875,2.546778678894043,-1.6085375547409058,-0.9867833256721497
1761330827486866000,9.128865966796875,2.216038703918457,-1.837066888809204,-1.0419886112213135
1761330827505566700,9.147566650390624,1.4444847106933594,-1.795335292816162,-0.6969042420387268
1761330827524267800,9.166267822265626,0.49849605560302734,-1.6858398914337158,-0.4033704698085785
1761330827542968600,9.184968505859375,-0.44435787200927734,-1.5842056274414062,-0.6071374416351318
1761330827561669600,9.203669677734375,-1.17413330078125,-1.4575135707855225,-0.9801720380783081
1761330827580370700,9.22237060546875,-1.5647315979003906,-1.3134891986846924,-1.3341114521026611
1761330827599071500,9.241071533203124,-1.7494487762451172,-1.3405165672302246,-1.4151575565338135
1761330827617772500,9.2597724609375,-1.8734536170959473,-1.3101997375488281,-1.2923725843429565
1761330827636473300,9.278473388671875,-2.0378479957580566,-1.0316781997680664,-1.1910263299942017
1761330827655174400,9.29717431640625,-2.099062919616699,-0.7448086738586426,-1.1330397129058838
1761330827673875500,9.31587548828125,-2.0929689407348633,-0.501089334487915,-1.096089243888855
1761330827692576300,9.334576171875,-2.2447509765625,-0.2812354564666748,-1.2411290407180786
1761330827711277300,9.35327734375,-2.3683719635009766,-0.14789819717407227,-1.239029884338379
1761330827729978400,9.371978271484375,-2.3216257095336914,-0.11131668090820312,-0.9424178600311279
1761330827748679200,9.39067919921875,-2.382819175720215,-0.04453730583190918,-0.652708888053894
1761330827767380200,9.409380126953126,-2.233774185180664,0.12966609001159668,-0.8538932800292969
1761330827786081300,9.428081298828126,-1.7507658004760742,0.06273412704467773,-0.9826186299324036
1761330827804782000,9.446781982421875,-1.2574892044067383,-0.0038738250732421875,-0.9534435272216797
1761330827823483100,9.465483154296875,-0.615966796875,0.14061212539672852,-0.9645213484764099
1761330827842184200,9.48418408203125,-0.3697824478149414,0.43411946296691895,-0.8142713904380798
1761330827860885000,9.502885009765626,-0.504664421081543,0.8140726089477539,-0.6019729375839233
1761330827879586000,9.5215859375,-0.6115694046020508,1.1362824440002441,-0.34830304980278015
1761330827898287000,9.540287109375,-0.4089641571044922,1.4272198677062988,-0.148421972990036
1761330827916988000,9.55898779296875,-0.1265554428100586,1.624596118927002,-0.07222944498062134
1761330827935689000,9.57768896484375,0.4558868408203125,1.8555548191070557,-0.1289515495300293
1761330827954389800,9.5963896484375,1.2937498092651367,1.6709885597229004,0.15259557962417603
1761330827973090800,9.6150908203125,2.2697715759277344,1.5077388286590576,0.47018736600875854
1761330827991791900,9.6337919921875,3.2746829986572266,1.5138742923736572,0.6585176587104797
1761330828010492700,9.65249267578125,3.6032333374023438,1.218564748764038,0.9757132530212402
1761330828029193700,9.67119384765625,3.064875602722168,0.8338789939880371,1.2465983629226685
1761330828047894500,9.68989453125,2.312936782836914,0.5898315906524658,1.1741907596588135
1761330828066595600,9.708595703125,2.0372085571289062,0.24787545204162598,0.6035269498825073
1761330828085296600,9.727296630859374,2.540450096130371,-0.23418474197387695,0.12021076679229736
1761330828103997400,9.74599755859375,2.996283531188965,-0.9141323566436768,0.14685261249542236
1761330828122698500,9.764698486328125,3.2794694900512695,-1.3617695569992065,0.49508213996887207
1761330828141399600,9.783399658203125,3.005838394165039,-1.7746399641036987,1.0975488424301147
1761330828160100400,9.802100341796875,2.0928401947021484,-1.936429738998413,1.4018380641937256
1761330828178801400,9.820801513671874,0.8377475738525391,-1.9880850315093994,1.3534488677978516
1761330828197502200,9.839502197265626,-0.38562583923339844,-1.8436027765274048,1.0831024646759033
1761330828216203300,9.858203369140625,-1.137730598449707,-1.6186046600341797,0.682471513748169
1761330828234904000,9.876904052734375,-1.4941763877868652,-1.554911732673645,0.2850218415260315
1761330828253605000,9.895605224609374,-1.6842494010925293,-1.5522406101226807,0.20349502563476562
1761330828272306200,9.91430615234375,-1.7632379531860352,-1.3348362445831299,0.2505197823047638
1761330828291007000,9.933007080078125,-1.9414758682250977,-1.0652344226837158,0.35764145851135254
1761330828309708000,9.9517080078125,-2.023533821105957,-0.8266885280609131,0.3461337089538574
1761330828328409000,9.9704091796875,-2.03494930267334,-0.6035795211791992,0.3949015736579895
1761330828347110000,9.98910986328125,-2.2031354904174805,-0.41340088844299316,0.3992428779602051
1761330828365811000,10.00781103515625,-2.4572877883911133,-0.28887486457824707,0.2774803340435028
1761330828384512000,10.026511962890625,-2.472334861755371,-0.21656084060668945,0.4271564781665802
1761330828403212800,10.045212890625,-2.0786190032958984,-0.12911009788513184,0.6807006597518921
1761330828421913900,10.063913818359374,-1.739333152770996,-0.06649065017700195,0.6762821674346924
1761330828440615000,10.082614990234376,-1.5408706665039062,0.05097818374633789,0.48157674074172974
1761330828459315700,10.101315673828125,-1.4574298858642578,0.18915843963623047,0.5486124753952026
1761330828478016800,10.120016845703125,-1.3492403030395508,0.40316128730773926,0.6511846780776978
1761330828496717800,10.1387177734375,-1.15248441696167,0.6476771831512451,0.6536611318588257
1761330828515418600,10.157418701171874,-0.9459524154663086,0.9197161197662354,0.5491127371788025
1761330828534119700,10.17611962890625,-0.8930978775024414,1.042633056640625,0.36626267433166504
1761330828552820500,10.194820556640625,-0.9569787979125977,1.2732317447662354,0.10333696007728577
1761330828571521500,10.213521484375,-0.8277301788330078,1.5993802547454834,-0.014225408434867859
1761330828590222600,10.23222265625,-0.4781322479248047,1.7273130416870117,-0.05072884261608124
1761330828608923400,10.25092333984375,0.1337728500366211,1.8053953647613525,-0.30520716309547424
1761330828627624400,10.26962451171875,1.1167430877685547,1.6800215244293213,-0.3839632570743561
1761330828646325500,10.288325439453125,1.8316278457641602,1.447418212890625,-0.38368383049964905
1761330828665026300,10.3070263671875,2.231490135192871,1.4728727340698242,-0.49729299545288086
1761330828683727400,10.325727294921874,2.434415817260742,1.879868507385254,-0.8099952936172485
1761330828702428200,10.34442822265625,1.9126644134521484,1.8112244606018066,-1.0176504850387573
1761330828721129200,10.363129150390625,1.6952991485595703,1.2627551555633545,-0.9125485420227051
1761330828739830300,10.381830322265625,2.2856502532958984,0.24414753913879395,0.042297303676605225
1761330828758531000,10.400531005859374,3.340775489807129,-0.6300218105316162,0.785138726234436
1761330828777232100,10.419232177734376,4.043522834777832,-1.4519143104553223,0.9866566061973572
1761330828795933000,10.437932861328125,3.7599315643310547,-1.8242180347442627,0.3976439833641052
1761330828814634000,10.456634033203125,2.597378730773926,-1.7349159717559814,-0.1879151463508606
1761330828833335000,10.4753349609375,1.2442827224731445,-1.5027620792388916,-0.007877737283706665
1761330828852035800,10.494035888671876,0.12833309173583984,-1.533961534500122,0.30084192752838135
1761330828870737000,10.51273681640625,-0.6997880935668945,-1.6593875885009766,0.17048576474189758
1761330828889437700,10.531437744140625,-1.0076303482055664,-1.666379451751709,-0.4576157033443451
1761330828908138800,10.550138671875,-1.1884078979492188,-1.6101977825164795,-0.9429901838302612
1761330828926839800,10.56883984375,-1.2039680480957031,-1.3893630504608154,-1.054391860961914
1761330828945540900,10.587540771484376,-1.1852807998657227,-1.2067196369171143,-0.6921311616897583
1761330828964241700,10.60624169921875,-1.1014328002929688,-0.9696035385131836,-0.19983647763729095
1761330828982942700,10.624942626953125,-1.3584718704223633,-0.7925190925598145,0.003259822726249695
1761330829001643800,10.643643798828125,-1.8219127655029297,-0.6454102993011475,-0.10689033567905426
1761330829020344600,10.662344482421876,-2.1640686988830566,-0.43665575981140137,-0.3716447353363037
1761330829039045600,10.681045654296875,-2.39517879486084,-0.2770876884460449,-0.6246682405471802
1761330829057746400,10.699746337890625,-2.425933837890625,-0.1996781826019287,-0.939598560333252
1761330829076447500,10.718447509765625,-2.3242568969726562,-0.30674314498901367,-0.8561684489250183
1761330829095148500,10.7371484375,-1.9437255859375,-0.25733327865600586,-0.6630520224571228
1761330829113849300,10.755849365234376,-1.2774267196655273,-0.20989584922790527,-0.531868577003479
1761330829132550400,10.77455029296875,-0.49387073516845703,-0.530303955078125,-0.3753325939178467
1761330829151251200,10.793251220703125,-0.5459156036376953,0.1450200080871582,-1.2327721118927002
1761330829169952300,10.8119521484375,-1.5797967910766602,0.571922779083252,-1.605741024017334
1761330829188653300,10.8306533203125,-1.1631908416748047,0.2048969268798828,-0.6229060888290405
