time,seconds_elapsed,z,y,x
1761330818436719900,0.078719970703125,8.3629150390625,5.242674350738525,-0.28953152894973755
1761330818455420700,0.097420654296875,8.583054542541504,5.338387489318848,-0.6101697683334351
1761330818474121500,0.11612158203125,9.066405296325684,5.328815937042236,-1.0049854516983032
1761330818492822300,0.134822265625,9.688538551330566,5.252245903015137,-1.057627558708191
1761330818511523300,0.1535234375,10.023533821105957,5.1565327644348145,-0.9786644577980042
1761330818530224000,0.17222412109375,10.612168312072754,5.493920803070068,-1.0265209674835205
1761330818548925000,0.190925048828125,11.117053985595703,5.72123908996582,-1.191625714302063
1761330818567625700,0.209625732421875,11.016555786132812,5.376672267913818,-1.1174482107162476
1761330818586326500,0.228326416015625,10.796415328979492,4.974678039550781,-0.8901300430297852
1761330818605027300,0.24702734375,10.75813102722168,4.292723655700684,-0.4785645306110382
1761330818623728400,0.265728271484375,10.794022560119629,3.290131092071533,-0.016749758273363113
1761330818642429200,0.28442919921875,10.829915046691895,2.699103832244873,-0.031106693670153618
1761330818661130000,0.3031298828125,10.49970531463623,2.5196423530578613,-0.5000999569892883
1761330818679830800,0.321830810546875,10.100104331970215,2.667997360229492,-0.8877372145652771
1761330818698531800,0.34053173828125,9.958928108215332,2.691925525665283,-0.4570291340351105
1761330818717232600,0.359232666015625,9.626325607299805,2.778067111968994,0.12442677468061447
1761330818735933400,0.377933349609375,9.035298347473145,3.0556344985961914,0.1698904037475586
1761330818754634200,0.39663427734375,8.583054542541504,3.153740167617798,0.06939185410737991
1761330818773335000,0.4153349609375,8.243273735046387,3.1896326541900635,-0.2273181527853012
1761330818792035800,0.434035888671875,8.082955360412598,3.2207393646240234,-0.6484549641609192
1761330818810736600,0.452736572265625,8.128418922424316,3.3236305713653564,-0.6699903607368469
1761330818829437700,0.471437744140625,7.8795647621154785,3.4815568923950195,-0.5120640397071838
1761330818848138500,0.490138427734375,7.436892986297607,3.7112679481506348,-0.5527420043945312
1761330818866839300,0.50883935546875,7.204789161682129,3.9385859966278076,-0.6484549641609192
1761330818885540000,0.5275400390625,7.1473612785339355,4.022335052490234,-0.5072783827781677
1761330818904241000,0.546240966796875,6.946363925933838,3.9529430866241455,-0.4163511395454407
1761330818922942000,0.56494189453125,6.876972198486328,3.9385859966278076,-0.5144568681716919
1761330818941642800,0.583642822265625,7.17368221282959,3.900300979614258,-0.33020952343940735
1761330818960343600,0.602343505859375,7.635497093200684,3.85483717918396,-0.27038896083831787
1761330818979044400,0.62104443359375,8.049455642700195,3.902693748474121,-0.37806597352027893
1761330818997745200,0.6397451171875,8.327022552490234,3.955335855484009,-0.4618147611618042
1761330819016446200,0.6584462890625,8.48734188079834,4.163511276245117,-0.3900300860404968
1761330819035147000,0.67714697265625,8.640482902526855,4.500899314880371,-0.3278166949748993
1761330819053847800,0.695847900390625,8.824729919433594,4.744967460632324,-0.15553347766399384
1761330819072548600,0.714548583984375,8.937192916870117,5.01296329498291,-0.05024927482008934
1761330819091249700,0.733249755859375,9.104690551757812,5.347958564758301,0.07417750358581543
1761330819109950500,0.751950439453125,9.379864692687988,5.5106706619262695,0.19381862878799438
1761330819128651300,0.7706513671875,9.652647018432617,5.407779216766357,0.3684946894645691
1761330819147352000,0.78935205078125,10.229316711425781,5.173282623291016,0.7441678643226624
1761330819166052900,0.808052978515625,10.985448837280273,4.981856822967529,1.0336993932724
1761330819184753700,0.826753662109375,11.95454216003418,5.163711071014404,0.8877372145652771
1761330819203454700,0.845454833984375,11.992827415466309,5.19960355758667,0.7824530005455017
1761330819222155500,0.864155517578125,11.550154685974121,4.685146808624268,1.2729816436767578
1761330819240856300,0.882856201171875,11.46401309967041,4.398007869720459,1.9262222051620483
1761330819259557000,0.90155712890625,11.298908233642578,3.704089403152466,2.414358139038086
1761330819278258000,0.9202578125,10.916056632995605,3.0723843574523926,2.218146562576294
1761330819296958700,0.938958740234375,10.047462463378906,3.0029923915863037,1.7587246894836426
1761330819315659800,0.95765966796875,9.097511291503906,3.105883836746216,1.2370892763137817
1761330819334360600,0.976360595703125,8.683553695678711,3.1034910678863525,0.8901300430297852
1761330819353061400,0.995061279296875,8.69791030883789,2.974278450012207,0.9619147181510925
1761330819371762200,1.01376220703125,8.48734188079834,2.864208698272705,1.2083754539489746
1761330819390463000,1.032462890625,7.836493968963623,3.0484559535980225,1.2203395366668701
1761330819409164000,1.0511640625,7.231110095977783,3.232703447341919,0.8877372145652771
1761330819427864800,1.06986474609375,6.9583282470703125,3.34995174407959,0.33499518036842346
1761330819446565600,1.088565673828125,7.128218650817871,3.383451223373413,-0.08614161610603333
1761330819465266400,1.107266357421875,7.5637125968933105,3.359523057937622,-0.23449662327766418
1761330819483967200,1.12596728515625,8.051848411560059,3.469592809677124,-0.2991028428077698
1761330819502668300,1.144668212890625,8.21695327758789,3.531806230545044,-0.1986042857170105
1761330819521369000,1.163369140625,8.298309326171875,3.751945972442627,-0.064606212079525
1761330819540070000,1.18206982421875,8.209774017333984,3.7471601963043213,0.21774685382843018
1761330819558770700,1.200770751953125,8.094919204711914,3.5270206928253174,0.5814558863639832
1761330819577471700,1.2194716796875,8.14516830444336,3.4408788681030273,0.8231309652328491
1761330819596172500,1.238172607421875,8.159524917602539,3.517449378967285,0.8925228714942932
1761330819614873300,1.256873291015625,8.343772888183594,3.7878382205963135,0.42831525206565857
1761330819633574100,1.27557421875,8.511270523071289,3.9912281036376953,0.14356936514377594
1761330819652275000,1.29427490234375,8.549555778503418,4.264009952545166,0
1761330819670976000,1.31297607421875,8.484949111938477,4.412364959716797,-0.01196411345154047
1761330819689676800,1.3316767578125,8.638090133666992,4.534399032592773,0.14356936514377594
1761330819708377600,1.350377685546875,8.784051895141602,4.577469825744629,0.5670989751815796
1761330819727078400,1.369078369140625,8.85344409942627,4.555934429168701,0.28953152894973755
1761330819745779500,1.387779541015625,8.96112060546875,4.524827480316162,-0.5383850932121277
1761330819764480300,1.406480224609375,9.547362327575684,4.4961137771606445,-1.1988041400909424
1761330819783181000,1.42518115234375,10.375279426574707,4.034298896789551,-0.9403793215751648
1761330819801881900,1.4438818359375,10.990234375,3.9936211109161377,-0.5455635786056519
1761330819820582700,1.462582763671875,11.593225479125977,4.754538536071777,-0.7680960893630981
1761330819839283700,1.48128369140625,11.660224914550781,4.7712883949279785,-0.6580262184143066
1761330819857984500,1.499984619140625,11.729616165161133,4.419543266296387,-0.2560320198535919
1761330819876685300,1.518685302734375,11.82293701171875,3.5748770236968994,0.24885354936122894
1761330819895386000,1.53738623046875,11.69133186340332,2.7828526496887207,-0.007178467698395252
1761330819914087000,1.5560869140625,11.234302520751953,2.4095723628997803,-0.698704183101654
1761330819932788000,1.5747880859375,10.746166229248047,2.3306093215942383,-1.28255295753479
1761330819951488800,1.59348876953125,10.590633392333984,2.2372891902923584,-1.3160524368286133
1761330819970189600,1.612189453125,10.585846900939941,2.3018953800201416,-1.093519926071167
1761330819988890400,1.630890380859375,10.1814603805542,2.5435705184936523,-0.8350951075553894
1761330820007591400,1.64959130859375,9.253045082092285,2.8737800121307373,-0.5838487148284912
1761330820026292200,1.668292236328125,8.405985832214355,3.046063184738159,-0.3517449200153351
1761330820044993000,1.686992919921875,7.9489569664001465,3.136990547180176,-0.2679961323738098
1761330820063693800,1.70569384765625,7.7216386795043945,3.187239646911621,-0.49292147159576416
1761330820082395000,1.724394775390625,7.379465103149414,3.201596736907959,-0.7441678643226624
1761330820101095700,1.743095703125,7.140182971954346,3.3643085956573486,-0.7896314859390259
1761330820119796500,1.76179638671875,7.008577346801758,3.5533416271209717,-0.7968099117279053
1761330820138497500,1.78049755859375,7.164111137390137,3.713660717010498,-0.5862415432929993
1761330820157198300,1.7991982421875,7.355536937713623,3.6538400650024414,-0.20578274130821228
1761330820175899100,1.817899169921875,7.403393268585205,3.586841106414795,-0.22971096634864807
1761330820194600000,1.836599853515625,7.546962738037109,3.627519130706787,-0.37806597352027893
1761330820213301000,1.855301025390625,7.89631462097168,3.620340585708618,-0.34695929288864136
1761330820232001800,1.874001708984375,8.190631866455078,3.682554006576538,-0.3684946894645691
1761330820250702600,1.89270263671875,8.504091262817383,3.8500516414642334,-0.46899324655532837
1761330820269403400,1.9114033203125,8.616554260253906,4.034298896789551,-0.48574298620224
1761330820288104400,1.9301044921875,8.654839515686035,4.223331928253174,-0.31106695532798767
1761330820306805200,1.94880517578125,8.7505521774292,4.302295207977295,-0.11006984114646912
1761330820325506000,1.967506103515625,8.891729354858398,4.610969066619873,-0.1818545162677765
1761330820344206800,1.986206787109375,9.119047164916992,4.9124650955200195,-0.41156548261642456
1761330820362907600,2.00490771484375,9.607182502746582,4.797609329223633,-0.18903298676013947
1761330820381608700,2.023608642578125,10.198209762573242,4.4410786628723145,0.3613162338733673
1761330820400309500,2.0423095703125,11.155339241027832,4.309473514556885,0.7704889178276062
1761330820419010300,2.06101025390625,11.899506568908691,4.4650068283081055,0.8303094506263733
1761330820437711000,2.079711181640625,11.48794174194336,4.302295207977295,0.8255237936973572
1761330820456412200,2.098412109375,10.97587776184082,3.9936211109161377,1.3088740110397339
1761330820475113000,2.117113037109375,11.181660652160645,3.383451223373413,1.9142581224441528
1761330820493813800,2.135813720703125,11.645867347717285,2.8977081775665283,2.1032910346984863
1761330820512514600,2.1545146484375,11.554940223693848,2.5292134284973145,1.97407865524292
1761330820531215600,2.173215576171875,11.011770248413086,2.421536445617676,1.4979069232940674
1761330820549916400,2.19191650390625,10.631311416625977,2.3162522315979004,1.0815558433532715
1761330820568617200,2.2106171875,10.353743553161621,2.187039852142334,0.9355936646461487
1761330820587318300,2.229318359375,9.820143699645996,2.3784656524658203,1.00259268283844
1761330820606019000,2.24801904296875,8.963513374328613,2.699103832244873,1.0600204467773438
1761330820624720000,2.266719970703125,8.12123966217041,2.9001009464263916,1.062413215637207
1761330820643420700,2.285420654296875,7.420143127441406,2.902493953704834,0.519242525100708
1761330820662121700,2.304121826171875,6.948757171630859,3.1657042503356934,0.01196411345154047
1761330820680822500,2.322822509765625,6.9822564125061035,3.407379388809204,-0.11964113265275955
1761330820699523300,2.3415234375,7.032505512237549,3.3714871406555176,-0.07896314561367035
1761330820718224100,2.36022412109375,7.29810905456543,3.414557933807373,-0.06699903309345245
1761330820736925200,2.37892529296875,7.546962738037109,3.5772697925567627,0.16031911969184875
1761330820755626000,2.3976259765625,7.843672752380371,3.704089403152466,0.20099709928035736
1761330820774326800,2.416326904296875,8.01356315612793,3.6370904445648193,0.42352959513664246
1761330820793027600,2.435027587890625,8.085348129272461,3.579662561416626,0.6891329288482666
1761330820811728600,2.453728759765625,8.157132148742676,3.713660717010498,0.7680960893630981
1761330820830429400,2.472429443359375,8.305487632751465,3.926621913909912,0.49292147159576416
1761330820849130200,2.491130126953125,8.578269004821777,4.151547431945801,0.30149564146995544
1761330820867831300,2.509831298828125,9.083154678344727,4.431507587432861,0.23449662327766418
1761330820886532000,2.528531982421875,9.468399047851562,4.429114818572998,0.3517449200153351
1761330820905233000,2.54723291015625,9.578469276428223,4.4721856117248535,0.4043870270252228
1761330820923933700,2.56593359375,9.772287368774414,4.498506546020508,0.28235307335853577
1761330820942634800,2.584634765625,9.626325607299805,4.326223373413086,-0.3206382393836975
1761330820961335600,2.60333544921875,9.279366493225098,4.589433670043945,-1.3495519161224365
1761330820980036400,2.622036376953125,9.150154113769531,4.666004180908203,-1.9286150932312012
1761330820998737200,2.640737060546875,9.970891952514648,4.106083869934082,-1.332802176475525
1761330821017438200,2.659438232421875,11.289337158203125,4.1970109939575195,-0.8542376756668091
1761330821036139000,2.678138916015625,12.160325050354004,4.357329845428467,-0.4953143000602722
1761330821054839800,2.69683984375,12.217752456665039,4.338187217712402,-0.2512463629245758
1761330821073540900,2.715540771484375,11.576476097106934,4.041477680206299,-0.24885354936122894
1761330821092241700,2.73424169921875,11.095519065856934,3.476771354675293,-0.5790630578994751
1761330821110942500,2.7529423828125,10.707880973815918,2.768495798110962,-1.0169496536254883
1761330821129643500,2.7716435546875,10.207781791687012,2.3090739250183105,-1.5696916580200195
1761330821148344300,2.79034423828125,9.765109062194824,2.0865414142608643,-1.950150489807129
1761330821167045000,2.809045166015625,9.487542152404785,1.9262222051620483,-1.7324036359786987
1761330821185746000,2.827745849609375,9.372686386108398,1.8544375896453857,-0.9834501147270203
1761330821204446700,2.84644677734375,9.150154113769531,1.9334007501602173,-0.38285163044929504
1761330821223147800,2.865147705078125,8.877371788024902,2.2444677352905273,-0.14356936514377594
1761330821241848600,2.8838486328125,8.664410591125488,2.337787628173828,-0.2679961323738098
1761330821260549600,2.902549560546875,8.360522270202637,2.2444677352905273,-0.5120640397071838
1761330821279250400,2.92125048828125,8.116454124450684,2.4335005283355713,-0.7752745151519775
1761330821297951200,2.939951171875,8.09970474243164,2.8498518466949463,-0.8805587291717529
1761330821316652000,2.958652099609375,7.678567886352539,3.242274761199951,-0.8805587291717529
1761330821335353000,2.97735302734375,6.8482584953308105,3.665804386138916,-0.9762716293334961
1761330821354054000,2.996053955078125,6.44387149810791,4.086941242218018,-0.9762716293334961
1761330821372754700,3.014754638671875,6.467799663543701,4.094119548797607,-0.6460621356964111
1761330821391455700,3.033455810546875,6.836294174194336,4.048655986785889,-0.41156548261642456
1761330821410156500,3.052156494140625,7.326822757720947,4.039084434509277,-0.3852444589138031
1761330821428857300,3.070857421875,7.793423175811768,3.893122434616089,-0.349352091550827
1761330821447558400,3.089558349609375,8.252845764160156,3.8356947898864746,-0.24646073579788208
1761330821466259200,3.10825927734375,8.889336585998535,3.94097900390625,-0.34217363595962524
1761330821484960000,3.1269599609375,9.391828536987305,4.125226020812988,-0.5623133182525635
1761330821503660800,3.145660888671875,9.779465675354004,4.194618225097656,-0.7082754969596863
1761330821522361600,3.164361572265625,9.731609344482422,4.211368083953857,-0.6771687865257263
1761330821541062700,3.183062744140625,9.54496955871582,4.455435752868652,-0.5958128571510315
1761330821559763500,3.201763427734375,9.528220176696777,4.620540618896484,-0.3206382393836975
1761330821578464500,3.220464599609375,9.853643417358398,4.4650068283081055,-0.12203395366668701
1761330821597165300,3.239165283203125,10.348958015441895,4.122833251953125,0.33499518036842346
1761330821615866000,3.2578662109375,10.870593070983887,4.091726779937744,0.8087740540504456
1761330821634567200,3.276567138671875,11.413763999938965,4.634897232055664,0.6771687865257263
1761330821653268000,3.29526806640625,11.657832145690918,4.615755081176758,0.5623133182525635
1761330821671968800,3.31396875,12.248859405517578,3.570091485977173,1.4165509939193726
1761330821690669800,3.332669921875,12.873385429382324,2.313859462738037,2.4263222217559814
1761330821709370600,3.35137060546875,13.466805458068848,1.4644074440002441,3.074777126312256
1761330821728071400,3.370071533203125,12.760923385620117,1.301695466041565,2.6273193359375
1761330821746772500,3.3887724609375,10.736595153808594,1.9381862878799438,1.5170495510101318
1761330821765473300,3.407473388671875,8.970691680908203,2.4526431560516357,0.7393822073936462
1761330821784174000,3.426174072265625,8.200202941894531,2.555534601211548,0.5814558863639832
1761330821802875100,3.444875244140625,7.848458290100098,2.3952155113220215,0.729810893535614
1761330821821576000,3.463575927734375,7.312466144561768,2.50289249420166,0.6867401003837585
1761330821840276700,3.48227685546875,6.781259536743164,2.8522446155548096,0.3517449200153351
1761330821858977800,3.500977783203125,6.558726787567139,3.0723843574523926,0.12203395366668701
1761330821877678600,3.5196787109375,6.774080753326416,3.16331148147583,-0.02153540402650833
1761330821896379400,3.53837939453125,7.1473612785339355,3.108276605606079,-0.16510476171970367
1761330821915080200,3.557080078125,7.712067604064941,3.1274192333221436,-0.42831525206565857
1761330821933781200,3.57578125,8.513663291931152,3.1417760848999023,-0.5575276613235474
1761330821952482000,3.59448193359375,9.09272575378418,3.012563705444336,-0.4618147611618042
1761330821971183000,3.61318310546875,9.286544799804688,2.909672260284424,-0.31106695532798767
1761330821989884000,3.6318837890625,9.109476089477539,2.9168508052825928,-0.09092725813388824
1761330822008584700,3.650584716796875,9.042476654052734,3.0340991020202637,0.2847459018230438
1761330822027285500,3.669285400390625,8.941978454589844,3.1752755641937256,0.4331009089946747
1761330822045986600,3.687986572265625,8.803194046020508,3.390629768371582,0.1818545162677765
1761330822064687400,3.706687255859375,8.69791030883789,3.594019651412964,-0.15553347766399384
1761330822083388400,3.725388427734375,8.740981101989746,3.7423746585845947,-0.17946170270442963
1761330822102089200,3.744089111328125,8.997013092041016,3.996013879776001,-0.064606212079525
1761330822120790000,3.7627900390625,9.126225471496582,4.122833251953125,0.1459621787071228
1761330822139491000,3.781490966796875,9.17886734008789,4.292723655700684,0.2727817893028259
1761330822158191900,3.80019189453125,9.150154113769531,4.47697114944458,-0.07417750358581543
1761330822176892700,3.818892578125,9.109476089477539,4.388436794281006,-0.5790630578994751
1761330822195593700,3.83759375,8.999405860900879,4.225724697113037,-1.062413215637207
1761330822214294500,3.85629443359375,9.382257461547852,3.6610186100006104,-0.9906286001205444
1761330822232995300,3.874995361328125,10.540383338928223,3.019742250442505,-0.6604190468788147
1761330822251696400,3.8936962890625,11.875578880310059,3.2685956954956055,-0.6293123364448547
1761330822270397200,3.912397216796875,11.97607707977295,4.185046672821045,-0.9044869542121887
1761330822289098000,3.931097900390625,11.164910316467285,4.618147850036621,-0.8638089895248413
1761330822307799000,3.949799072265625,10.652846336364746,4.242474555969238,-0.20099709928035736
1761330822326499800,3.968499755859375,10.660024642944336,3.31884503364563,0.2105683982372284
1761330822345201000,3.987200927734375,10.64806079864502,2.4909284114837646,0.038285162299871445
1761330822363901700,4.005901611328125,10.600204467773438,1.9405791759490967,-0.4211367964744568
1761330822382602500,4.0246025390625,10.652846336364746,1.5337992906570435,-0.5335994362831116
1761330822401303300,4.04330322265625,10.600204467773438,1.4261223077774048,-0.2799602448940277
1761330822420004400,4.06200439453125,10.092926025390625,1.8496519327163696,0.14356936514377594
1761330822438705200,4.080705078125,9.34157943725586,2.2372891902923584,0.4259224236011505
1761330822457406200,4.09940625,8.606983184814453,2.407179594039917,0.6532405614852905
1761330822476107000,4.11810693359375,7.936992645263672,2.445464849472046,0.6675975322723389
1761330822494807800,4.136807861328125,7.668996810913086,2.431107759475708,0.45224347710609436
1761330822513508900,4.1555087890625,7.661818027496338,2.4598217010498047,0.13639089465141296
1761330822532209700,4.174209716796875,7.5565338134765625,2.682354211807251,-0.29431718587875366
1761330822550910500,4.192910400390625,7.417750358581543,2.8450660705566406,-0.37806597352027893
1761330822569611500,4.211611572265625,7.274180889129639,3.1034910678863525,-0.2512463629245758
1761330822588312300,4.230312255859375,7.058826923370361,3.3882367610931396,-0.13160525262355804
1761330822607013400,4.249013427734375,6.999006271362305,3.562912940979004,-0.07657032459974289
1761330822625714200,4.267714111328125,7.152146816253662,3.7974095344543457,-0.1818545162677765
1761330822644415000,4.2864150390625,7.405786037445068,3.9744784832000732,-0.4331009089946747
1761330822663116000,4.305115966796875,7.767102241516113,4.139583110809326,-0.698704183101654
1761330822681816800,4.32381689453125,8.513663291931152,4.2281174659729,-0.7106683254241943
1761330822700518000,4.342517822265625,9.384650230407715,4.2592244148254395,-0.4618147611618042
1761330822719218700,4.36121875,9.870393753051758,4.374079704284668,-0.19142581522464752
1761330822737919500,4.37991943359375,9.915857315063477,4.522434711456299,0.04307080805301666
1761330822756620500,4.39862060546875,9.643074989318848,4.713860511779785,0.13878370821475983
1761330822775321300,4.4173212890625,9.272188186645508,5.072783946990967,0.02392822690308094
1761330822794022100,4.436022216796875,9.21715259552002,5.3312087059021,-0.15553347766399384
1761330822812723200,4.45472314453125,9.741181373596191,4.859822750091553,0.08614161610603333
1761330822831424000,4.473424072265625,10.829915046691895,4.208974838256836,0.17946170270442963
1761330822850125000,4.492125,12.406785011291504,3.9912281036376953,0.12442677468061447
1761330822868825900,4.510825927734375,12.270394325256348,4.785645484924316,0.038285162299871445
1761330822887526700,4.529526611328125,10.717453002929688,4.965106964111328,-0.48095735907554626
1761330822906227700,4.548227783203125,10.435099601745605,4.027120590209961,-0.2273181527853012
1761330822924928500,4.566928466796875,11.533405303955078,2.720639228820801,0.5670989751815796
1761330822943629300,4.58562939453125,13.189238548278809,1.5553346872329712,1.5361921787261963
1761330822962330400,4.604330322265625,13.277772903442383,1.2921242713928223,1.3567304611206055
1761330822981031200,4.62303125,11.521441459655762,1.6654045581817627,0.14356936514377594
1761330822999732200,4.641732177734375,9.820143699645996,1.7395820617675781,-0.39481574296951294
1761330823018433000,4.66043310546875,9.145368576049805,1.7826528549194336,-0.36610186100006104
1761330823037133800,4.6791337890625,8.683553695678711,1.789831280708313,0.11964113265275955
1761330823055835000,4.6978349609375,7.8819580078125,1.911865234375,0.4713860750198364
1761330823074535700,4.71653564453125,7.439285755157471,2.1439690589904785,0.5958128571510315
1761330823093236700,4.73523681640625,7.592426300048828,2.273181438446045,0.3397808074951172
1761330823111937500,4.7539375,7.798209190368652,2.3401806354522705,-0.07657032459974289
1761330823130638600,4.772638671875,7.798209190368652,2.4717857837677,-0.44027936458587646
1761330823149339400,4.79133935546875,7.566105365753174,2.837887763977051,-0.8925228714942932
1761330823168040200,4.810040283203125,7.35314416885376,3.208775281906128,-1.0600204467773438
1761330823186741200,4.8287412109375,7.245467185974121,3.311666488647461,-0.8470591902732849
1761330823205442000,4.847442138671875,7.482356548309326,3.108276605606079,-0.44745782017707825
1761330823224143000,4.86614306640625,8.116454124450684,2.950350284576416,-0.08614161610603333
1761330823242844000,4.884843994140625,8.901300430297852,2.794816732406616,0.16510476171970367
1761330823261545000,4.903544921875,9.621540069580078,2.744567632675171,0.18903298676013947
1761330823280245800,4.922245849609375,9.820143699645996,2.9312076568603516,-0.04785645380616188
1761330823298946600,4.940946533203125,9.774680137634277,3.1680972576141357,-0.2153540402650833
1761330823317647600,4.959647705078125,9.616754531860352,3.3571300506591797,0.02392822690308094
1761330823336348400,4.978348388671875,9.236295700073242,3.672982692718506,0.07417750358581543
1761330823355049200,4.99704931640625,8.848658561706543,3.9433717727661133,0.11964113265275955
1761330823373750300,5.015750244140625,8.595019340515137,4.211368083953857,0.040677983313798904
1761330823392451300,5.034451416015625,8.520841598510742,4.357329845428467,-0.36610186100006104
1761330823411152100,5.053152099609375,8.559126853942871,4.48414945602417,-1.0911271572113037
1761330823429853000,5.07185302734375,8.863015174865723,4.40757942199707,-1.3758729696273804
1761330823448554000,5.090553955078125,9.315258979797363,3.8213376998901367,-1.1461620330810547
1761330823467254800,5.1092548828125,10.403992652893066,3.5676984786987305,-1.222732424736023
1761330823485955600,5.12795556640625,11.753544807434082,3.7112679481506348,-1.4500504732131958
1761330823504656600,5.14665673828125,12.440284729003906,4.034298896789551,-1.4069796800613403
1761330823523357400,5.165357421875,12.423535346984863,3.730410575866699,-0.9978070259094238
1761330823542058500,5.18405859375,12.160325050354004,2.6632115840911865,-0.605384111404419
1761330823560759300,5.20275927734375,12.256037712097168,1.3878371715545654,-0.7728816866874695
1761330823579460400,5.22146044921875,12.138789176940918,0.6340979933738708,-1.3495519161224365
1761330823598161200,5.2401611328125,11.758330345153809,0.34217363595962524,-1.8616160154342651
1761330823616862200,5.2588623046875,11.138589859008789,0.2967100143432617,-1.7156537771224976
1761330823635563000,5.27756298828125,10.238887786865234,0.5862415432929993,-0.9332008361816406
1761330823654263800,5.296263916015625,9.29611587524414,1.0600204467773438,-0.29431718587875366
1761330823672964900,5.31496484375,8.635697364807129,1.2035897970199585,0.07896314561367035
1761330823691665700,5.333665771484375,8.324629783630371,1.31365966796875,0.08135596662759781
1761330823710366700,5.35236669921875,7.956135272979736,1.4500504732131958,-0.1698904037475586
1761330823729067500,5.371067626953125,7.70967435836792,1.825723648071289,-0.5527420043945312
1761330823747768600,5.3897685546875,7.470392227172852,2.2755744457244873,-0.7992027401924133
1761330823766469400,5.408469482421875,7.113861560821533,2.7421748638153076,-0.7537391185760498
1761330823785170400,5.42717041015625,7.013363361358643,3.266202926635742,-0.4905286431312561
1761330823803871200,5.445871337890625,7.0301127433776855,3.4480574131011963,-0.014356935396790504
1761330823822572000,5.464572021484375,7.063612461090088,3.570091485977173,0.07178468257188797
1761330823841273000,5.483273193359375,7.343572616577148,3.601198196411133,-0.24885354936122894
1761330823859974100,5.50197412109375,7.70967435836792,3.4169507026672363,-0.48095735907554626
1761330823878675000,5.520675048828125,8.082955360412598,3.5605201721191406,-1.0648061037063599
1761330823897376000,5.5393759765625,8.401200294494629,3.570091485977173,-1.5194423198699951
1761330823916076800,5.558076904296875,8.724231719970703,3.6681971549987793,-1.730010747909546
1761330823934777600,5.576777587890625,9.250652313232422,3.7639100551605225,-1.5720844268798828
1761330823953478700,5.595478759765625,9.578469276428223,3.78544545173645,-1.062413215637207
1761330823972179500,5.614179443359375,9.978070259094238,4.00319242477417,-0.8685946464538574
1761330823990880500,5.632880615234375,10.205389022827148,4.118047714233398,-0.9762716293334961
1761330824009581300,5.651581298828125,10.272387504577637,4.060619831085205,-1.0504491329193115
1761330824028282400,5.670282470703125,10.540383338928223,3.9601213932037354,-1.1198409795761108
1761330824046983200,5.688983154296875,11.052447319030762,3.625126361846924,-0.9068797826766968
1761330824065684200,5.707684326171875,12.114861488342285,2.943171739578247,-0.28953152894973755
1761330824084385000,5.726385009765625,13.627124786376953,2.014756679534912,0.4618147611618042
1761330824103086000,5.745086181640625,14.179866790771484,1.852044701576233,0.275174617767334
1761330824121787000,5.763786865234375,12.964313507080078,2.6177480220794678,-0.6269195079803467
1761330824140487700,5.78248779296875,11.861222267150879,3.239881753921509,-0.8638089895248413
1761330824159188700,5.801188720703125,12.385250091552734,2.455035924911499,-0.2560320198535919
1761330824177889500,5.8198896484375,12.983455657958984,1.031306505203247,0.8566305041313171
1761330824196590600,5.838590576171875,13.435699462890625,0.059820566326379776,1.3208380937576294
1761330824215291400,5.85729150390625,12.581461906433105,-0.2225325107574463,1.0456634759902954
1761330824233992400,5.875992431640625,10.681560516357422,0.2512463629245758,0.12921242415905
1761330824252693200,5.894693359375,8.96829891204834,0.5527420043945312,-0.3206382393836975
1761330824271394300,5.913394287109375,7.8628153800964355,0.8231309652328491,-0.34217363595962524
1761330824290095000,5.93209521484375,7.3292155265808105,1.1724830865859985,-0.038285162299871445
1761330824308796200,5.950796142578125,7.240681171417236,1.428515076637268,0.363709032535553
1761330824327497000,5.9694970703125,7.22871732711792,1.4979069232940674,0.5072783827781677
1761330824346198000,5.988197998046875,7.345965385437012,1.557727575302124,0.4546363055706024
1761330824364898800,6.00689892578125,7.618747234344482,1.6821542978286743,0.4426721930503845
1761330824383599900,6.025599853515625,7.9968132972717285,1.8664016723632812,0.4977070987224579
1761330824402300700,6.04430078125,8.118846893310547,1.9812572002410889,0.3852444589138031
1761330824421001700,6.063001708984375,7.853243827819824,2.1607189178466797,0.3397808074951172
1761330824439702500,6.08170263671875,7.491927623748779,2.3952155113220215,0.2584248483181
1761330824458403600,6.100403564453125,7.271788120269775,2.6536402702331543,0.059820566326379776
1761330824477104400,6.1191044921875,7.475177764892578,2.8905298709869385,0.007178467698395252
1761330824495805400,6.137805419921875,7.893921852111816,3.067598581314087,0.22013968229293823
1761330824514506200,6.15650634765625,8.104490280151367,3.0963125228881836,0.20817556977272034
1761330824533207300,6.175207275390625,8.286344528198242,3.1680972576141357,0.09571290761232376
1761330824551908000,6.193908203125,8.695517539978027,3.297309637069702,-0.16510476171970367
1761330824570609000,6.21260888671875,9.066405296325684,3.462414264678955,-0.36610186100006104
1761330824589310000,6.23131005859375,9.236295700073242,3.7471601963043213,-0.4426721930503845
1761330824608011000,6.250010986328125,9.475577354431152,3.972085475921631,-0.2632105052471161
1761330824626711800,6.2687119140625,9.89432144165039,3.9625144004821777,-0.13639089465141296
1761330824645412900,6.287412841796875,10.607382774353027,3.9840497970581055,-0.3326023519039154
1761330824664113700,6.30611376953125,11.227124214172363,3.8979079723358154,-0.8015955686569214
1761330824682814700,6.324814697265625,11.724830627441406,3.728017568588257,-1.1988041400909424
1761330824701515500,6.343515625,12.229716300964355,3.6442689895629883,-1.373480200767517
1761330824720216600,6.362216552734375,12.9954195022583,3.6777684688568115,-1.3160524368286133
1761330824738917400,6.38091748046875,13.241880416870117,3.651447296142578,-1.0289137363433838
1761330824757618400,6.399618408203125,12.672389030456543,3.5294134616851807,-0.8757730722427368
1761330824776319200,6.4183193359375,12.174681663513184,2.6392834186553955,-0.22013968229293823
1761330824795020300,6.437020263671875,12.134003639221191,1.6558332443237305,0.40677985548973083
1761330824813721000,6.45572119140625,12.212966918945312,1.093519926071167,0.48095735907554626
1761330824832422100,6.474422119140625,12.098111152648926,0.7561319470405579,0.5623133182525635
1761330824851123000,6.493123046875,11.526226997375488,0.8997012972831726,0.24406790733337402
1761330824869824000,6.511823974609375,10.638489723205566,1.0480563640594482,0.038285162299871445
1761330824888524800,6.53052490234375,9.760323524475098,1.1868400573730469,0.08614161610603333
1761330824907225900,6.549225830078125,9.025727272033691,1.2562319040298462,0.031106693670153618
1761330824925926700,6.5679267578125,8.49452018737793,1.3806586265563965,-0.18903298676013947
1761330824944627700,6.586627685546875,8.090133666992188,1.3663017749786377,-0.6293123364448547
1761330824963328500,6.60532861328125,8.12123966217041,1.2945170402526855,-0.8973084688186646
1761330824982029600,6.624029541015625,8.453842163085938,1.2705888748168945,-0.9523434042930603
1761330825000730400,6.64273046875,8.499305725097656,1.404586911201477,-0.9308080077171326
1761330825019431400,6.661431396484375,8.331808090209961,1.6319050788879395,-0.9427721500396729
1761330825038132200,6.68013232421875,8.090133666992188,1.8544375896453857,-1.062413215637207
1761330825056833300,6.698833251953125,7.735995769500732,2.093719720840454,-1.0791629552841187
1761330825075534300,6.717534423828125,7.326822757720947,2.3952155113220215,-1.038485050201416
1761330825094235100,6.736235107421875,6.955935478210449,2.7900311946868896,-1.0360921621322632
1761330825112936200,6.754936279296875,6.695117950439453,3.1130621433258057,-0.9571290612220764
1761330825131637000,6.773636962890625,6.6352972984313965,3.208775281906128,-0.8327022790908813
1761330825150338000,6.792338134765625,6.943971157073975,3.1417760848999023,-0.8757730722427368
1761330825169038800,6.811038818359375,7.386643409729004,2.9838497638702393,-0.9092726111412048
1761330825187740000,6.829739990234375,7.75753116607666,3.036491870880127,-1.0169496536254883
1761330825206440700,6.848440673828125,7.953742504119873,3.16331148147583,-1.3902299404144287
1761330825225141800,6.867141845703125,8.171489715576172,3.2231321334838867,-1.2873386144638062
1761330825243842600,6.885842529296875,8.338987350463867,3.3786656856536865,-1.0169496536254883
1761330825262543600,6.904543701171875,8.726624488830566,3.5341989994049072,-0.30628129839897156
1761330825281244400,6.923244384765625,9.439684867858887,3.8763725757598877,0.18424734473228455
1761330825299945500,6.941945556640625,10.145567893981934,4.419543266296387,0.2847459018230438
1761330825318646500,6.960646484375,10.681560516357422,4.7712883949279785,-0.0526420995593071
1761330825337347300,6.979347412109375,11.56690502166748,4.697110652923584,-0.31345975399017334
1761330825356048400,6.99804833984375,13.39262866973877,4.094119548797607,0.21296121180057526
1761330825374749200,7.016749267578125,14.842679023742676,3.7112679481506348,0.5264210104942322
1761330825393450200,7.0354501953125,14.531611442565918,3.82373046875,0.2967100143432617
1761330825412151000,7.054151123046875,13.277772903442383,3.4097721576690674,0.38285163044929504
1761330825430852000,7.07285205078125,12.406785011291504,2.9790642261505127,0.727418065071106
1761330825449553000,7.091552978515625,12.045469284057617,2.6153552532196045,0.7345965504646301
1761330825468254000,7.11025390625,12.011969566345215,2.0889341831207275,0.7968099117279053
1761330825486954800,7.128954833984375,11.772686958312988,1.8424733877182007,0.9858429431915283
1761330825505655800,7.14765576171875,11.20798110961914,1.6773686408996582,0.9978070259094238
1761330825524356600,7.166356689453125,10.482955932617188,1.5122638940811157,1.038485050201416
1761330825543057700,7.1850576171875,9.619147300720215,1.3902299404144287,1.1653046607971191
1761330825561758700,7.2037587890625,8.740981101989746,1.5409778356552124,1.2442678213119507
1761330825580459500,7.22245947265625,7.83410120010376,1.6965112686157227,0.8183453679084778
1761330825599160600,7.24116064453125,7.197610378265381,1.5744773149490356,0.24885354936122894
1761330825617861600,7.259861572265625,7.066005229949951,1.4380863904953003,-0.16271193325519562
1761330825636562400,7.2785625,7.2430739402771,1.5002998113632202,-0.4666004180908203
1761330825655263500,7.297263427734375,7.592426300048828,1.667797327041626,-0.6364908218383789
1761330825673964300,7.31596435546875,7.984848976135254,1.8544375896453857,-0.28235307335853577
1761330825692665300,7.334665283203125,8.051848411560059,2.0745773315429688,0.30628129839897156
1761330825711366100,7.3533662109375,7.659425258636475,2.2851455211639404,0.4953143000602722
1761330825730067200,7.372067138671875,7.0995049476623535,2.5196423530578613,0.33738797903060913
1761330825748768000,7.39076806640625,6.929614543914795,2.744567632675171,-0.05742774158716202
1761330825767469000,7.409468994140625,6.86261510848999,2.9048867225646973,-0.1698904037475586
1761330825786169900,7.428169921875,7.046862602233887,3.0891339778900146,0.1459621787071228
1761330825804871000,7.446870849609375,7.743174076080322,3.2446675300598145,0.7010970115661621
1761330825823572000,7.465572021484375,8.817551612854004,3.2829527854919434,1.1461620330810547
1761330825842272800,7.484272705078125,9.528220176696777,3.218346357345581,1.0528420209884644
1761330825860973800,7.502973876953125,9.477970123291016,3.177668571472168,0.6699903607368469
1761330825879674600,7.521674560546875,8.941978454589844,3.263810157775879,0.4785645306110382
1761330825898375700,7.540375732421875,8.518448829650879,3.6059837341308594,0.3038884699344635
1761330825917076700,7.55907666015625,8.652446746826172,3.85483717918396,0.07657032459974289
1761330825935777500,7.577777587890625,9.329615592956543,3.964907169342041,0.0933200865983963
1761330825954478600,7.596478515625,9.992427825927734,4.187439441680908,0.004785645287483931
1761330825973179400,7.615179443359375,10.827522277832031,4.302295207977295,0.019142581149935722
1761330825991880400,7.63388037109375,11.411371231079102,4.395615100860596,-0.04546362906694412
1761330826010581200,7.652581298828125,11.868400573730469,4.302295207977295,-0.24167509377002716
1761330826029282300,7.6712822265625,12.256037712097168,4.292723655700684,-0.5838487148284912
1761330826047983400,7.6899833984375,11.887542724609375,4.524827480316162,-1.0504491329193115
1761330826066684200,7.70868408203125,11.248659133911133,4.4721856117248535,-1.1485549211502075
1761330826085385200,7.72738525390625,11.21515941619873,3.6610186100006104,-0.3900300860404968
1761330826104086000,7.7460859375,11.779866218566895,2.4981069564819336,0.1818545162677765
1761330826122787000,7.764787109375,12.497713088989258,1.6510475873947144,0.37806597352027893
1761330826141487900,7.78348779296875,12.780065536499023,1.4333007335662842,-0.3900300860404968
1761330826160189000,7.80218896484375,12.064611434936523,1.3639088869094849,-1.1318050622940063
1761330826178889700,7.8208896484375,10.88973617553711,1.3256237506866455,-1.2610175609588623
1761330826197590800,7.8395908203125,10.083354949951172,1.404586911201477,-0.9355936646461487
1761330826216291800,7.858291748046875,9.554540634155273,1.4691931009292603,-0.4977070987224579
1761330826234993000,7.876992919921875,9.056833267211914,1.5912270545959473,-0.3924229145050049
1761330826253693700,7.895693603515625,8.365307807922363,1.7084753513336182,-0.6795616149902344
1761330826272394800,7.914394775390625,7.817351341247559,1.7874385118484497,-0.9355936646461487
1761330826291095600,7.933095458984375,7.731209754943848,1.8735800981521606,-0.9499505758285522
1761330826309796600,7.951796630859375,7.7455668449401855,2.0027925968170166,-0.9882357716560364
1761330826328497700,7.97049755859375,7.554141044616699,2.249253273010254,-0.9595218896865845
1761330826347198500,7.989198486328125,7.058826923370361,2.531606435775757,-1.057627558708191
1761330826365899500,8.0078994140625,6.599404811859131,2.854637384414673,-1.1653046607971191
1761330826384600300,8.026600341796875,6.405586242675781,3.0867412090301514,-1.2538390159606934
1761330826403301400,8.04530126953125,6.434299945831299,3.2446675300598145,-1.1581261157989502
1761330826422002200,8.064002197265625,6.953542709350586,3.3786656856536865,-1.0217353105545044
1761330826440703200,8.082703125,7.3675007820129395,3.4743785858154297,-0.7202396392822266
1761330826459404300,8.101404296875,7.544569969177246,3.6323046684265137,-0.7680960893630981
1761330826478105000,8.12010498046875,7.628318786621094,3.627519130706787,-0.9092726111412048
1761330826496806100,8.13880615234375,7.63310432434082,3.6370904445648193,-1.0097711086273193
1761330826515507000,8.1575068359375,7.654639720916748,3.809373617172241,-1.0815558433532715
1761330826534208000,8.1762080078125,7.903493404388428,3.895515203475952,-0.9571290612220764
1761330826552908800,8.19490869140625,8.434700012207031,3.924229145050049,-0.6340979933738708
1761330826571609900,8.21360986328125,9.353543281555176,4.137190341949463,-0.23688943684101105
1761330826590311000,8.232310791015625,9.980463027954102,4.371686935424805,-0.07417750358581543
1761330826609011700,8.25101171875,10.016355514526367,4.859822750091553,-0.5072783827781677
1761330826627712800,8.269712646484376,10.248459815979004,4.977071285247803,-0.8087740540504456
1761330826646413800,8.288413818359375,11.282158851623535,4.467400074005127,-0.5431707501411438
1761330826665114600,8.307114501953125,12.923635482788086,4.01037073135376,-0.04785645380616188
1761330826683815700,8.325815673828124,14.421542167663574,3.6993038654327393,0.2584248483181
1761330826702516700,8.344516845703126,14.21575927734375,3.759124279022217,0.17228323221206665
1761330826721217500,8.363217529296875,12.914063453674316,3.25663161277771,0.4091726839542389
1761330826739918600,8.381918701171875,11.894721031188965,2.8522446155548096,0.9379864931106567
1761330826758619400,8.400619384765625,11.205588340759277,2.7421748638153076,0.8207381963729858
1761330826777320400,8.419320556640624,10.861021995544434,2.2995026111602783,0.5862415432929993
1761330826796021200,8.438021240234375,10.760523796081543,2.021935224533081,0.605384111404419
1761330826814722300,8.456722412109375,10.908878326416016,1.789831280708313,0.6508477330207825
1761330826833423400,8.47542333984375,11.045269012451172,1.4021940231323242,0.8422735929489136
1761330826852124200,8.494124267578124,10.884950637817383,1.196411371231079,0.882951557636261
1761330826870825200,8.5128251953125,10.083354949951172,1.2586246728897095,0.7441678643226624
1761330826889526000,8.531526123046875,8.874979019165039,1.557727575302124,0.38763725757598877
1761330826908227000,8.55022705078125,8.274380683898926,1.672582983970642,0.13639089465141296
1761330826926928100,8.56892822265625,8.295916557312012,1.730010747909546,0.07417750358581543
1761330826945629000,8.58762890625,8.537590980529785,1.892722725868225,0.03349951654672623
1761330826964330000,8.606330078125,8.50169849395752,1.978864312171936,0.15314064919948578
1761330826983030800,8.62503076171875,8.47298526763916,2.1056840419769287,0.3924229145050049
1761330827001731800,8.64373193359375,8.312665939331055,2.1894326210021973,0.5623133182525635
1761330827020433000,8.662432861328124,7.941778182983398,2.3330020904541016,0.6269195079803467
1761330827039133700,8.6811337890625,7.269395351409912,2.56510591506958,0.638883650302887
1761330827057834800,8.699834716796875,6.838686943054199,2.854637384414673,0.3924229145050049
1761330827076535800,8.718535888671875,6.798008918762207,3.1345977783203125,0.2871387302875519
1761330827095236600,8.737236572265624,7.003791809082031,3.304488182067871,0.34695929288864136
1761330827113937700,8.755937744140626,7.152146816253662,3.483949661254883,0.2967100143432617
1761330827132638700,8.774638671875,7.410571575164795,3.6155550479888916,0.19142581522464752
1761330827151339500,8.793339599609375,8.082955360412598,3.830909013748169,0.32542386651039124
1761330827170040600,8.81204052734375,8.470592498779297,3.9122650623321533,0.5838487148284912
1761330827188741400,8.830741455078124,8.295916557312012,4.000799655914307,0.3517449200153351
1761330827207442400,8.8494423828125,8.551948547363281,4.254438877105713,0.09571290761232376
1761330827226143500,8.8681435546875,9.358329772949219,4.481756687164307,0.16749759018421173
1761330827244844300,8.88684423828125,10.37767219543457,4.565505504608154,0.6364908218383789
1761330827263545300,8.90554541015625,10.954341888427734,4.366901397705078,0.8063812255859375
1761330827282246100,8.92424609375,11.461620330810547,4.273581027984619,0.6317051649093628
1761330827300947200,8.942947265625,11.755937576293945,4.5391845703125,0.07417750358581543
1761330827319648300,8.961648193359375,11.703295707702637,4.6540398597717285,-0.0023928226437419653
1761330827338349000,8.98034912109375,11.452049255371094,4.47697114944458,0.059820566326379776
1761330827357050000,8.999050048828124,11.109875679016113,4.567898273468018,0.21296121180057526
1761330827375751000,9.0177509765625,10.583454132080078,4.199403762817383,1.1413763761520386
1761330827394452000,9.036451904296875,10.559526443481445,3.5844483375549316,1.6271194219589233
1761330827413153000,9.055153076171875,11.095519065856934,2.9048867225646973,1.3710874319076538
1761330827431853800,9.073853759765624,11.693724632263184,2.462214469909668,0.4953143000602722
1761330827450555000,9.092554931640626,11.944971084594727,1.9860427379608154,-0.13878370821475983
1761330827469256000,9.111255859375,11.796615600585938,1.6630117893218994,-0.3684946894645691
1761330827487956700,9.129956787109375,11.22233772277832,1.5936198234558105,-0.26560330390930176
1761330827506657800,9.14865771484375,10.339386940002441,1.7132610082626343,0.11724831163883209
1761330827525358600,9.167358642578124,9.339186668395996,1.9046868085861206,0.07417750358581543
1761330827544059600,9.1860595703125,8.46341323852539,2.0721843242645264,-0.30628129839897156
1761330827562760700,9.2047607421875,7.8628153800964355,2.2707886695861816,-0.7345965504646301
1761330827581461500,9.22346142578125,7.592426300048828,2.3306093215942383,-1.0001999139785767
1761330827600162600,9.24216259765625,7.463213920593262,2.3090739250183105,-0.9882357716560364
1761330827618863600,9.260863525390626,7.283751964569092,2.5052852630615234,-0.8805587291717529
1761330827637564400,9.279564453125,7.0995049476623535,2.8187451362609863,-0.8327022790908813
1761330827656265500,9.298265380859375,7.106683254241943,3.115455150604248,-0.7776673436164856
1761330827674966500,9.316966552734375,7.032505512237549,3.373879909515381,-0.8255237936973572
1761330827693667300,9.335667236328124,6.795616149902344,3.596412420272827,-0.9523434042930603
1761330827712368400,9.354368408203126,6.757331371307373,3.7256247997283936,-0.760917603969574
1761330827731069400,9.3730693359375,6.728617191314697,3.737588882446289,-0.36610186100006104
1761330827749770200,9.391770263671875,6.714260101318359,3.9050865173339844,-0.3326023519039154
1761330827768471300,9.41047119140625,7.094718933105469,3.9194436073303223,-0.5120640397071838
1761330827787172000,9.429172119140626,7.590033531188965,3.7567315101623535,-0.47617170214653015
1761330827805873200,9.447873046875,8.147561073303223,3.6993038654327393,-0.49292147159576416
1761330827824574200,9.46657421875,8.700303077697754,3.9218363761901855,-0.41874396800994873
1761330827843275000,9.48527490234375,8.714659690856934,4.302295207977295,-0.18903298676013947
1761330827861976000,9.50397607421875,8.492127418518066,4.644468784332275,0.035892341285943985
1761330827880676900,9.5226767578125,8.568697929382324,5.041677474975586,0.35413774847984314
1761330827899378000,9.5413779296875,8.786444664001465,5.266602516174316,0.5096712112426758
1761330827918079000,9.560078857421875,9.166903495788574,5.493920803070068,0.5575276613235474
1761330827936779800,9.57877978515625,9.9469633102417,5.498706340789795,0.6340979933738708
1761330827955480800,9.597480712890626,10.894521713256836,5.20678186416626,1.0528420209884644
1761330827974181600,9.616181640625,12.035898208618164,5.051248550415039,1.3399807214736938
1761330827992882700,9.634882568359375,12.79442310333252,4.878965377807617,1.6151553392410278
1761330828011583700,9.653583740234374,12.693923950195312,4.409972190856934,1.9836499691009521
1761330828030284500,9.672284423828126,11.990434646606445,4.0797624588012695,2.1200408935546875
1761330828048985600,9.690985595703125,11.382657051086426,3.737588882446289,1.7802600860595703
1761330828067686700,9.709686767578125,11.631510734558105,3.25663161277771,1.2131611108779907
1761330828086387500,9.728387451171875,12.184252738952637,2.5770699977874756,1.007378339767456
1761330828105088500,9.747088623046874,12.612567901611328,1.97407865524292,1.2131611108779907
1761330828123789300,9.765789306640626,12.681960105895996,1.5290136337280273,1.7180466651916504
1761330828142490400,9.784490478515625,12.067004203796387,1.2538390159606934,2.1990039348602295
1761330828161191400,9.80319140625,10.925628662109375,1.2203395366668701,2.2133610248565674
1761330828179892200,9.821892333984374,9.604789733886719,1.3615161180496216,1.9836499691009521
1761330828198593300,9.84059326171875,8.57348346710205,1.6366907358169556,1.576870083808899
1761330828217294300,9.85929443359375,8.0350980758667,1.8496519327163696,1.0671988725662231
1761330828235995100,9.8779951171875,7.755138397216797,1.8855443000793457,0.7657032608985901
1761330828254696200,9.8966962890625,7.611568927764893,2.014756679534912,0.7154539823532104
1761330828273397200,9.915397216796874,7.494320392608643,2.297109842300415,0.7585247755050659
1761330828292098000,9.93409814453125,7.267002582550049,2.5770699977874756,0.7537391185760498
1761330828310799000,9.952799072265625,7.247859954833984,2.861815929412842,0.7178468108177185
1761330828329500200,9.971500244140625,7.142575740814209,3.091526746749878,0.7417750358581543
1761330828348201000,9.990200927734374,6.876972198486328,3.3092737197875977,0.6508477330207825
1761330828366902000,10.008902099609376,6.690331935882568,3.4097721576690674,0.5838487148284912
1761330828385602800,10.027602783203125,6.893722057342529,3.531806230545044,0.8709874153137207
1761330828404304000,10.046303955078125,7.267002582550049,3.5820555686950684,1.0504491329193115
1761330828423005000,10.0650048828125,7.542177200317383,3.6921253204345703,0.8685946464538574
1761330828441705700,10.083705810546874,7.654639720916748,3.8213376998901367,0.7920243144035339
1761330828460406800,10.10240673828125,7.733603000640869,3.9768712520599365,0.9020941257476807
1761330828479107800,10.12110791015625,7.860422611236572,4.163511276245117,0.97148597240448
1761330828497808600,10.13980859375,8.111668586730957,4.450650215148926,0.8973084688186646
1761330828516509700,10.158509765625,8.252845764160156,4.632504463195801,0.7513462901115417
1761330828535210500,10.17721044921875,8.188239097595215,4.807180881500244,0.4833501875400543
1761330828553911600,10.19591162109375,8.197810173034668,5.1565327644348145,0.2512463629245758
1761330828572612600,10.214612548828125,8.46580696105957,5.400600910186768,0.22971096634864807
1761330828591313400,10.2333134765625,8.851051330566406,5.505885124206543,0.12921242415905
1761330828610014500,10.252014404296874,9.765109062194824,5.515456199645996,-0.11246266216039658
1761330828628715300,10.27071533203125,10.64088249206543,5.26899528503418,-0.038285162299871445
1761330828647416300,10.289416259765625,11.2247314453125,5.13739013671875,-0.040677983313798904
1761330828666117400,10.308117431640625,11.576476097106934,5.312066078186035,-0.22492532432079315
1761330828684818200,10.326818115234374,11.404192924499512,5.697310924530029,-0.638883650302887
1761330828703519200,10.345519287109376,10.884950637817383,5.280959606170654,-0.7369893789291382
1761330828722220300,10.36422021484375,11.133803367614746,4.436293125152588,-0.11246266216039658
1761330828740921000,10.382921142578125,12.064611434936523,3.4241292476654053,0.9403793215751648
1761330828759622100,10.4016220703125,13.062418937683105,2.4574289321899414,1.5553346872329712
1761330828778323200,10.4203232421875,13.371092796325684,1.7826528549194336,1.3567304611206055
1761330828797024000,10.43902392578125,12.576675415039062,1.672582983970642,0.4833501875400543
1761330828815725000,10.45772509765625,11.23190975189209,1.8999011516571045,0.275174617767334
1761330828834426000,10.476426025390625,10.00439167022705,2.1032910346984863,0.5886343717575073
1761330828853127000,10.495126953125,8.975478172302246,1.9836499691009521,0.7202396392822266
1761330828871828000,10.513827880859376,8.444271087646484,1.950150489807129,0.24885354936122894
1761330828890528800,10.53252880859375,8.161917686462402,1.9669002294540405,-0.4378865361213684
1761330828909229800,10.551229736328125,8.073383331298828,2.1367905139923096,-0.7824530005455017
1761330828927931000,10.569930908203125,8.078168869018555,2.3641088008880615,-0.6604190468788147
1761330828946631700,10.588631591796876,8.090133666992188,2.557927370071411,-0.17946170270442963
1761330828965332700,10.607332763671875,8.051848411560059,2.840280532836914,0.18903298676013947
1761330828984033500,10.626033447265625,7.599604606628418,3.0412776470184326,0.1986042857170105
1761330829002734600,10.644734619140625,7.140182971954346,3.2590243816375732,0.01196411345154047
1761330829021435600,10.663435546875,6.821937561035156,3.507878065109253,-0.27038896083831787
1761330829040136400,10.682136474609376,6.632904529571533,3.696911096572876,-0.5838487148284912
1761330829058837500,10.70083740234375,6.687939167022705,3.672982692718506,-0.729810893535614
1761330829077538600,10.71953857421875,6.874579429626465,3.5748770236968994,-0.5072783827781677
1761330829096239400,10.7382392578125,7.465606689453125,3.6299118995666504,-0.37806597352027893
1761330829114940400,10.7569404296875,8.102097511291504,3.5270206928253174,-0.35892340540885925
1761330829133641200,10.77564111328125,8.898907661437988,3.3690943717956543,-0.5312066078186035
1761330829152342300,10.79434228515625,7.829315662384033,4.41475772857666,-1.581655740737915
1761330829171043300,10.813043212890625,7.664210796356201,4.01037073135376,-0.8949156403541565
1761330829189744000,10.831744140625,8.331808090209961,3.9194436073303223,-0.1986042857170105
