time,seconds_elapsed,z,y,x
1761330818426278400,0.0682783203125,-0.053145237267017365,-0.21258094906806946,-0.020158538594841957
1761330818444979200,0.086979248046875,-0.08857539296150208,0.006719512399286032,-0.015271619893610477
1761330818463680000,0.105679931640625,-0.09957095980644226,0.10567960888147354,-0.09712749719619751
1761330818482381000,0.124381103515625,-0.053756099194288254,0.07513637095689774,-0.15027274191379547
1761330818501081900,0.143081787109375,0,-0.06414080411195755,-0.14782927930355072
1761330818519782700,0.16178271484375,0.0824667438864708,-0.24434591829776764,-0.1905898153781891
1761330818538483500,0.1804833984375,0.18692462146282196,-0.1484401375055313,-0.25473061203956604
1761330818557184300,0.199184326171875,0.3035998046398163,0.1795942485332489,-0.17531819641590118
1761330818575885300,0.21788525390625,0.3347539007663727,0.14538581669330597,-0.10567960888147354
1761330818594586000,0.236586181640625,0.3078758418560028,-0.06108647957444191,-0.10140355676412582
1761330818613287000,0.255286865234375,0.2510654330253601,-0.2003636509180069,-0.10140355676412582
1761330818631987700,0.27398779296875,0.1844811588525772,-0.22357651591300964,-0.05742128938436508
1761330818650688500,0.2926884765625,0.18325942754745483,-0.017104214057326317,0.03848448023200035
1761330818669389600,0.3113896484375,0.2364046722650528,0.1288924664258957,0.1130099818110466
1761330818688090400,0.33009033203125,0.33597561717033386,0.009773836471140385,0.11423171311616898
1761330818706791200,0.348791259765625,0.40744680166244507,-0.06047561392188072,0.13194678723812103
1761330818725492000,0.367491943359375,0.37690356373786926,0.015271619893610477,0.17898337543010712
1761330818744192800,0.38619287109375,0.31154105067253113,0.07452550530433655,0.17287473380565643
1761330818762893600,0.4048935546875,0.235793799161911,0.03481929376721382,0.1185077652335167
1761330818781594400,0.423594482421875,0.1997527778148651,0.0030543238390237093,0.05070177838206291
1761330818800295400,0.44229541015625,0.2528980076313019,-0.012217295356094837,-0.003665188793092966
1761330818818996200,0.460996337890625,0.33169957995414734,0.06902772188186646,0.006108647678047419
1761330818837697000,0.479697021484375,0.3707949221134186,0.21197007596492767,0.07269290834665298
1761330818856397800,0.498397705078125,0.3836230933666229,0.21502439677715302,0.11545344442129135
1761330818875099000,0.517098876953125,0.36774060130119324,0.029932374134659767,0.11056652665138245
1761330818893799700,0.535799560546875,0.32131487131118774,-0.08368847519159317,0.08857539296150208
1761330818912500500,0.55450048828125,0.2889390289783478,-0.10201441496610641,0.014660755172371864
1761330818931201300,0.573201171875,0.3035998046398163,-0.13744457066059113,-0.12156209349632263
1761330818949902000,0.591902099609375,0.29504770040512085,-0.09590577334165573,-0.24251331388950348
1761330818968603100,0.61060302734375,0.2779434621334076,0.007941242307424545,-0.3035998046398163
1761330818987304000,0.629303955078125,0.2883281707763672,0.05253437161445618,-0.30543237924575806
1761330819006004700,0.648004638671875,0.32620179653167725,0.04825831577181816,-0.23396120965480804
1761330819024705500,0.66670556640625,0.3652971386909485,0.006108647678047419,-0.11667517572641373
1761330819043406300,0.68540625,0.3695732057094574,-0.08002328872680664,0.011606430634856224
1761330819062107100,0.704107177734375,0.3280344009399414,-0.08368847519159317,0.13011419773101807
1761330819080808000,0.722807861328125,0.2712239623069763,-0.08368847519159317,0.17898337543010712
1761330819099509000,0.741509033203125,0.20830489695072174,-0.08918625861406326,0.14294235408306122
1761330819118209800,0.760209716796875,0.143553227186203,-0.02260199747979641,0.06475166976451874
1761330819136910600,0.77891064453125,0.09712749719619751,-0.007330377586185932,-0.09712749719619751
1761330819155611400,0.797611328125,0.07330377399921417,-0.053145237267017365,-0.2877173125743866
1761330819174312200,0.816312255859375,0.04581485688686371,-0.007941242307424545,-0.40866854786872864
1761330819193013200,0.83501318359375,0.06475166976451874,0.2730565667152405,-0.31581708788871765
1761330819211714000,0.853714111328125,0.06047561392188072,0.2932150959968567,-0.07513637095689774
1761330819230414800,0.872414794921875,-0.011606430634856224,-0.3488037884235382,0.017104214057326317
1761330819249115600,0.89111572265625,-0.12278381735086441,-0.7544180154800415,0.053756099194288254
1761330819267816400,0.90981640625,-0.235793799161911,-0.6120865345001221,0.09651663154363632
1761330819286517500,0.928517578125,-0.28588470816612244,-0.2107483446598053,0.20158538222312927
1761330819305218300,0.94721826171875,-0.3292561173439026,0.053756099194288254,0.2767217457294464
1761330819323919000,0.965919189453125,-0.3689623177051544,-0.046425722539424896,0.19364413619041443
1761330819342620000,0.984619873046875,-0.3738492429256439,-0.3084867000579834,0.029932374134659767
1761330819361321000,1.003321044921875,-0.34636032581329346,-0.25411975383758545,-0.03298669680953026
1761330819380021800,1.022021728515625,-0.3585776388645172,0.027488915249705315,-0.0054977829568088055
1761330819398722600,1.04072265625,-0.43860089778900146,0.2510654330253601,0.000610864779446274
1761330819417423400,1.05942333984375,-0.5412262082099915,0.26939135789871216,-0.07330377399921417
1761330819436124200,1.078124267578125,-0.6065887212753296,0.19181154668331146,-0.16187916696071625
1761330819454825200,1.0968251953125,-0.6029235124588013,0.10201441496610641,-0.21258094906806946
1761330819473526000,1.115526123046875,-0.554665207862854,0.040317077189683914,-0.20769402384757996
1761330819492226800,1.134226806640625,-0.4868592321872711,0.03237583488225937,-0.14660754799842834
1761330819510927600,1.152927734375,-0.40927940607070923,0.036651886999607086,-0.06047561392188072
1761330819529628700,1.171628662109375,-0.3738492429256439,-0.047036588191986084,-0.020769402384757996
1761330819548329500,1.19032958984375,-0.35735589265823364,-0.10995566099882126,-0.031154103577136993
1761330819567030300,1.2090302734375,-0.34147340059280396,-0.1997527778148651,-0.11667517572641373
1761330819585731000,1.22773095703125,-0.33047783374786377,-0.25900667905807495,-0.21135921776294708
1761330819604432000,1.246431884765625,-0.33658650517463684,-0.20280711352825165,-0.30482152104377747
1761330819623133000,1.2651328125,-0.2883281707763672,-0.11362084746360779,-0.3536907136440277
1761330819641833700,1.283833740234375,-0.21380266547203064,-0.012217295356094837,-0.32009315490722656
1761330819660534500,1.302534423828125,-0.13072505593299866,0.0409279391169548,-0.24495677649974823
1761330819679235300,1.3212353515625,-0.0720820426940918,0.026878049597144127,-0.16859868168830872
1761330819697936400,1.339936279296875,-0.06780599057674408,0,-0.06475166976451874
1761330819716637200,1.35863720703125,-0.1795942485332489,0.11117739230394363,0.06108647957444191
1761330819735338000,1.377337890625,-0.34086254239082336,0.13439024984836578,0.12705987691879272
1761330819754038800,1.396038818359375,-0.40317076444625854,-0.023212861269712448,0.10384701192378998
1761330819772739600,1.414739501953125,-0.32681265473365784,-0.26389357447624207,0.05192350596189499
1761330819791440600,1.433440673828125,-0.14599667489528656,-0.3610210716724396,0.020769402384757996
1761330819810141400,1.452141357421875,0.020769402384757996,-0.12278381735086441,-0.03787361457943916
1761330819828842200,1.47084228515625,0.16126830875873566,0.3652971386909485,-0.012217295356094837
1761330819847543000,1.48954296875,0.1747073233127594,0.40866854786872864,0.004886918235570192
1761330819866243800,1.508243896484375,0.07452550530433655,0.09346231073141098,-0.024434590712189674
1761330819884945000,1.52694482421875,-0.09651663154363632,0.007330377586185932,0
1761330819903645700,1.545645751953125,-0.2009745091199875,0.11117739230394363,0.09040798991918564
1761330819922346500,1.564346435546875,-0.22174391150474548,0.04581485688686371,0.14477495849132538
1761330819941047300,1.58304736328125,-0.13500112295150757,-0.23335035145282745,0.07269290834665298
1761330819959748400,1.601748291015625,0.023212861269712448,-0.40805765986442566,-0.018325943499803543
1761330819978449200,1.62044921875,0.18875721096992493,-0.2620609998703003,-0.021991131827235222
1761330819997150000,1.63914990234375,0.30604326725006104,0.05925388261675835,0.05925388261675835
1761330820015850800,1.657850830078125,0.33658650517463684,0.18570289015769958,0.09712749719619751
1761330820034551600,1.676551513671875,0.30482152104377747,0.09957095980644226,0.06047561392188072
1761330820053252600,1.695252685546875,0.23823726177215576,0.02626718580722809,0.02871064469218254
1761330820071953400,1.713953369140625,0.21258094906806946,0.07024945318698883,0.04459312930703163
1761330820090654200,1.732654296875,0.24740023910999298,0.1637117564678192,0.09651663154363632
1761330820109355000,1.75135498046875,0.26389357447624207,0.12034036219120026,0.12522727251052856
1761330820128056000,1.77005615234375,0.24923282861709595,-0.05558869615197182,0.1288924664258957
1761330820146756900,1.7887568359375,0.1954767256975174,-0.24862197041511536,0.10506874322891235
1761330820165457700,1.807457763671875,0.10873392969369888,-0.2419024556875229,0.08002328872680664
1761330820184158500,1.826158447265625,0.0665842592716217,-0.18753549456596375,0.010995565913617611
1761330820202859500,1.844859619140625,0.0769689604640007,-0.13927717506885529,-0.07757982611656189
1761330820221560300,1.863560302734375,0.08918625861406326,-0.039706211537122726,-0.1185077652335167
1761330820240261000,1.88226123046875,0.10873392969369888,0.04153880476951599,-0.11911863088607788
1761330820258962000,1.9009619140625,0.15638138353824615,0.10445787757635117,-0.04886918142437935
1761330820277663000,1.9196630859375,0.18570289015769958,0.14477495849132538,0.0873536616563797
1761330820296363800,1.93836376953125,0.17531819641590118,0.05192350596189499,0.1899789422750473
1761330820315064600,1.957064697265625,0.1380554437637329,-0.08491020649671555,0.23273947834968567
1761330820333765400,1.975765380859375,0.07757982611656189,-0.1802051067352295,0.21319180727005005
1761330820352466400,1.994466552734375,0.039706211537122726,-0.27855435013771057,0.11423171311616898
1761330820371167200,2.013167236328125,0.04459312930703163,-0.41355544328689575,-0.049480047076940536
1761330820389868000,2.031867919921875,0.06780599057674408,-0.4990765154361725,-0.26878049969673157
1761330820408569000,2.050569091796875,0.13011419773101807,-0.29565855860710144,-0.38850998878479004
1761330820427270000,2.069269775390625,0.17531819641590118,0.19303326308727264,-0.2205221801996231
1761330820445970700,2.087970703125,0.1282816082239151,0.11972949653863907,-0.10018182545900345
1761330820464671500,2.10667138671875,0.02932151034474373,-0.2919933497905731,-0.17776164412498474
1761330820483372300,2.125372314453125,-0.06414080411195755,-0.4318813979625702,-0.2938259541988373
1761330820502073300,2.1440732421875,-0.10995566099882126,-0.17287473380565643,-0.27427828311920166
1761330820520774100,2.162774169921875,-0.17226386070251465,0.15149445831775665,-0.16859868168830872
1761330820539475000,2.181474853515625,-0.2315177470445633,0.15638138353824615,-0.11423171311616898
1761330820558175700,2.20017578125,-0.2364046722650528,-0.003665188793092966,-0.07024945318698883
1761330820576876800,2.218876708984375,-0.20769402384757996,-0.04886918142437935,0.02932151034474373
1761330820595577600,2.23757763671875,-0.1893680840730667,0.06108647957444191,0.16126830875873566
1761330820614278400,2.2562783203125,-0.22418737411499023,0.20463970303535461,0.25350889563560486
1761330820632979200,2.274979248046875,-0.318871408700943,0.31093016266822815,0.2987128794193268
1761330820651680000,2.293679931640625,-0.3805687427520752,0.2718348205089569,0.2974911332130432
1761330820670381000,2.312381103515625,-0.39400777220726013,0.22357651591300964,0.22174391150474548
1761330820689081900,2.331081787109375,-0.401949018239975,0.26878049969673157,0.11423171311616898
1761330820707783000,2.349782958984375,-0.3854556679725647,0.35735589265823364,0.03298669680953026
1761330820726483700,2.368483642578125,-0.3433060050010681,0.29504770040512085,-0.008552107028663158
1761330820745184500,2.3871845703125,-0.3500255048274994,0.17287473380565643,-0.03481929376721382
1761330820763885300,2.40588525390625,-0.3689623177051544,0.007941242307424545,-0.023823726922273636
1761330820782586400,2.42458642578125,-0.4056142270565033,-0.1130099818110466,-0.023212861269712448
1761330820801287200,2.443287109375,-0.42882707715034485,-0.08918625861406326,-0.06352993845939636
1761330820819988000,2.461988037109375,-0.4202749729156494,-0.03543015569448471,-0.12950333952903748
1761330820838688800,2.480688720703125,-0.38240134716033936,-0.007941242307424545,-0.19669845700263977
1761330820857389600,2.4993896484375,-0.2938259541988373,-0.018325943499803543,-0.258395791053772
1761330820876090600,2.518090576171875,-0.18570289015769958,-0.0030543238390237093,-0.2528980076313019
1761330820894791400,2.53679150390625,-0.11117739230394363,0.0360410213470459,-0.1594357043504715
1761330820913492500,2.555492431640625,-0.08552107214927673,0.19792018830776215,-0.043982263654470444
1761330820932193300,2.574193359375,-0.1380554437637329,0.41416633129119873,0.10934479534626007
1761330820950894000,2.59289404296875,-0.2052505612373352,0.4520399272441864,0.2571740746498108
1761330820969595000,2.611594970703125,-0.19181154668331146,0.20219624042510986,0.26939135789871216
1761330820988296000,2.6302958984375,-0.04520399495959282,-0.258395791053772,0.05436696484684944
1761330821006996700,2.648996826171875,0.1740964651107788,-0.4825831651687622,-0.23273947834968567
1761330821025697500,2.667697509765625,0.4043924808502197,-0.14233149588108063,-0.3555232882499695
1761330821044398300,2.6863984375,0.5467239618301392,0.4007273018360138,-0.34147340059280396
1761330821063099400,2.705099365234375,0.5271763205528259,0.6914989352226257,-0.2052505612373352
1761330821081800200,2.72380029296875,0.30482152104377747,0.6872228980064392,-0.06963858753442764
1761330821100501000,2.7425009765625,0.040317077189683914,0.2577849328517914,0.02932151034474373
1761330821119202000,2.7612021484375,-0.1441640853881836,-0.10506874322891235,0.1740964651107788
1761330821137902800,2.77990283203125,-0.19303326308727264,-0.389120876789093,0.235793799161911
1761330821156603600,2.798603759765625,-0.10140355676412582,-0.5589412450790405,0.14110976457595825
1761330821175304700,2.8173046875,0.03909534588456154,-0.544891357421875,-0.017104214057326317
1761330821194005500,2.836005615234375,0.12217295914888382,-0.3133736252784729,-0.1185077652335167
1761330821212706300,2.854706298828125,0.12217295914888382,-0.06841685622930527,-0.13927717506885529
1761330821231407000,2.873406982421875,0.06352993845939636,0.14172062277793884,-0.12034036219120026
1761330821250108000,2.89210791015625,0,0.1795942485332489,-0.08307760953903198
1761330821268809000,2.91080908203125,-0.006108647678047419,0.08002328872680664,-0.012217295356094837
1761330821287509800,2.929509765625,0.0360410213470459,-0.053756099194288254,0.10873392969369888
1761330821306210800,2.9482109375,0.08796452730894089,-0.1441640853881836,0.28588470816612244
1761330821324911600,2.96691162109375,0.10934479534626007,-0.19792018830776215,0.43860089778900146
1761330821343612400,2.9856123046875,0.1081230640411377,-0.3451386094093323,0.4105011224746704
1761330821362313200,3.004313232421875,0.08063415437936783,-0.5387827157974243,0.2406807243824005
1761330821381014300,3.02301416015625,0.017715077847242355,-0.7073814272880554,0.04459312930703163
1761330821399715000,3.041715087890625,-0.039706211537122726,-0.7324268817901611,-0.13683371245861053
1761330821418415900,3.060415771484375,-0.06963858753442764,-0.4886918365955353,-0.2779434621334076
1761330821437117000,3.079116943359375,-0.08429934084415436,-0.21441353857517242,-0.3848448097705841
1761330821455817700,3.097817626953125,-0.07635809481143951,-0.14294235408306122,-0.42882707715034485
1761330821474518500,3.1165185546875,-0.046425722539424896,-0.14660754799842834,-0.360410213470459
1761330821493219600,3.135219482421875,0.003665188793092966,-0.1490510106086731,-0.18570289015769958
1761330821511920400,3.15392041015625,0.07452550530433655,-0.12583814561367035,0.07269290834665298
1761330821530621200,3.17262109375,0.13500112295150757,-0.21441353857517242,0.2828303873538971
1761330821549322000,3.191322021484375,0.20280711352825165,-0.33536475896835327,0.3488037884235382
1761330821568023000,3.21002294921875,0.21868959069252014,-0.3909534513950348,0.31031930446624756
1761330821586723800,3.228723876953125,0.2626718580722809,-0.30115634202957153,0.18814635276794434
1761330821605425000,3.2474248046875,0.3243691921234131,-0.09834922850131989,0.0054977829568088055
1761330821624125700,3.266125732421875,0.29443681240081787,0.06719512492418289,-0.16554436087608337
1761330821642826500,3.284826416015625,0.19120067358016968,0.10506874322891235,-0.23823726177215576
1761330821661527300,3.30352734375,0.09285144507884979,-0.40255987644195557,-0.3439168632030487
1761330821680228400,3.322228271484375,0.017104214057326317,-0.9505056142807007,-0.4422661066055298
1761330821698929200,3.34092919921875,-0.037262752652168274,-1.0323615074157715,-0.4324922561645508
1761330821717630000,3.3596298828125,-0.08918625861406326,-0.47097674012184143,-0.17653992772102356
1761330821736331000,3.3783310546875,-0.13988803327083588,0.21502439677715302,0.2162461280822754
1761330821755031800,3.39703173828125,-0.18875721096992493,0.35674503445625305,0.42088583111763
1761330821773732600,3.415732666015625,-0.22174391150474548,0.08063415437936783,0.37323838472366333
1761330821792433700,3.43443359375,-0.26939135789871216,-0.12156209349632263,0.25534147024154663
1761330821811134500,3.453134521484375,-0.2932150959968567,0.03543015569448471,0.19792018830776215
1761330821829835300,3.471835205078125,-0.33108872175216675,0.3249800503253937,0.13927717506885529
1761330821848536300,3.490536376953125,-0.37690356373786926,0.4917461574077606,0.01893680728971958
1761330821867237000,3.509237060546875,-0.4251618981361389,0.45875945687294006,-0.13988803327083588
1761330821885938000,3.52793798828125,-0.47586366534233093,0.347582072019577,-0.27855435013771057
1761330821904639000,3.546638916015625,-0.4874700903892517,0.2706131041049957,-0.3946186602115631
1761330821923339800,3.56533984375,-0.4508182108402252,0.25961753726005554,-0.44470956921577454
1761330821942040600,3.58404052734375,-0.3634645342826843,0.2412915825843811,-0.38240134716033936
1761330821960741600,3.60274169921875,-0.2724456787109375,0.19181154668331146,-0.2260199636220932
1761330821979442400,3.6214423828125,-0.18264856934547424,0.056199558079242706,-0.0873536616563797
1761330821998143200,3.640143310546875,-0.1130099818110466,-0.06475166976451874,0.004276053514331579
1761330822016844300,3.65884423828125,-0.08307760953903198,-0.1386663019657135,0.05253437161445618
1761330822035545000,3.677545166015625,-0.0922405794262886,-0.10384701192378998,0.053756099194288254
1761330822054246000,3.696245849609375,-0.07024945318698883,-0.017715077847242355,0.006719512399286032
1761330822072947000,3.714947021484375,0.01893680728971958,0.09651663154363632,-0.043371398001909256
1761330822091647700,3.733647705078125,0.11728604137897491,0.164322629570961,-0.05803215503692627
1761330822110348500,3.7523486328125,0.18692462146282196,0.18142683804035187,-0.0030543238390237093
1761330822129049600,3.771049560546875,0.21930044889450073,0.205861434340477,0.08674279600381851
1761330822147750400,3.78975048828125,0.18142683804035187,0.2626718580722809,0.1740964651107788
1761330822166451200,3.808451171875,0.10751219838857651,0.2626718580722809,0.2461785078048706
1761330822185152300,3.82715234375,0.06291907280683517,0.09040798991918564,0.2669478952884674
1761330822203853000,3.84585302734375,0.08857539296150208,-0.23518294095993042,0.1484401375055313
1761330822222553900,3.864553955078125,0.22479823231697083,-0.5253437161445618,-0.0873536616563797
1761330822241255000,3.8832548828125,0.4728093445301056,-0.3488037884235382,-0.25411975383758545
1761330822259955700,3.901955810546875,0.7348703145980835,0.4312705397605896,-0.12217295914888382
1761330822278656800,3.92065673828125,0.8808670043945312,0.7055488228797913,0.08307760953903198
1761330822297357600,3.939357666015625,0.880256175994873,0.5583304166793823,0.14721840620040894
1761330822316058400,3.958058349609375,0.6805033683776855,0.12950333952903748,0.09712749719619751
1761330822334759200,3.97675927734375,0.41294458508491516,-0.20830489695072174,0.07269290834665298
1761330822353460200,3.995460205078125,0.235793799161911,-0.3958403766155243,0.040317077189683914
1761330822372161000,4.0141611328125,0.21380266547203064,-0.4422661066055298,-0.017104214057326317
1761330822390862000,4.032862060546875,0.33536475896835327,-0.27977606654167175,-0.05192350596189499
1761330822409563000,4.05156298828125,0.472198486328125,0.06047561392188072,0.0030543238390237093
1761330822428263700,4.070263671875,0.49541133642196655,0.3023780584335327,0.08002328872680664
1761330822446964700,4.08896484375,0.4324922561645508,0.37751442193984985,0.1380554437637329
1761330822465665500,4.10766552734375,0.2864955961704254,0.2632827162742615,0.14721840620040894
1761330822484366600,4.12636669921875,0.14233149588108063,0.10201441496610641,0.10018182545900345
1761330822503067400,4.1450673828125,0.056810423731803894,0.04825831577181816,0.056199558079242706
1761330822521768200,4.163768310546875,0.04214967042207718,0.0818558782339096,0.08491020649671555
1761330822540469200,4.18246923828125,0.08368847519159317,0.040317077189683914,0.14110976457595825
1761330822559170000,4.201170166015625,0.12644900381565094,-0.0977383628487587,0.1905898153781891
1761330822577870800,4.219870849609375,0.11362084746360779,-0.2779434621334076,0.18753549456596375
1761330822596572000,4.238572021484375,0.0769689604640007,-0.3500255048274994,0.10018182545900345
1761330822615272700,4.257272705078125,0.04459312930703163,-0.2981020212173462,-0.046425722539424896
1761330822633973800,4.275973876953125,0.008552107028663158,-0.1954767256975174,-0.19608759880065918
1761330822652674600,4.294674560546875,-0.003665188793092966,-0.1380554437637329,-0.3280344009399414
1761330822671375400,4.313375244140625,0.03481929376721382,-0.11911863088607788,-0.43004879355430603
1761330822690076200,4.332076171875,0.10018182545900345,-0.1026252806186676,-0.43371400237083435
1761330822708777200,4.350777099609375,0.15149445831775665,-0.06230820715427399,-0.2889390289783478
1761330822727478000,4.36947802734375,0.15760311484336853,-0.04886918142437935,-0.053756099194288254
1761330822746179000,4.388178955078125,0.11117739230394363,-0.07024945318698883,0.17592905461788177
1761330822764880000,4.4068798828125,0.020158538594841957,-0.07757982611656189,0.30604326725006104
1761330822783581000,4.425580810546875,-0.10567960888147354,-0.08002328872680664,0.24923282861709595
1761330822802281700,4.44428173828125,-0.20708316564559937,-0.07819069176912308,0.021991131827235222
1761330822820982500,4.462982421875,-0.24312418699264526,-0.02260199747979641,-0.2565632164478302
1761330822839683600,4.48168359375,-0.18631376326084137,-0.009773836471140385,-0.40317076444625854
1761330822858384400,4.50038427734375,-0.06597339361906052,0.1441640853881836,-0.18814635276794434
1761330822877085400,4.51908544921875,-0.12034036219120026,0.14110976457595825,0.10690133273601532
1761330822895786200,4.5377861328125,-0.17653992772102356,-0.35674503445625305,-0.07024945318698883
1761330822914487000,4.556487060546875,-0.12278381735086441,-0.6603448390960693,-0.48441576957702637
1761330822933188000,4.57518798828125,-0.031154103577136993,-0.6267472505569458,-0.7000510096549988
1761330822951889000,4.593888916015625,-0.037262752652168274,-0.31154105067253113,-0.4459312856197357
1761330822970589700,4.612589599609375,-0.17226386070251465,0.031154103577136993,0.07941242307424545
1761330822989290800,4.631290771484375,-0.2052505612373352,-0.037262752652168274,0.37140578031539917
1761330823007991600,4.649991455078125,-0.14172062277793884,-0.2107483446598053,0.35063639283180237
1761330823026692600,4.668692626953125,-0.04153880476951599,-0.15760311484336853,0.2528980076313019
1761330823045393400,4.687393310546875,-0.001832594396546483,0.09529490768909454,0.1740964651107788
1761330823064094200,4.70609423828125,-0.03481929376721382,0.347582072019577,0.043371398001909256
1761330823082795300,4.724795166015625,-0.12950333952903748,0.5271763205528259,-0.09468404203653336
1761330823101496000,4.74349609375,-0.21807873249053955,0.6249146461486816,-0.11423171311616898
1761330823120196900,4.76219677734375,-0.23396120965480804,0.6389645338058472,-0.026878049597144127
1761330823138898000,4.78089794921875,-0.18692462146282196,0.5424479246139526,0.08796452730894089
1761330823157599000,4.799598876953125,-0.0977383628487587,0.36163195967674255,0.15027274191379547
1761330823176299800,4.8182998046875,0.000610864779446274,0.12705987691879272,0.10384701192378998
1761330823195000600,4.83700048828125,0.07757982611656189,-0.03543015569448471,-0.05497783049941063
1761330823213701600,4.85570166015625,0.13011419773101807,-0.11545344442129135,-0.2816086709499359
1761330823232402400,4.87440234375,0.15515965223312378,-0.1282816082239151,-0.4667007029056549
1761330823251103200,4.893103271484375,0.15760311484336853,-0.04520399495959282,-0.5204567909240723
1761330823269804300,4.91180419921875,0.17043127119541168,0.08796452730894089,-0.4312705397605896
1761330823288505300,4.93050537109375,0.19669845700263977,0.1747073233127594,-0.2864955961704254
1761330823307206100,4.9492060546875,0.25900667905807495,0.17592905461788177,-0.1490510106086731
1761330823325907000,4.967906982421875,0.29138249158859253,0.25534147024154663,-0.000610864779446274
1761330823344608000,4.98660791015625,0.2974911332130432,0.36285367608070374,0.11056652665138245
1761330823363308800,5.005308837890625,0.27550002932548523,0.49968740344047546,0.1899789422750473
1761330823382009600,5.024009521484375,0.18753549456596375,0.5479456782341003,0.22235478460788727
1761330823400710700,5.042710693359375,0.08979712426662445,0.42821621894836426,0.24434591829776764
1761330823419411500,5.061411376953125,0.07269290834665298,0.12400554865598679,0.22479823231697083
1761330823438112500,5.080112548828125,0.12400554865598679,-0.20219624042510986,0.14233149588108063
1761330823456813300,5.098813232421875,0.24801109731197357,-0.3139844834804535,-0.06841685622930527
1761330823475514400,5.117514404296875,0.47036588191986084,-0.013439024798572063,-0.31520622968673706
1761330823494215200,5.136215087890625,0.676227331161499,0.49602219462394714,-0.39400777220726013
1761330823512916200,5.154916259765625,0.7049379348754883,0.6798924803733826,-0.33597561717033386
1761330823531617000,5.173616943359375,0.5186241865158081,0.4312705397605896,-0.27366742491722107
1761330823550317800,5.19231787109375,0.21502439677715302,-0.0030543238390237093,-0.24251331388950348
1761330823569019000,5.211018798828125,0.03543015569448471,-0.337808221578598,-0.17592905461788177
1761330823587719700,5.2297197265625,0.033597562462091446,-0.4465421438217163,-0.06841685622930527
1761330823606420700,5.248420654296875,0.22785256803035736,-0.389120876789093,0.020158538594841957
1761330823625121500,5.26712158203125,0.4862483739852905,-0.21502439677715302,0.09101885557174683
1761330823643822600,5.285822509765625,0.6157516837120056,-0.037262752652168274,0.12156209349632263
1761330823662523400,5.3045234375,0.6108647584915161,0.07757982611656189,0.10751219838857651
1761330823681224200,5.32322412109375,0.5351175665855408,0.043982263654470444,0.04764745384454727
1761330823699925200,5.34192529296875,0.47464191913604736,0.04520399495959282,0.03848448023200035
1761330823718626000,5.3606259765625,0.4612029194831848,0.09896009415388107,0.05070177838206291
1761330823737327000,5.3793271484375,0.4978547990322113,0.12705987691879272,0.09162971377372742
1761330823756028000,5.39802783203125,0.5577195286750793,0.09651663154363632,0.1490510106086731
1761330823774729000,5.41672900390625,0.583375871181488,0.002443459117785096,0.15149445831775665
1761330823793429800,5.4354296875,0.5400044918060303,-0.07024945318698883,0.09101885557174683
1761330823812130800,5.454130859375,0.411722868680954,-0.01649334840476513,0.0030543238390237093
1761330823830831600,5.47283154296875,0.23396120965480804,0.06291907280683517,-0.12644900381565094
1761330823849532400,5.491532470703125,0.10323614627122879,0.1441640853881836,-0.23518294095993042
1761330823868233500,5.5102333984375,0.026878049597144127,0.2675587832927704,-0.30054548382759094
1761330823886934300,5.528934326171875,0.011606430634856224,0.38667741417884827,-0.32681265473365784
1761330823905635300,5.54763525390625,0.07024945318698883,0.41783151030540466,-0.30970844626426697
1761330823924336400,5.56633642578125,0.15515965223312378,0.2987128794193268,-0.25534147024154663
1761330823943037200,5.585037109375,0.22724169492721558,0.1594357043504715,-0.13988803327083588
1761330823961738000,5.603738037109375,0.21258094906806946,0.09651663154363632,-0.01649334840476513
1761330823980439000,5.62243896484375,0.13744457066059113,0.11362084746360779,0.10506874322891235
1761330823999139800,5.641139892578125,0.0513126403093338,0.09346231073141098,0.16859868168830872
1761330824017841000,5.6598408203125,0.001221729558892548,0.08674279600381851,0.10445787757635117
1761330824036541700,5.678541748046875,0.011606430634856224,0.0977383628487587,-0.08979712426662445
1761330824055242500,5.697242431640625,0.05803215503692627,0.10567960888147354,-0.3634645342826843
1761330824073943600,5.715943603515625,0.10384701192378998,0.23335035145282745,-0.5784889459609985
1761330824092644600,5.73464453125,0.08979712426662445,0.5907062292098999,-0.4679224193096161
1761330824111345400,5.753345458984375,-0.001221729558892548,0.8869756460189819,-0.11484257876873016
1761330824130046500,5.77204638671875,-0.10629047453403473,0.5766563415527344,0.008552107028663158
1761330824148747300,5.790747314453125,-0.21319180727005005,-0.13439024984836578,-0.26389357447624207
1761330824167448000,5.809447998046875,-0.28588470816612244,-0.5320632457733154,-0.4819723069667816
1761330824186149000,5.828149169921875,-0.379347026348114,-0.4838049113750458,-0.4575377106666565
1761330824204850000,5.846849853515625,-0.4324922561645508,-0.1490510106086731,-0.1282816082239151
1761330824223551000,5.865551025390625,-0.44837474822998047,0.16798780858516693,0.3194822669029236
1761330824242251800,5.884251708984375,-0.3860665261745453,0.15210533142089844,0.5760455131530762
1761330824260952800,5.902952880859375,-0.28405213356018066,-0.01893680728971958,0.6200277805328369
1761330824279653600,5.921653564453125,-0.17898337543010712,-0.15760311484336853,0.5338957905769348
1761330824298354700,5.940354736328125,-0.1380554437637329,-0.21319180727005005,0.4062250852584839
1761330824317055500,5.959055419921875,-0.19364413619041443,-0.2370155304670334,0.3029889166355133
1761330824335756500,5.977756591796875,-0.27366742491722107,-0.2993237376213074,0.20463970303535461
1761330824354457300,5.996457275390625,-0.3243691921234131,-0.3292561173439026,0.12095122784376144
1761330824373158400,6.015158447265625,-0.3610210716724396,-0.31642794609069824,0.07513637095689774
1761330824391859200,6.033859130859375,-0.3995055556297302,-0.2364046722650528,0.08491020649671555
1761330824410560300,6.052560302734375,-0.42882707715034485,-0.1026252806186676,0.13927717506885529
1761330824429261000,6.071260986328125,-0.4557051360607147,-0.07391463965177536,0.13133592903614044
1761330824447962000,6.089962158203125,-0.49418962001800537,-0.14599667489528656,0.05925388261675835
1761330824466663000,6.108662841796875,-0.49663305282592773,-0.2626718580722809,-0.07024945318698883
1761330824485364000,6.127364013671875,-0.4667007029056549,-0.3451386094093323,-0.19242240488529205
1761330824504064800,6.146064697265625,-0.47097674012184143,-0.3329212963581085,-0.268169641494751
1761330824522765800,6.164765869140625,-0.4868592321872711,-0.318871408700943,-0.3292561173439026
1761330824541466600,6.183466552734375,-0.4819723069667816,-0.33597561717033386,-0.39217519760131836
1761330824560167700,6.202167724609375,-0.4379900395870209,-0.36285367608070374,-0.3970620930194855
1761330824578868500,6.220868408203125,-0.36835145950317383,-0.34147340059280396,-0.3182605504989624
1761330824597569500,6.239569580078125,-0.32681265473365784,-0.3390299379825592,-0.23457208275794983
1761330824616270300,6.258270263671875,-0.3298669755458832,-0.3329212963581085,-0.18875721096992493
1761330824634971400,6.276971435546875,-0.3799578845500946,-0.27977606654167175,-0.17043127119541168
1761330824653672200,6.295672119140625,-0.42332929372787476,-0.20158538222312927,-0.1130099818110466
1761330824672373200,6.314373291015625,-0.3909534513950348,-0.08063415437936783,0.007941242307424545
1761330824691074000,6.333073974609375,-0.2809978127479553,-0.05070177838206291,0.13133592903614044
1761330824709775000,6.351775146484375,-0.15699224174022675,-0.23823726177215576,0.24373504519462585
1761330824728476000,6.370475830078125,-0.05925388261675835,-0.41355544328689575,0.40378162264823914
1761330824747177000,6.389177001953125,-0.015271619893610477,-0.31520622968673706,0.5442805290222168
1761330824765877800,6.407877685546875,0.009162971749901772,-0.19608759880065918,0.5241219997406006
1761330824784578800,6.426578857421875,0.000610864779446274,-0.17653992772102356,0.3738492429256439
1761330824803279600,6.445279541015625,-0.06230820715427399,-0.14294235408306122,0.24495677649974823
1761330824821980700,6.463980712890625,-0.08796452730894089,-0.13072505593299866,0.20219624042510986
1761330824840681500,6.482681396484375,-0.10079269111156464,-0.05803215503692627,0.2309068888425827
1761330824859382500,6.501382568359375,-0.07574722915887833,0.08491020649671555,0.258395791053772
1761330824878083300,6.520083251953125,-0.020769402384757996,0.12705987691879272,0.21685700118541718
1761330824896784400,6.538784423828125,-0.011606430634856224,0.10873392969369888,0.13561198115348816
1761330824915485400,6.5574853515625,-0.04276053607463837,0.06414080411195755,0.04886918142437935
1761330824934186200,6.576186279296875,-0.0824667438864708,0.07757982611656189,-0.043982263654470444
1761330824952887300,6.59488720703125,-0.07269290834665298,0.07574722915887833,-0.143553227186203
1761330824971588000,6.613588134765625,-0.000610864779446274,0.007330377586185932,-0.19364413619041443
1761330824990289200,6.6322890625,0.09590577334165573,-0.007941242307424545,-0.1288924664258957
1761330825008990000,6.650989990234375,0.1844811588525772,0.059864748269319534,-0.010995565913617611
1761330825027691000,6.66969091796875,0.2608392536640167,0.13255766034126282,0.10445787757635117
1761330825046391800,6.688391845703125,0.3292561173439026,0.1288924664258957,0.2101374864578247
1761330825065092900,6.7070927734375,0.38667741417884827,0.08491020649671555,0.277332603931427
1761330825083793700,6.725793701171875,0.41783151030540466,0.0818558782339096,0.2822195291519165
1761330825102494700,6.74449462890625,0.41355544328689575,0.13744457066059113,0.21807873249053955
1761330825121195500,6.763195556640625,0.38301220536231995,0.19608759880065918,0.08491020649671555
1761330825139896600,6.781896484375,0.3243691921234131,0.23396120965480804,-0.10506874322891235
1761330825158597600,6.80059765625,0.2877173125743866,0.2981020212173462,-0.24862197041511536
1761330825177298400,6.81929833984375,0.2883281707763672,0.39217519760131836,-0.2968802750110626
1761330825195999500,6.83799951171875,0.30604326725006104,0.4770853817462921,-0.24923282861709595
1761330825214700300,6.8567001953125,0.3915643095970154,0.4880809485912323,-0.16798780858516693
1761330825233401300,6.8754013671875,0.5021308660507202,0.4196641147136688,-0.08857539296150208
1761330825252102100,6.89410205078125,0.5943714380264282,0.32620179653167725,-0.026878049597144127
1761330825270803200,6.91280322265625,0.6065887212753296,0.22663083672523499,-0.01649334840476513
1761330825289504000,6.93150390625,0.5033525824546814,0.20952661335468292,0.001832594396546483
1761330825308205000,6.950205078125,0.3433060050010681,0.22724169492721558,-0.017104214057326317
1761330825326905900,6.96890576171875,0.22724169492721558,0.11972949653863907,-0.15149445831775665
1761330825345607000,6.98760693359375,0.23945899307727814,-0.15821397304534912,-0.4159989058971405
1761330825364307700,7.0063076171875,0.31154105067253113,-0.1533270627260208,-0.5088503360748291
1761330825383008800,7.0250087890625,0.3335321843624115,0.09468404203653336,-0.27855435013771057
1761330825401709600,7.04370947265625,0.33536475896835327,0.07574722915887833,0.015271619893610477
1761330825420410600,7.06241064453125,0.31093016266822815,-0.2809978127479553,0.1496618688106537
1761330825439111700,7.081111572265625,0.2156352698802948,-0.5632173418998718,0.19608759880065918
1761330825457812500,7.0998125,0.1081230640411377,-0.7061597108840942,0.21502439677715302
1761330825476513500,7.118513427734375,0.04886918142437935,-0.7086031436920166,0.2412915825843811
1761330825495214300,7.13721435546875,-0.026878049597144127,-0.4422661066055298,0.3170388340950012
1761330825513915400,7.155915283203125,-0.12034036219120026,-0.19242240488529205,0.3860665261745453
1761330825532616200,7.1746162109375,-0.2107483446598053,-0.08002328872680664,0.44348782300949097
1761330825551317200,7.193317138671875,-0.31520622968673706,-0.05497783049941063,0.4581485986709595
1761330825570018000,7.21201806640625,-0.49602219462394714,-0.07635809481143951,0.4007273018360138
1761330825588719000,7.230718994140625,-0.6493492722511292,-0.04581485688686371,0.2510654330253601
1761330825607420000,7.249419921875,-0.6890554428100586,0.049480047076940536,0.03176496922969818
1761330825626121000,7.268120849609375,-0.6267472505569458,0.17165300250053406,-0.1533270627260208
1761330825644821800,7.28682177734375,-0.5216785073280334,0.2101374864578247,-0.23273947834968567
1761330825663522800,7.305522705078125,-0.38850998878479004,0.11362084746360779,-0.1637117564678192
1761330825682223900,7.324223876953125,-0.2919933497905731,-0.028099779039621353,0.021380268037319183
1761330825700925000,7.342925048828125,-0.3023780584335327,-0.08063415437936783,0.21441353857517242
1761330825719625700,7.361625732421875,-0.3530798554420471,-0.06352993845939636,0.3066541254520416
1761330825738326800,7.380326904296875,-0.37812530994415283,-0.043371398001909256,0.2779434621334076
1761330825757027600,7.399027587890625,-0.3451386094093323,-0.0873536616563797,0.20952661335468292
1761330825775728600,7.417728759765625,-0.29626941680908203,-0.22907429933547974,0.10690133273601532
1761330825794429400,7.436429443359375,-0.27550002932548523,-0.3995055556297302,-0.08307760953903198
1761330825813130500,7.455130615234375,-0.3090975880622864,-0.4679224193096161,-0.2779434621334076
1761330825831831300,7.473831298828125,-0.40255987644195557,-0.39889469742774963,-0.33658650517463684
1761330825850532400,7.492532470703125,-0.4740310609340668,-0.23029601573944092,-0.2370155304670334
1761330825869233200,7.511233154296875,-0.45448338985443115,-0.053756099194288254,-0.07941242307424545
1761330825887934200,7.529934326171875,-0.41905322670936584,-0.03787361457943916,0.014660755172371864
1761330825906635000,7.548635009765625,-0.3946186602115631,-0.15210533142089844,-0.010384701192378998
1761330825925336000,7.567336181640625,-0.3402516841888428,-0.22724169492721558,-0.08307760953903198
1761330825944037000,7.586037109375,-0.28588470816612244,-0.1997527778148651,-0.1081230640411377
1761330825962738000,7.604738037109375,-0.22968515753746033,-0.19425499439239502,-0.09896009415388107
1761330825981439000,7.62343896484375,-0.15699224174022675,-0.2577849328517914,-0.05558869615197182
1761330826000139800,7.642139892578125,-0.08307760953903198,-0.287106454372406,0.000610864779446274
1761330826018840800,7.6608408203125,0.027488915249705315,-0.13988803327083588,0.0513126403093338
1761330826037542000,7.6795419921875,0.14233149588108063,0.20402882993221283,0.16004657745361328
1761330826056242700,7.69824267578125,0.20769402384757996,0.4373791813850403,0.21197007596492767
1761330826074943700,7.71694384765625,0.21380266547203064,0.28038692474365234,0.0873536616563797
1761330826093644500,7.73564453125,0.08674279600381851,-0.06414080411195755,-0.11239911615848541
1761330826112345600,7.754345703125,-0.05742128938436508,-0.3225366175174713,-0.2571740746498108
1761330826131046700,7.773046630859375,-0.18264856934547424,-0.3274235129356384,-0.2406807243824005
1761330826149747500,7.79174755859375,-0.18081597983837128,-0.07513637095689774,-0.046425722539424896
1761330826168448500,7.810448486328125,-0.05070177838206291,0.1130099818110466,0.143553227186203
1761330826187149300,7.8291494140625,0.0873536616563797,0.05436696484684944,0.1954767256975174
1761330826205850400,7.847850341796875,0.15027274191379547,-0.06597339361906052,0.19730933010578156
1761330826224551200,7.86655126953125,0.11972949653863907,-0.09590577334165573,0.21258094906806946
1761330826243252200,7.885252197265625,0.056199558079242706,-0.010995565913617611,0.23212862014770508
1761330826261953300,7.903953369140625,0.03481929376721382,0.09468404203653336,0.2003636509180069
1761330826280654000,7.922654052734375,0.08124501258134842,0.14782927930355072,0.1282816082239151
1761330826299355100,7.941355224609375,0.13255766034126282,0.1588248461484909,0.09407317638397217
1761330826318056000,7.960055908203125,0.1844811588525772,0.18387030065059662,0.1539379209280014
1761330826336757000,7.978757080078125,0.2003636509180069,0.18325942754745483,0.2406807243824005
1761330826355458000,7.9974580078125,0.19914191961288452,0.1594357043504715,0.2724456787109375
1761330826374158800,8.016158935546875,0.205861434340477,0.08979712426662445,0.20341797173023224
1761330826392860000,8.03485986328125,0.23396120965480804,0.05558869615197182,0.08429934084415436
1761330826411561000,8.05356103515625,0.26022839546203613,-0.001832594396546483,-0.056810423731803894
1761330826430261800,8.07226171875,0.277332603931427,-0.007941242307424545,-0.1185077652335167
1761330826448962800,8.090962890625,0.24312418699264526,0.04886918142437935,-0.10506874322891235
1761330826467663600,8.10966357421875,0.19853104650974274,0.09834922850131989,-0.07024945318698883
1761330826486364700,8.12836474609375,0.20891575515270233,0.11911863088607788,-0.02626718580722809
1761330826505065500,8.1470654296875,0.2571740746498108,0.13072505593299866,0.009162971749901772
1761330826523766500,8.1657666015625,0.3182605504989624,0.13011419773101807,0.018325943499803543
1761330826542467600,8.184467529296874,0.37690356373786926,0.1386663019657135,0.007330377586185932
1761330826561168400,8.20316845703125,0.3909534513950348,0.10018182545900345,-0.011606430634856224
1761330826579869400,8.221869384765625,0.33536475896835327,0.10934479534626007,0.004276053514331579
1761330826598570200,8.2405703125,0.23396120965480804,0.1948658674955368,0.05070177838206291
1761330826617271300,8.259271240234375,0.1496618688106537,0.18631376326084137,-0.03237583488225937
1761330826635972400,8.277972412109374,0.16126830875873566,-0.036651886999607086,-0.3249800503253937
1761330826654673200,8.296673095703126,0.22663083672523499,-0.25411975383758545,-0.6316341757774353
1761330826673374200,8.315374267578125,0.2706131041049957,-0.2718348205089569,-0.7092140316963196
1761330826692075000,8.334074951171875,0.2822195291519165,-0.07513637095689774,-0.40927940607070923
1761330826710776000,8.352776123046874,0.25411975383758545,-0.16798780858516693,-0.021380268037319183
1761330826729476900,8.371476806640626,0.2406807243824005,-0.49480047821998596,0.15210533142089844
1761330826748178000,8.390177978515625,0.14172062277793884,-0.5803215503692627,0.20891575515270233
1761330826766879000,8.40887890625,0.009162971749901772,-0.4770853817462921,0.1496618688106537
1761330826785580000,8.427580078125,-0.0513126403093338,-0.2987128794193268,0.03176496922969818
1761330826804280800,8.44628076171875,-0.10018182545900345,-0.20891575515270233,-0.09407317638397217
1761330826822982000,8.46498193359375,-0.14782927930355072,-0.2412915825843811,-0.15821397304534912
1761330826841682700,8.4836826171875,-0.19303326308727264,-0.28038692474365234,-0.12400554865598679
1761330826860383700,8.5023837890625,-0.22479823231697083,-0.21991132199764252,0.002443459117785096
1761330826879084800,8.521084716796874,-0.26511532068252563,-0.08124501258134842,0.12583814561367035
1761330826897785600,8.53978564453125,-0.27427828311920166,-0.006108647678047419,0.10201441496610641
1761330826916486700,8.558486572265625,-0.23335035145282745,0.020769402384757996,-0.002443459117785096
1761330826935187500,8.5771875,-0.17837251722812653,0.07819069176912308,-0.03909534588456154
1761330826953888500,8.595888427734375,-0.11667517572641373,0.15027274191379547,0.02260199747979641
1761330826972589600,8.614589599609374,-0.07513637095689774,0.1545487940311432,0.1331685185432434
1761330826991290400,8.633290283203126,-0.06963858753442764,0.06291907280683517,0.27000224590301514
1761330827009991400,8.651991455078125,-0.09346231073141098,-0.046425722539424896,0.389120876789093
1761330827028692200,8.670692138671875,-0.11362084746360779,-0.10567960888147354,0.45509424805641174
1761330827047393300,8.689393310546874,-0.13927717506885529,-0.09834922850131989,0.4007273018360138
1761330827066094300,8.70809423828125,-0.13988803327083588,-0.07391463965177536,0.2467893660068512
1761330827084795100,8.726795166015625,-0.12278381735086441,-0.007941242307424545,0.07513637095689774
1761330827103496200,8.74549609375,-0.12034036219120026,-0.0054977829568088055,-0.06536252796649933
1761330827122197000,8.764197021484375,-0.13927717506885529,-0.08857539296150208,-0.17592905461788177
1761330827140898000,8.78289794921875,-0.1441640853881836,-0.20952661335468292,-0.24251331388950348
1761330827159599000,8.80159912109375,-0.13439024984836578,-0.21807873249053955,-0.21991132199764252
1761330827178300000,8.8202998046875,-0.16004657745361328,-0.06841685622930527,-0.11239911615848541
1761330827197001000,8.8390009765625,-0.1893680840730667,-0.2052505612373352,-0.11423171311616898
1761330827215701800,8.85770166015625,-0.17776164412498474,-0.4923570156097412,-0.17043127119541168
1761330827234402800,8.87640283203125,-0.18325942754745483,-0.6420188546180725,-0.17104214429855347
1761330827253103900,8.895103759765625,-0.2467893660068512,-0.554665207862854,-0.07147117704153061
1761330827271805000,8.913804931640625,-0.30482152104377747,-0.24984370172023773,0.143553227186203
1761330827290505700,8.932505615234374,-0.29443681240081787,-0.15699224174022675,0.3915643095970154
1761330827309206800,8.951206787109374,-0.16798780858516693,-0.5412262082099915,0.4770853817462921
1761330827327907600,8.969907470703125,0.008552107028663158,-0.5009090900421143,0.5528326034545898
1761330827346609400,8.988609375,0.17592905461788177,-0.19303326308727264,0.5925388336181641
1761330827365309700,9.007309814453125,0.3127627670764923,0.0030543238390237093,0.5314523577690125
1761330827384010500,9.026010498046874,0.2419024556875229,-0.05253437161445618,0.2620609998703003
1761330827402711600,9.044711669921876,0.06108647957444191,-0.010995565913617611,-0.06475166976451874
1761330827421412400,9.063412353515625,-0.08124501258134842,0.06597339361906052,-0.2828303873538971
1761330827440113400,9.082113525390625,-0.09407317638397217,0.18081597983837128,-0.2834412455558777
1761330827458814500,9.100814453125,0.003665188793092966,0.23335035145282745,-0.13500112295150757
1761330827477515300,9.119515380859376,0.15149445831775665,0.17715078592300415,0.053145237267017365
1761330827496216300,9.13821630859375,0.26939135789871216,0.19242240488529205,0.2370155304670334
1761330827514917400,9.15691748046875,0.2706131041049957,0.33719736337661743,0.35796675086021423
1761330827533618200,9.1756181640625,0.22418737411499023,0.4563159942626953,0.39400777220726013
1761330827552319200,9.1943193359375,0.20158538222312927,0.4214966893196106,0.3298669755458832
1761330827571020000,9.21302001953125,0.22663083672523499,0.30054548382759094,0.22296564280986786
1761330827589721000,9.23172119140625,0.3017672002315521,0.22418737411499023,0.14721840620040894
1761330827608422100,9.250422119140625,0.4056142270565033,0.23273947834968567,0.1386663019657135
1761330827627123000,9.269123046875,0.48013970255851746,0.25411975383758545,0.1649334877729416
1761330827645824000,9.287823974609376,0.5125155448913574,0.2510654330253601,0.19120067358016968
1761330827664524800,9.30652490234375,0.5174024701118469,0.21441353857517242,0.22418737411499023
1761330827683225900,9.325225830078125,0.49480047821998596,0.17043127119541168,0.25350889563560486
1761330827701926700,9.3439267578125,0.49052441120147705,0.0873536616563797,0.23823726177215576
1761330827720627700,9.362627685546874,0.5021308660507202,0.017104214057326317,0.17837251722812653
1761330827739328800,9.381328857421876,0.4764745235443115,0.017104214057326317,0.08979712426662445
1761330827758029800,9.40002978515625,0.41355544328689575,-0.05558869615197182,-0.07513637095689774
1761330827776730600,9.418730712890625,0.4043924808502197,-0.09040798991918564,-0.24862197041511536
1761330827795431700,9.437431640625,0.45998117327690125,-0.01893680728971958,-0.33047783374786377
1761330827814132700,9.4561328125,0.5540543794631958,0.09590577334165573,-0.2822195291519165
1761330827832833500,9.47483349609375,0.6401863098144531,0.18692462146282196,-0.09468404203653336
1761330827851534600,9.49353466796875,0.6640099883079529,0.13255766034126282,0.11178825795650482
1761330827870235600,9.512235595703125,0.6432406306266785,-0.006108647678047419,0.21135921776294708
1761330827888936400,9.5309365234375,0.5619956254959106,-0.07269290834665298,0.17898337543010712
1761330827907637500,9.549637451171876,0.4819723069667816,-0.020769402384757996,0.0665842592716217
1761330827926338300,9.56833837890625,0.4050033390522003,-0.01954767294228077,-0.12461641430854797
1761330827945039400,9.587039306640625,0.3591884970664978,-0.0616973415017128,-0.3042106628417969
1761330827963740400,9.605740478515624,0.3243691921234131,-0.18631376326084137,-0.462424635887146
1761330827982441200,9.624441162109376,0.32009315490722656,-0.20708316564559937,-0.5375609993934631
1761330828001142300,9.643142333984375,0.3066541254520416,-0.08002328872680664,-0.45509424805641174
1761330828019843300,9.66184326171875,0.2309068888425827,-0.001221729558892548,-0.3231474757194519
1761330828038544100,9.680544189453125,0.09162971377372742,0.023212861269712448,-0.25473061203956604
1761330828057245200,9.6992451171875,-0.06414080411195755,-0.11667517572641373,-0.31581708788871765
1761330828075946000,9.717946044921876,-0.11911863088607788,-0.2864955961704254,-0.41294458508491516
1761330828094647000,9.73664697265625,-0.06291907280683517,-0.17348559200763702,-0.36651885509490967
1761330828113348000,9.75534814453125,0.015271619893610477,-0.029932374134659767,-0.20708316564559937
1761330828132049000,9.774048828125,0.05192350596189499,0.12400554865598679,0.0360410213470459
1761330828150750000,9.79275,-0.006108647678047419,0.24740023910999298,0.29016077518463135
1761330828169450800,9.81145068359375,-0.08918625861406326,0.38179048895835876,0.4825831651687622
1761330828188151800,9.83015185546875,-0.18203771114349365,0.4263836145401001,0.5253437161445618
1761330828206852900,9.848852783203125,-0.25961753726005554,0.360410213470459,0.43310311436653137
1761330828225553700,9.8675537109375,-0.2718348205089569,0.21868959069252014,0.29443681240081787
1761330828244254700,9.886254638671875,-0.20708316564559937,0.15699224174022675,0.19730933010578156
1761330828262955500,9.90495556640625,-0.13133592903614044,0.2052505612373352,0.1594357043504715
1761330828281656600,9.923656494140625,-0.09590577334165573,0.27855435013771057,0.16737695038318634
1761330828300357600,9.942357666015624,-0.08674279600381851,0.258395791053772,0.18570289015769958
1761330828319058400,9.961058349609376,-0.09407317638397217,0.17043127119541168,0.22174391150474548
1761330828337759500,9.979759521484375,-0.14049890637397766,0.08979712426662445,0.26389357447624207
1761330828356460500,9.99846044921875,-0.17165300250053406,0.011606430634856224,0.2559523284435272
1761330828375161300,10.017161376953124,-0.17287473380565643,-0.06719512492418289,0.17898337543010712
1761330828393862400,10.0358623046875,-0.19120067358016968,-0.12583814561367035,0.08063415437936783
1761330828412563500,10.0545634765625,-0.22785256803035736,-0.11056652665138245,0.007941242307424545
1761330828431264300,10.07326416015625,-0.22357651591300964,-0.08124501258134842,-0.04153880476951599
1761330828449965300,10.09196533203125,-0.19425499439239502,-0.03298669680953026,-0.06963858753442764
1761330828468666400,10.110666259765624,-0.1893680840730667,-0.010995565913617611,-0.08979712426662445
1761330828487367200,10.1293671875,-0.20158538222312927,-0.018325943499803543,-0.0873536616563797
1761330828506068200,10.148068115234375,-0.22663083672523499,-0.037262752652168274,-0.043982263654470444
1761330828524769300,10.166769287109375,-0.2467893660068512,-0.02932151034474373,0.02932151034474373
1761330828543470000,10.185469970703124,-0.2370155304670334,-0.02871064469218254,0.07757982611656189
1761330828562171100,10.204171142578126,-0.20402882993221283,-0.06047561392188072,0.08063415437936783
1761330828580872000,10.222871826171875,-0.20463970303535461,-0.13683371245861053,0.04276053607463837
1761330828599573000,10.241572998046875,-0.2205221801996231,-0.25961753726005554,-0.04459312930703163
1761330828618274000,10.260274169921875,-0.185092031955719,-0.3396408259868622,-0.10690133273601532
1761330828636974800,10.278974853515624,-0.11362084746360779,-0.3133736252784729,-0.09101885557174683
1761330828655676000,10.297676025390626,-0.007941242307424545,-0.2406807243824005,-0.06902772188186646
1761330828674376700,10.316376708984375,0.07880155742168427,0.046425722539424896,-0.033597562462091446
1761330828693077800,10.335077880859375,0.10506874322891235,0.3610210716724396,-0.000610864779446274
1761330828711778800,10.35377880859375,0.09162971377372742,0.04764745384454727,-0.13927717506885529
1761330828730479600,10.372479736328126,0.053145237267017365,-0.4667007029056549,-0.32620179653167725
1761330828749180700,10.3911806640625,-0.04764745384454727,-0.7122683525085449,-0.43493571877479553
1761330828767881500,10.409881591796875,-0.1288924664258957,-0.48441576957702637,-0.36224281787872314
1761330828786582500,10.42858251953125,-0.10323614627122879,0.13133592903614044,-0.11239911615848541
1761330828805283600,10.44728369140625,0.04581485688686371,0.481361448764801,0.1490510106086731
1761330828823984400,10.465984375,0.13988803327083588,0.3402516841888428,0.2767217457294464
1761330828842685400,10.484685546875,0.09651663154363632,0.11545344442129135,0.29138249158859253
1761330828861386500,10.503386474609375,-0.01588248461484909,0.043371398001909256,0.23945899307727814
1761330828880087300,10.52208740234375,-0.06536252796649933,0.1496618688106537,0.15699224174022675
1761330828898788400,10.540788330078126,0.01588248461484909,0.287106454372406,0.10751219838857651
1761330828917489200,10.5594892578125,0.14660754799842834,0.21502439677715302,0.08307760953903198
1761330828936190200,10.578190185546875,0.27488914132118225,0.0818558782339096,0.10995566099882126
1761330828954891300,10.596891357421875,0.328645259141922,0.04825831577181816,0.17837251722812653
1761330828973592000,10.615592041015624,0.2883281707763672,0.16615521907806396,0.2987128794193268
1761330828992293000,10.634293212890626,0.21197007596492767,0.24006985127925873,0.379347026348114
1761330829010994200,10.652994140625,0.13255766034126282,0.15271618962287903,0.3756818473339081
1761330829029695200,10.6716953125,0.0616973415017128,0.031154103577136993,0.31459537148475647
1761330829048396000,10.69039599609375,0.011606430634856224,-0.07635809481143951,0.17226386070251465
1761330829067097000,10.70909716796875,0.027488915249705315,-0.09896009415388107,-0.001221729558892548
1761330829085798000,10.7277978515625,0.07269290834665298,-0.031154103577136993,-0.19425499439239502
1761330829104499000,10.7464990234375,0.12950333952903748,0.24801109731197357,-0.3426951467990875
1761330829123200000,10.765199951171875,0.18692462146282196,0.6505709886550903,-0.36774060130119324
1761330829141900800,10.78390087890625,0.09040798991918564,0.4324922561645508,0.05070177838206291
1761330829160601900,10.802601806640626,0.11667517572641373,-0.3836230933666229,0.056810423731803894
1761330829179302700,10.821302734375,0.23212862014770508,-0.5815432667732239,-0.18081597983837128
1761330829198003700,10.840003662109375,0.24312418699264526,-0.12217295914888382,-0.21197007596492767
