time,seconds_elapsed,z,y,x
1761330818427369500,0.069369384765625,8.427521705627441,5.2115678787231445,-0.2392822653055191
1761330818446070300,0.0880703125,8.417949676513672,5.2977094650268555,-0.42352959513664246
1761330818464771000,0.10677099609375,8.757730484008789,5.347958564758301,-0.8422735929489136
1761330818483472000,0.125471923828125,9.408578872680664,5.335994720458984,-1.0360921621322632
1761330818502173000,0.1441728515625,9.8871431350708,5.161318302154541,-1.0217353105545044
1761330818520873700,0.162873779296875,10.293923377990723,5.276174068450928,-0.9547362327575684
1761330818539574500,0.181574462890625,10.918449401855469,5.694917678833008,-1.1126625537872314
1761330818558275300,0.200275390625,11.12901782989502,5.601597785949707,-1.155733346939087
1761330818576976100,0.21897607421875,10.875378608703613,5.1876397132873535,-1.0193424224853516
1761330818595677000,0.237677001953125,10.77248764038086,4.689932346343994,-0.6843472719192505
1761330818614378000,0.2563779296875,10.767702102661133,3.78544545173645,-0.2153540402650833
1761330818633078800,0.275078857421875,10.85862922668457,2.950350284576416,0.040677983313798904
1761330818651779600,0.293779541015625,10.710273742675781,2.5603201389312744,-0.19621145725250244
1761330818670480400,0.31248046875,10.269994735717773,2.5842485427856445,-0.7513462901115417
1761330818689181200,0.33118115234375,10.047462463378906,2.720639228820801,-0.7585247755050659
1761330818707882200,0.34988232421875,9.839286804199219,2.7014968395233154,-0.10289137065410614
1761330818726583000,0.3685830078125,9.332008361816406,2.8977081775665283,0.19142581522464752
1761330818745283800,0.387283935546875,8.800801277160645,3.129812002182007,0.15314064919948578
1761330818763984600,0.405984619140625,8.398807525634766,3.170490026473999,-0.05503492057323456
1761330818782685400,0.424685546875,8.123632431030273,3.1920254230499268,-0.4546363055706024
1761330818801386200,0.44338623046875,8.126026153564453,3.2685956954956055,-0.7250252366065979
1761330818820087000,0.462087158203125,8.049455642700195,3.38105845451355,-0.5742774605751038
1761330818838788000,0.4807880859375,7.661818027496338,3.596412420272827,-0.4833501875400543
1761330818857489000,0.499489013671875,7.295716285705566,3.8285162448883057,-0.5910272002220154
1761330818876189700,0.518189697265625,7.204789161682129,4.022335052490234,-0.6029912829399109
1761330818894890500,0.536890380859375,7.070790767669678,3.9912281036376953,-0.4307080805301666
1761330818913591300,0.55559130859375,6.860222339630127,3.955335855484009,-0.48813581466674805
1761330818932292400,0.574292236328125,6.989434719085693,3.91705060005188,-0.4450650215148926
1761330818950993200,0.5929931640625,7.384250640869141,3.8907296657562256,-0.2727817893028259
1761330818969694000,0.61169384765625,7.848458290100098,3.8668015003204346,-0.30628129839897156
1761330818988394800,0.630394775390625,8.202595710754395,3.9314076900482178,-0.44745782017707825
1761330819007095800,0.649095703125,8.427521705627441,4.029513359069824,-0.43549370765686035
1761330819025796600,0.667796630859375,8.547162055969238,4.304687976837158,-0.3684946894645691
1761330819044497400,0.686497314453125,8.762516975402832,4.639683246612549,-0.2392822653055191
1761330819063198200,0.7051982421875,8.872586250305176,4.895715236663818,-0.11485548317432404
1761330819081899000,0.72389892578125,8.992227554321289,5.154139995574951,0.016749758273363113
1761330819100600000,0.74260009765625,9.255437850952148,5.4556355476379395,0.13160525262355804
1761330819119300900,0.76130078125,9.4660062789917,5.481956481933594,0.31824541091918945
1761330819138001700,0.780001708984375,9.934999465942383,5.300102233886719,0.5240281820297241
1761330819156702500,0.798702392578125,10.593026161193848,5.0703911781311035,0.9068797826766968
1761330819175403300,0.8174033203125,11.483156204223633,5.008177757263184,1.0169496536254883
1761330819194104000,0.83610400390625,12.138789176940918,5.312066078186035,0.7776673436164856
1761330819212805000,0.85480517578125,11.765508651733398,4.907679080963135,0.9978070259094238
1761330819231506000,0.873505859375,11.48076343536377,4.570291042327881,1.545763373374939
1761330819250206700,0.892206787109375,11.399407386779785,4.074976921081543,2.251646041870117
1761330819268907500,0.910907470703125,11.172088623046875,3.335594654083252,2.4023938179016113
1761330819287608300,0.9296083984375,10.526026725769043,2.981456995010376,2.007578134536743
1761330819306309400,0.948309326171875,9.542576789855957,3.074777126312256,1.4979069232940674
1761330819325010200,0.96701025390625,8.784051895141602,3.105883836746216,1.0145567655563354
1761330819343711000,0.9857109375,8.662017822265625,3.081955671310425,0.8542376756668091
1761330819362411800,1.004411865234375,8.652446746826172,2.8809585571289062,1.0719845294952393
1761330819381112600,1.023112548828125,8.166703224182129,2.9359934329986572,1.2658032178878784
1761330819399813400,1.0418134765625,7.503891944885254,3.122633457183838,1.0887342691421509
1761330819418514400,1.060514404296875,7.04207706451416,3.314059257507324,0.6269195079803467
1761330819437215200,1.07921533203125,7.0061845779418945,3.3786656856536865,0.09092725813388824
1761330819455916000,1.097916015625,7.310073375701904,3.3308091163635254,-0.19142581522464752
1761330819474616800,1.116616943359375,7.829315662384033,3.414557933807373,-0.30149564146995544
1761330819493318000,1.13531787109375,8.164310455322266,3.4719855785369873,-0.2727817893028259
1761330819512018700,1.154018798828125,8.2695951461792,3.620340585708618,-0.12681959569454193
1761330819530719500,1.172719482421875,8.281558990478516,3.814159393310547,0.040677983313798904
1761330819549420300,1.191420166015625,8.111668586730957,3.6370904445648193,0.42352959513664246
1761330819568121000,1.21012109375,8.102097511291504,3.4672000408172607,0.698704183101654
1761330819586822100,1.228822265625,8.140382766723633,3.462414264678955,0.9092726111412048
1761330819605523000,1.24752294921875,8.228917121887207,3.634697675704956,0.6819544434547424
1761330819624223700,1.2662236328125,8.468199729919434,3.895515203475952,0.26560330390930176
1761330819642924500,1.284924560546875,8.549555778503418,4.1036906242370605,0.03349951654672623
1761330819661625600,1.30362548828125,8.511270523071289,4.34536600112915,0.009571290574967861
1761330819680326400,1.322326416015625,8.547162055969238,4.4961137771606445,0.04546362906694412
1761330819699027200,1.341027099609375,8.738588333129883,4.553541660308838,0.3732803463935852
1761330819717728000,1.35972802734375,8.841479301452637,4.615755081176758,0.5288137793540955
1761330819736428800,1.3784287109375,8.877371788024902,4.53200626373291,-0.12442677468061447
1761330819755129900,1.3971298828125,9.20997428894043,4.536791801452637,-0.9595218896865845
1761330819773830700,1.41583056640625,9.954142570495605,4.271188259124756,-1.1988041400909424
1761330819792531500,1.434531494140625,10.65523910522461,3.91705060005188,-0.6795616149902344
1761330819811232300,1.453232177734375,11.327622413635254,4.3549370765686035,-0.6245267391204834
1761330819829933300,1.471933349609375,11.674581527709961,4.8502516746521,-0.7513462901115417
1761330819848634000,1.490634033203125,11.672188758850098,4.651647090911865,-0.5383850932121277
1761330819867335000,1.5093349609375,11.784651756286621,4.015156269073486,0.07657032459974289
1761330819886035700,1.52803564453125,11.794222831726074,3.1274192333221436,0.2225325107574463
1761330819904736500,1.546736572265625,11.504691123962402,2.5435705184936523,-0.3445664644241333
1761330819923437600,1.5654375,10.949556350708008,2.3545374870300293,-1.031306505203247
1761330819942138400,1.584138427734375,10.63370418548584,2.2683959007263184,-1.3471591472625732
1761330819960839200,1.602839111328125,10.61695384979248,2.2396819591522217,-1.210768222808838
1761330819979540000,1.6215400390625,10.468599319458008,2.414358139038086,-0.97148597240448
1761330819998241000,1.640240966796875,9.734002113342285,2.699103832244873,-0.6843472719192505
1761330820016941800,1.65894189453125,8.786444664001465,2.988635540008545,-0.5024927258491516
1761330820035642600,1.677642578125,8.133204460144043,3.105883836746216,-0.27756741642951965
1761330820054343400,1.696343505859375,7.82692289352417,3.1968109607696533,-0.349352091550827
1761330820073044500,1.71504443359375,7.566105365753174,3.2159535884857178,-0.6652047038078308
1761330820091745300,1.733745361328125,7.207181930541992,3.2685956954956055,-0.7657032608985901
1761330820110446000,1.752446044921875,7.070790767669678,3.460021495819092,-0.7704889178276062
1761330820129147000,1.77114697265625,7.022934436798096,3.6394832134246826,-0.7322037220001221
1761330820147848000,1.789847900390625,7.286144733428955,3.7495529651641846,-0.3756731450557709
1761330820166548700,1.808548828125,7.401000499725342,3.5844483375549316,-0.1579262912273407
1761330820185249500,1.82724951171875,7.405786037445068,3.594019651412964,-0.3206382393836975
1761330820203950600,1.84595068359375,7.735995769500732,3.625126361846924,-0.3684946894645691
1761330820222651400,1.8646513671875,8.039883613586426,3.6394832134246826,-0.33738797903060913
1761330820241352200,1.883352294921875,8.35573673248291,3.7639100551605225,-0.4211367964744568
1761330820260053000,1.902052978515625,8.575876235961914,3.9385859966278076,-0.5072783827781677
1761330820278753800,1.92075390625,8.659625053405762,4.146761417388916,-0.4091726839542389
1761330820297454800,1.939454833984375,8.659625053405762,4.235296249389648,-0.23688943684101105
1761330820316155600,1.95815576171875,8.831908226013184,4.431507587432861,-0.0933200865983963
1761330820334856400,1.9768564453125,8.989834785461426,4.7952165603637695,-0.3038884699344635
1761330820353557200,1.99555712890625,9.32722282409668,4.907679080963135,-0.3684946894645691
1761330820372258300,2.01425830078125,9.89432144165039,4.625326156616211,0.064606212079525
1761330820390959000,2.032958984375,10.626524925231934,4.323830604553223,0.6197410821914673
1761330820409660000,2.051659912109375,11.655439376831055,4.386044025421143,0.8374879360198975
1761330820428360700,2.070360595703125,11.832508087158203,4.457828521728516,0.8279166221618652
1761330820447061500,2.0890615234375,11.167303085327148,4.137190341949463,0.9690931439399719
1761330820465762600,2.107762451171875,10.971092224121094,3.7160534858703613,1.6654045581817627
1761330820484463400,2.12646337890625,11.428120613098145,3.091526746749878,2.0721843242645264
1761330820503164200,2.1451640625,11.653046607971191,2.6967110633850098,2.093719720840454
1761330820521865200,2.163865234375,11.3180513381958,2.4646072387695312,1.7802600860595703
1761330820540566000,2.18256591796875,10.789237022399902,2.3856441974639893,1.2658032178878784
1761330820559266800,2.201266845703125,10.482955932617188,2.218146562576294,0.9619147181510925
1761330820577967600,2.219967529296875,10.15035343170166,2.266003131866455,0.9379864931106567
1761330820596668700,2.238668701171875,9.391828536987305,2.5148565769195557,1.031306505203247
1761330820615369500,2.257369384765625,8.511270523071289,2.837887763977051,1.0887342691421509
1761330820634070300,2.2760703125,7.719245910644531,2.830709218978882,0.8709874153137207
1761330820652771000,2.29477099609375,7.195217609405518,3.014956474304199,0.20099709928035736
1761330820671472000,2.31347216796875,6.898507595062256,3.3332018852233887,-0.08853443711996078
1761330820690173000,2.3321728515625,6.991827964782715,3.3547372817993164,-0.12442677468061447
1761330820708873700,2.350873779296875,7.183253765106201,3.3403804302215576,-0.09092725813388824
1761330820727574500,2.369574462890625,7.405786037445068,3.510270833969116,0.07417750358581543
1761330820746275600,2.388275634765625,7.728816986083984,3.6083765029907227,0.17706887423992157
1761330820764976400,2.406976318359375,7.9657063484191895,3.7232320308685303,0.2679961323738098
1761330820783677200,2.42567724609375,8.066205024719238,3.5772697925567627,0.550349235534668
1761330820802378000,2.4443779296875,8.10688304901123,3.620340585708618,0.7680960893630981
1761330820821079000,2.4630791015625,8.221738815307617,3.8261234760284424,0.638883650302887
1761330820839779800,2.48177978515625,8.429914474487305,4.01754903793335,0.35413774847984314
1761330820858480600,2.500480712890625,8.839086532592773,4.319045066833496,0.2584248483181
1761330820877181700,2.519181640625,9.324830055236816,4.46979284286499,0.2632105052471161
1761330820895882500,2.537882568359375,9.509077072143555,4.412364959716797,0.397208571434021
1761330820914583300,2.556583251953125,9.702896118164062,4.54636287689209,0.42352959513664246
1761330820933284400,2.575284423828125,9.731609344482422,4.41475772857666,0.03349951654672623
1761330820951985200,2.593985107421875,9.475577354431152,4.429114818572998,-0.851844847202301
1761330820970686000,2.61268603515625,9.104690551757812,4.701896667480469,-1.770688772201538
1761330820989386800,2.63138671875,9.45882797241211,4.400400638580322,-1.7060825824737549
1761330821008087600,2.650087646484375,10.631311416625977,4.060619831085205,-1.0719845294952393
1761330821026788600,2.66878857421875,11.803793907165527,4.299902439117432,-0.6819544434547424
1761330821045489400,2.687489501953125,12.32542896270752,4.383651256561279,-0.33738797903060913
1761330821064190500,2.7061904296875,11.940184593200684,4.216153621673584,-0.19381862878799438
1761330821082891300,2.724891357421875,11.3180513381958,3.7710886001586914,-0.39960137009620667
1761330821101592000,2.743592041015625,10.899307250976562,3.136990547180176,-0.760917603969574
1761330821120292900,2.76229296875,10.442277908325195,2.4670002460479736,-1.2801600694656372
1761330821138994000,2.780993896484375,9.987641334533691,2.1894326210021973,-1.820937991142273
1761330821157694700,2.79969482421875,9.595218658447266,1.9980069398880005,-1.9525432586669922
1761330821176395500,2.8183955078125,9.391828536987305,1.8735800981521606,-1.3926228284835815
1761330821195096300,2.837096435546875,9.284152030944824,1.8496519327163696,-0.607776939868927
1761330821213797400,2.85579736328125,9.028120040893555,2.0793628692626953,-0.24406790733337402
1761330821232498200,2.874498291015625,8.752944946289062,2.3258235454559326,-0.15314064919948578
1761330821251199000,2.893198974609375,8.511270523071289,2.2923240661621094,-0.4019941985607147
1761330821269900000,2.911900146484375,8.228917121887207,2.2779672145843506,-0.6436693072319031
1761330821288600800,2.930600830078125,8.104490280151367,2.6225335597991943,-0.8662018179893494
1761330821307301600,2.949301513671875,7.989634990692139,3.0556344985961914,-0.8925228714942932
1761330821326002700,2.968002685546875,7.276573657989502,3.4576287269592285,-0.8973084688186646
1761330821344703500,2.986703369140625,6.573083877563477,3.9122650623321533,-1.0217353105545044
1761330821363404300,3.005404296875,6.415157318115234,4.163511276245117,-0.8709874153137207
1761330821382105000,3.02410498046875,6.577869415283203,4.041477680206299,-0.48095735907554626
1761330821400806100,3.04280615234375,7.113861560821533,4.0797624588012695,-0.397208571434021
1761330821419507000,3.0615068359375,7.544569969177246,3.964907169342041,-0.4091726839542389
1761330821438208000,3.0802080078125,8.011170387268066,3.82373046875,-0.31345975399017334
1761330821456908800,3.09890869140625,8.561519622802734,3.869194269180298,-0.2512463629245758
1761330821475609600,3.117609619140625,9.145368576049805,4.036691665649414,-0.43549370765686035
1761330821494310400,3.136310302734375,9.628718376159668,4.2209391593933105,-0.6699903607368469
1761330821513011200,3.15501123046875,9.80100154876709,4.18983268737793,-0.6532405614852905
1761330821531712300,3.173712158203125,9.621540069580078,4.326223373413086,-0.6891329288482666
1761330821550413000,3.1924130859375,9.487542152404785,4.548755645751953,-0.46420758962631226
1761330821569114000,3.211114013671875,9.643074989318848,4.599005222320557,-0.20817556977272034
1761330821587815000,3.22981494140625,10.095318794250488,4.273581027984619,0.07657032459974289
1761330821606515700,3.248515625,10.607382774353027,4.051048755645752,0.607776939868927
1761330821625216500,3.267216552734375,11.169695854187012,4.304687976837158,0.8111668825149536
1761330821643917600,3.28591748046875,11.56690502166748,4.800002098083496,0.5455635786056519
1761330821662618400,3.304618408203125,11.904293060302734,4.177868366241455,0.8590233325958252
1761330821681319200,3.323319091796875,12.526426315307617,2.9216363430023193,1.9046868085861206
1761330821700020200,3.342020263671875,13.256237030029297,1.8400806188583374,2.8737800121307373
1761330821718721000,3.360720947265625,13.337593078613281,1.2681959867477417,2.9766714572906494
1761330821737421800,3.379421875,11.789437294006348,1.5744773149490356,2.117648124694824
1761330821756123000,3.398122802734375,9.760323524475098,2.249253273010254,1.0145567655563354
1761330821774823700,3.41682373046875,8.477770805358887,2.5603201389312744,0.6245267391204834
1761330821793524500,3.4355244140625,8.039883613586426,2.4981069564819336,0.6269195079803467
1761330821812225500,3.4542255859375,7.597211837768555,2.3712873458862305,0.760917603969574
1761330821830926300,3.47292626953125,7.027719974517822,2.6536402702331543,0.5431707501411438
1761330821849627100,3.491627197265625,6.608976364135742,2.967100143432617,0.2153540402650833
1761330821868328200,3.510328125,6.63769006729126,3.136990547180176,0.062213387340307236
1761330821887029000,3.529029052734375,6.932007312774658,3.139383316040039,-0.08853443711996078
1761330821905729800,3.547729736328125,7.401000499725342,3.108276605606079,-0.275174617767334
1761330821924430800,3.566430908203125,8.087740898132324,3.1561331748962402,-0.5264210104942322
1761330821943131600,3.585131591796875,8.896514892578125,3.0963125228881836,-0.5359922647476196
1761330821961832400,3.60383251953125,9.233902931213379,2.9527430534362793,-0.38763725757598877
1761330821980533500,3.622533447265625,9.231510162353516,2.895315408706665,-0.2105683982372284
1761330821999234300,3.641234375,9.066405296325684,2.981456995010376,0.07657032459974289
1761330822017935000,3.65993505859375,9.016156196594238,3.10109806060791,0.39481574296951294
1761330822036636200,3.67863623046875,8.85344409942627,3.2614171504974365,0.3565305769443512
1761330822055337000,3.6973369140625,8.752944946289062,3.531806230545044,-0.01196411345154047
1761330822074037800,3.716037841796875,8.683553695678711,3.6681971549987793,-0.20338992774486542
1761330822092738800,3.73473876953125,8.83669376373291,3.8763725757598877,-0.14356936514377594
1761330822111439600,3.753439697265625,9.087940216064453,4.048655986785889,0.038285162299871445
1761330822130140400,3.772140380859375,9.181260108947754,4.223331928253174,0.2153540402650833
1761330822148841500,3.790841552734375,9.154939651489258,4.395615100860596,0.14356936514377594
1761330822167542300,3.809542236328125,9.159725189208984,4.47697114944458,-0.349352091550827
1761330822186243000,3.8282431640625,9.040083885192871,4.285545349121094,-0.8015955686569214
1761330822204944100,3.846944091796875,9.128618240356445,4.015156269073486,-1.1174482107162476
1761330822223645000,3.86564501953125,9.865608215332031,3.28773832321167,-0.8207381963729858
1761330822242346000,3.884345947265625,11.25344467163086,2.974278450012207,-0.5694918036460876
1761330822261046800,3.903046875,12.124432563781738,3.7423746585845947,-0.727418065071106
1761330822279747600,3.92174755859375,11.643474578857422,4.493721008300781,-1.069591760635376
1761330822298448400,3.940448486328125,10.827522277832031,4.517649173736572,-0.5623133182525635
1761330822317149400,3.9591494140625,10.619346618652344,3.809373617172241,0.09810572862625122
1761330822335850200,3.977850341796875,10.683953285217285,2.840280532836914,0.12442677468061447
1761330822354551300,3.99655126953125,10.638489723205566,2.196611166000366,-0.1986042857170105
1761330822373252000,4.015252197265625,10.576275825500488,1.703689694404602,-0.5383850932121277
1761330822391953000,4.033952880859375,10.693524360656738,1.459621787071228,-0.4618147611618042
1761330822410654000,4.052654052734375,10.372885704040527,1.576870083808899,-0.059820566326379776
1761330822429354800,4.071354736328125,9.722038269042969,2.1056840419769287,0.20817556977272034
1761330822448055800,4.090055908203125,8.970691680908203,2.3234307765960693,0.5958128571510315
1761330822466756600,4.108756591796875,8.240880966186523,2.4406790733337402,0.6795616149902344
1761330822485457400,4.12745751953125,7.752745151519775,2.4526431560516357,0.5886343717575073
1761330822504158500,4.146158447265625,7.685746192932129,2.414358139038086,0.31345975399017334
1761330822522859300,4.164859375,7.628318786621094,2.5698914527893066,-0.10767702013254166
1761330822541560000,4.18356005859375,7.518248558044434,2.785245656967163,-0.39960137009620667
1761330822560261000,4.20226123046875,7.3675007820129395,2.9790642261505127,-0.3158525824546814
1761330822578962000,4.2209619140625,7.195217609405518,3.2446675300598145,-0.19621145725250244
1761330822597662700,4.239662841796875,6.994220733642578,3.4815568923950195,-0.09810572862625122
1761330822616363800,4.25836376953125,7.046862602233887,3.672982692718506,-0.09092725813388824
1761330822635064600,4.277064697265625,7.262216567993164,3.893122434616089,-0.2967100143432617
1761330822653765400,4.295765380859375,7.551748275756836,4.06540584564209,-0.5862415432929993
1761330822672466400,4.314466552734375,8.097311973571777,4.201796531677246,-0.729810893535614
1761330822691167200,4.333167236328125,8.994620323181152,4.254438877105713,-0.6149554252624512
1761330822709868300,4.351868408203125,9.681360244750977,4.311866283416748,-0.3158525824546814
1761330822728569000,4.370569091796875,9.944570541381836,4.462614059448242,-0.08135596662759781
1761330822747270000,4.389269775390625,9.812965393066406,4.613361835479736,0.12921242415905
1761330822765971000,4.407970947265625,9.468399047851562,4.859822750091553,0.1339980661869049
1761330822784671700,4.426671630859375,9.169296264648438,5.240281581878662,-0.09092725813388824
1761330822803372500,4.44537255859375,9.43489933013916,5.1876397132873535,-0.10767702013254166
1761330822822073600,4.464073486328125,10.200602531433105,4.510470867156982,0.16031911969184875
1761330822840774700,4.482774658203125,11.636296272277832,4.01037073135376,0.14835500717163086
1761330822859475500,4.501475341796875,12.607782363891602,4.3070807456970215,0.19381862878799438
1761330822878176300,4.52017626953125,11.497512817382812,5.020142078399658,-0.2679961323738098
1761330822896877000,4.538876953125,10.356136322021484,4.615755081176758,-0.5048855543136597
1761330822915578000,4.557578125,10.813165664672852,3.373879909515381,0.11724831163883209
1761330822934279000,4.57627880859375,12.43549919128418,2.0889341831207275,1.1102696657180786
1761330822952980000,4.59497998046875,13.50030517578125,1.3112667798995972,1.6773686408996582
1761330822971680800,4.6136806640625,12.53839111328125,1.5050854682922363,0.7417750358581543
1761330822990381800,4.6323818359375,10.545169830322266,1.730010747909546,-0.2105683982372284
1761330823009082600,4.65108251953125,9.382257461547852,1.7730815410614014,-0.4546363055706024
1761330823027783400,4.669783447265625,8.94676399230957,1.797009825706482,-0.11724831163883209
1761330823046484500,4.688484375,8.310273170471191,1.8424733877182007,0.3206382393836975
1761330823065185300,4.707185302734375,7.590033531188965,2.0171494483947754,0.5982056856155396
1761330823083886000,4.725885986328125,7.496713161468506,2.2301106452941895,0.4905286431312561
1761330823102587100,4.744587158203125,7.700103282928467,2.313859462738037,0.1339980661869049
1761330823121288000,4.763287841796875,7.8317084312438965,2.400001049041748,-0.2727817893028259
1761330823139989000,4.781989013671875,7.6977105140686035,2.6273193359375,-0.6699903607368469
1761330823158689800,4.800689697265625,7.456035137176514,3.0317063331604004,-1.031306505203247
1761330823177390800,4.819390869140625,7.255038261413574,3.297309637069702,-1.00259268283844
1761330823196091600,4.838091552734375,7.293323516845703,3.22552490234375,-0.6364908218383789
1761330823214792400,4.85679248046875,7.755138397216797,3.0101709365844727,-0.275174617767334
1761330823233493500,4.875493408203125,8.484949111938477,2.8666014671325684,0.08135596662759781
1761330823252194300,4.8941943359375,9.298508644104004,2.7565317153930664,0.1986042857170105
1761330823270895400,4.912895263671875,9.779465675354004,2.8187451362609863,0.12681959569454193
1761330823289596200,4.93159619140625,9.7938232421875,3.077169895172119,-0.21774685382843018
1761330823308297000,4.950296875,9.741181373596191,3.263810157775879,-0.10767702013254166
1761330823326998000,4.968998046875,9.425328254699707,3.5054850578308105,0.06939185410737991
1761330823345698800,4.98769873046875,9.056833267211914,3.85483717918396,0.031106693670153618
1761330823364399900,5.00639990234375,8.669196128845215,4.063013076782227,0.14117653667926788
1761330823383100700,5.0251005859375,8.578269004821777,4.321437835693359,-0.10289137065410614
1761330823401801700,5.0438017578125,8.508877754211426,4.42193603515625,-0.7369893789291382
1761330823420502500,5.06250244140625,8.671588897705078,4.508078098297119,-1.3280165195465088
1761330823439203600,5.08120361328125,9.080761909484863,4.137190341949463,-1.2634103298187256
1761330823457904400,5.099904296875,9.702896118164062,3.6059837341308594,-1.1174482107162476
1761330823476605200,5.118605224609375,11.148160934448242,3.594019651412964,-1.3806586265563965
1761330823495306200,5.13730615234375,12.167503356933594,3.84765887260437,-1.4620146751403809
1761330823514007000,5.156007080078125,12.52164077758789,4.015156269073486,-1.3160524368286133
1761330823532708000,5.1747080078125,12.291930198669434,3.2590243816375732,-0.6867401003837585
1761330823551409000,5.193408935546875,12.212966918945312,2.0003998279571533,-0.7226324677467346
1761330823570110000,5.21210986328125,12.227323532104492,0.9092726111412048,-1.0193424224853516
1761330823588810800,5.230810791015625,12.004791259765625,0.45942193269729614,-1.667797327041626
1761330823607511600,5.249511474609375,11.473584175109863,0.27756741642951965,-1.8544375896453857
1761330823626212600,5.268212646484375,10.736595153808594,0.4043870270252228,-1.3830515146255493
1761330823644913400,5.286913330078125,9.762716293334961,0.8973084688186646,-0.5383850932121277
1761330823663614500,5.305614501953125,8.886942863464355,1.1270195245742798,-0.07178468257188797
1761330823682315300,5.324315185546875,8.49452018737793,1.2658032178878784,0.1052841991186142
1761330823701016300,5.343016357421875,8.13798999786377,1.34476637840271,-0.035892341285943985
1761330823719717000,5.361717041015625,7.805387496948242,1.6151553392410278,-0.3517449200153351
1761330823738418200,5.380418212890625,7.611568927764893,2.053041934967041,-0.7417750358581543
1761330823757119000,5.399118896484375,7.29093074798584,2.5052852630615234,-0.763310432434082
1761330823775819800,5.41781982421875,7.018148899078369,3.029313564300537,-0.6508477330207825
1761330823794520800,5.436520751953125,7.0061845779418945,3.390629768371582,-0.2632105052471161
1761330823813221600,5.4552216796875,7.022934436798096,3.5222349166870117,0.08853443711996078
1761330823831922700,5.473922607421875,7.168896675109863,3.617947816848755,-0.059820566326379776
1761330823850623500,5.49262353515625,7.530212879180908,3.4959139823913574,-0.3732803463935852
1761330823869324500,5.511324462890625,7.901100158691406,3.4648072719573975,-0.7489534616470337
1761330823888025300,5.530025390625,8.24566650390625,3.555734395980835,-1.3471591472625732
1761330823906726400,5.548726318359375,8.539983749389648,3.601198196411133,-1.643869161605835
1761330823925427200,5.56742724609375,8.987442016601562,3.7399818897247314,-1.7443677186965942
1761330823944128300,5.586128173828125,9.42772102355957,3.761517286300659,-1.2873386144638062
1761330823962829000,5.6048291015625,9.80100154876709,3.893122434616089,-0.9116654396057129
1761330823981529900,5.62352978515625,10.159924507141113,4.0797624588012695,-0.9020941257476807
1761330824000231000,5.64223095703125,10.226923942565918,4.115654945373535,-0.9762716293334961
1761330824018931700,5.660931640625,10.37767219543457,4.051048755645752,-1.1054840087890625
1761330824037632800,5.6796328125,10.77248764038086,3.7782669067382812,-1.074377417564392
1761330824056333600,5.69833349609375,11.48794174194336,3.376272678375244,-0.6699903607368469
1761330824075034600,5.71703466796875,12.856636047363281,2.4406790733337402,0.1579262912273407
1761330824093735400,5.7357353515625,14.129617691040039,1.7730815410614014,0.5240281820297241
1761330824112436500,5.7544365234375,13.74915885925293,2.1918256282806396,-0.2225325107574463
1761330824131137300,5.77313720703125,12.191431045532227,2.981456995010376,-0.8207381963729858
1761330824149838300,5.79183837890625,11.96172046661377,3.1441688537597656,-0.7106683254241943
1761330824168539100,5.8105390625,12.722638130187988,1.679761528968811,0.4019941985607147
1761330824187240000,5.829239990234375,13.287343978881836,0.4977070987224579,1.1700903177261353
1761330824205941000,5.84794091796875,13.198809623718262,-0.18903298676013947,1.301695466041565
1761330824224642000,5.86664208984375,11.660224914550781,-0.040677983313798904,0.5742774605751038
1761330824243342800,5.8853427734375,9.753145217895508,0.43549370765686035,-0.1698904037475586
1761330824262044000,5.9040439453125,8.334200859069824,0.6747759580612183,-0.3565305769443512
1761330824280744700,5.92274462890625,7.51585578918457,1.0169496536254883,-0.2105683982372284
1761330824299445800,5.94144580078125,7.2813591957092285,1.3184453248977661,0.17706887423992157
1761330824318146600,5.960146484375,7.207181930541992,1.4715858697891235,0.4785645306110382
1761330824336847400,5.978847412109375,7.259823799133301,1.5314065217971802,0.5000999569892883
1761330824355548400,5.99754833984375,7.475177764892578,1.6366907358169556,0.46420758962631226
1761330824374249200,6.016249267578125,7.805387496948242,1.7874385118484497,0.47617170214653015
1761330824392950300,6.0349501953125,8.123632431030273,1.9286150932312012,0.4737788736820221
1761330824411651300,6.0536513671875,7.9968132972717285,2.0315065383911133,0.34217363595962524
1761330824430352100,6.07235205078125,7.659425258636475,2.282752752304077,0.3517449200153351
1761330824449053200,6.09105322265625,7.355536937713623,2.526820659637451,0.17706887423992157
1761330824467754000,6.10975390625,7.312466144561768,2.768495798110962,-0.014356935396790504
1761330824486454800,6.128454833984375,7.680960655212402,2.9958138465881348,0.10289137065410614
1761330824505155800,6.14715576171875,8.008777618408203,3.0723843574523926,0.24646073579788208
1761330824523856600,6.165856689453125,8.178668022155762,3.122633457183838,0.18903298676013947
1761330824542557700,6.1845576171875,8.46580696105957,3.2303106784820557,-0.007178467698395252
1761330824561258500,6.203258544921875,8.913264274597168,3.3690943717956543,-0.28235307335853577
1761330824579959600,6.22195947265625,9.174081802368164,3.6227335929870605,-0.4091726839542389
1761330824598660400,6.240660400390625,9.365508079528809,3.900300979614258,-0.3732803463935852
1761330824617361400,6.259361328125,9.647860527038574,3.9792640209198,-0.17228323221206665
1761330824636062500,6.2780625,10.214960098266602,3.950550079345703,-0.19621145725250244
1761330824654763300,6.29676318359375,10.954341888427734,3.9457645416259766,-0.5910272002220154
1761330824673464000,6.315464111328125,11.48794174194336,3.799802303314209,-1.0336993932724
1761330824692165000,6.3341650390625,11.911471366882324,3.672982692718506,-1.3040883541107178
1761330824710866000,6.352865966796875,12.636496543884277,3.6849467754364014,-1.4333007335662842
1761330824729567000,6.37156689453125,13.232309341430664,3.6777684688568115,-1.1461620330810547
1761330824748267800,6.390267822265625,13.031311988830566,3.6323046684265137,-0.9690931439399719
1761330824766968800,6.40896875,12.375679016113281,3.1992039680480957,-0.638883650302887
1761330824785669600,6.427669677734375,12.129218101501465,2.0721843242645264,0.19381862878799438
1761330824804370700,6.44637060546875,12.16511058807373,1.337587833404541,0.4546363055706024
1761330824823071700,6.46507177734375,12.215359687805176,0.8662018179893494,0.5335994362831116
1761330824841772500,6.4837724609375,11.873186111450195,0.7896314859390259,0.44745782017707825
1761330824860473600,6.5024736328125,11.119446754455566,1.0001999139785767,0.06699903309345245
1761330824879174400,6.52117431640625,10.183853149414062,1.1174482107162476,0.06699903309345245
1761330824897875500,6.53987548828125,9.375079154968262,1.2035897970199585,0.062213387340307236
1761330824916576300,6.558576171875,8.733802795410156,1.301695466041565,-0.062213387340307236
1761330824935277300,6.57727734375,8.24566650390625,1.3782658576965332,-0.41156548261642456
1761330824953978000,6.59597802734375,8.059026718139648,1.301695466041565,-0.7752745151519775
1761330824972679200,6.61467919921875,8.317451477050781,1.275374412536621,-0.9475577473640442
1761330824991380000,6.6333798828125,8.528019905090332,1.3040883541107178,-0.9571290612220764
1761330825010081000,6.6520810546875,8.410771369934082,1.521835207939148,-0.9260223507881165
1761330825028781800,6.67078173828125,8.228917121887207,1.7228323221206665,-1.0217353105545044
1761330825047483000,6.68948291015625,7.929814338684082,1.9764715433120728,-1.1030912399291992
1761330825066184000,6.708183837890625,7.51585578918457,2.2325034141540527,-1.069591760635376
1761330825084884700,6.726884765625,7.1162543296813965,2.586641311645508,-1.0336993932724
1761330825103585500,6.74558544921875,6.790830612182617,2.9862427711486816,-1.0121639966964722
1761330825122286600,6.76428662109375,6.628118515014648,3.16331148147583,-0.8877372145652771
1761330825140987600,6.782987548828125,6.776473522186279,3.2039895057678223,-0.8279166221618652
1761330825159688400,6.8016884765625,7.159325122833252,3.046063184738159,-0.8662018179893494
1761330825178389200,6.82038916015625,7.628318786621094,2.981456995010376,-0.9332008361816406
1761330825197090300,6.83909033203125,7.841279983520508,3.0963125228881836,-1.2203395366668701
1761330825215791400,6.857791259765625,8.066205024719238,3.1728827953338623,-1.3878371715545654
1761330825234492200,6.8764921875,8.23130989074707,3.294916868209839,-1.2035897970199585
1761330825253193200,6.895193115234375,8.48016357421875,3.460021495819092,-0.6771687865257263
1761330825271894000,6.91389404296875,9.05444049835205,3.658625841140747,0.02392822690308094
1761330825290595000,6.932594970703125,9.810572624206543,4.146761417388916,0.27756741642951965
1761330825309295900,6.9512958984375,10.435099601745605,4.618147850036621,0.13639089465141296
1761330825327997000,6.969996826171875,11.002198219299316,4.831109046936035,-0.2679961323738098
1761330825346698000,6.988697998046875,12.447463035583496,4.426722049713135,-0.12681959569454193
1761330825365398800,7.007398681640625,14.266008377075195,3.7974095344543457,0.46420758962631226
1761330825384099800,7.026099853515625,14.888142585754395,3.7878382205963135,0.4307080805301666
1761330825402800600,7.044800537109375,13.926227569580078,3.675375461578369,0.2153540402650833
1761330825421501700,7.063501708984375,12.77049446105957,3.1513473987579346,0.5670989751815796
1761330825440202500,7.082202392578125,12.198610305786133,2.833101987838745,0.7657032608985901
1761330825458903600,7.100903564453125,11.978469848632812,2.3497519493103027,0.7202396392822266
1761330825477604400,7.119604248046875,11.95454216003418,1.9525432586669922,0.8733802437782288
1761330825496305200,7.13830517578125,11.511869430541992,1.765903115272522,1.0001999139785767
1761330825515006200,7.157006103515625,10.870593070983887,1.5936198234558105,0.97148597240448
1761330825533707300,7.175707275390625,10.052248001098633,1.4452649354934692,1.098305583000183
1761330825552408000,7.194407958984375,9.166903495788574,1.4213366508483887,1.2490534782409668
1761330825571109000,7.213109130859375,8.310273170471191,1.6390835046768188,1.031306505203247
1761330825589810200,7.23181005859375,7.458428382873535,1.6701902151107788,0.5407779216766357
1761330825608511000,7.250510986328125,7.080362319946289,1.5026925802230835,-0.0023928226437419653
1761330825627212000,7.2692119140625,7.0995049476623535,1.4404792785644531,-0.32303106784820557
1761330825645912800,7.287912841796875,7.3914289474487305,1.5912270545959473,-0.607776939868927
1761330825664614000,7.30661376953125,7.810173034667969,1.7491533756256104,-0.5312066078186035
1761330825683314700,7.325314697265625,8.085348129272461,1.947757601737976,0.031106693670153618
1761330825702015700,7.344015625,7.886743545532227,2.2085752487182617,0.46420758962631226
1761330825720716800,7.362716796875,7.362715244293213,2.4119651317596436,0.4785645306110382
1761330825739417600,7.38141748046875,6.941578388214111,2.6464617252349854,0.16271193325519562
1761330825758118700,7.40011865234375,6.879364967346191,2.825923442840576,-0.16510476171970367
1761330825776819500,7.4188193359375,6.900900363922119,2.988635540008545,-0.06939185410737991
1761330825795520500,7.4375205078125,7.319644451141357,3.170490026473999,0.4043870270252228
1761330825814221300,7.45622119140625,8.295916557312012,3.2997024059295654,0.9667003750801086
1761330825832922400,7.47492236328125,9.253045082092285,3.2470602989196777,1.1724830865859985
1761330825851623200,7.493623046875,9.604789733886719,3.184846878051758,0.8303094506263733
1761330825870324200,7.51232421875,9.250652313232422,3.1968109607696533,0.5527420043945312
1761330825889025300,7.531025390625,8.6907320022583,3.421736478805542,0.3924229145050049
1761330825907726000,7.54972607421875,8.492127418518066,3.7663028240203857,0.15314064919948578
1761330825926427100,7.56842724609375,8.930013656616211,3.9050865173339844,0.08374879509210587
1761330825945128200,7.587128173828125,9.645467758178711,4.077369689941406,0.05503492057323456
1761330825963829000,7.6058291015625,10.418350219726562,4.244867324829102,0.014356935396790504
1761330825982530000,7.624530029296875,11.169695854187012,4.340580463409424,0.014356935396790504
1761330826001230800,7.64323095703125,11.645867347717285,4.357329845428467,-0.12442677468061447
1761330826019932000,7.661931884765625,12.134003639221191,4.240081787109375,-0.3924229145050049
1761330826038632700,7.6806328125,12.136396408081055,4.3788652420043945,-0.7896314859390259
1761330826057333800,7.699333740234375,11.540583610534668,4.596612453460693,-1.2323036193847656
1761330826076034600,7.71803466796875,11.133803367614746,4.130012035369873,-0.8303094506263733
1761330826094735600,7.736735595703125,11.428120613098145,3.10109806060791,-0.035892341285943985
1761330826113436700,7.755436767578125,12.169896125793457,2.00518536567688,0.2799602448940277
1761330826132137500,7.774137451171875,12.739387512207031,1.4787644147872925,0.10289137065410614
1761330826150838500,7.792838623046875,12.588640213012695,1.4141582250595093,-0.8374879360198975
1761330826169539300,7.811539306640625,11.444870948791504,1.3184453248977661,-1.2681959867477417
1761330826188240400,7.830240478515625,10.411170959472656,1.3663017749786377,-1.1485549211502075
1761330826206941200,7.848941162109375,9.791430473327637,1.435693621635437,-0.7130611538887024
1761330826225642200,7.867642333984375,9.33440113067627,1.5122638940811157,-0.37806597352027893
1761330826244343300,7.88634326171875,8.726624488830566,1.6701902151107788,-0.5048855543136597
1761330826263044400,7.90504443359375,8.061419486999512,1.7539390325546265,-0.8542376756668091
1761330826281745200,7.9237451171875,7.719245910644531,1.8137595653533936,-0.9332008361816406
1761330826300446200,7.9424462890625,7.779066562652588,1.947757601737976,-0.9882357716560364
1761330826319147000,7.96114697265625,7.6737823486328125,2.0865414142608643,-0.9499505758285522
1761330826337848000,7.97984814453125,7.343572616577148,2.4023938179016113,-0.97148597240448
1761330826356548900,7.998548828125,6.778866767883301,2.7278177738189697,-1.1270195245742798
1761330826375250000,8.01725,6.484549522399902,2.9623143672943115,-1.2394821643829346
1761330826393951000,8.035950927734374,6.355337142944336,3.1657042503356934,-1.2035897970199585
1761330826412651800,8.05465185546875,6.664011001586914,3.3068809509277344,-1.1054840087890625
1761330826431352800,8.073352783203125,7.178467750549316,3.4265220165252686,-0.8709874153137207
1761330826450053600,8.0920537109375,7.463213920593262,3.5605201721191406,-0.7106683254241943
1761330826468754700,8.110754638671875,7.606783390045166,3.6849467754364014,-0.8566305041313171
1761330826487455500,8.12945556640625,7.601997375488281,3.617947816848755,-0.9475577473640442
1761330826506156500,8.148156494140625,7.611568927764893,3.728017568588257,-1.0528420209884644
1761330826524857600,8.166857666015625,7.7455668449401855,3.871587038040161,-1.0432707071304321
1761330826543558400,8.185558349609375,8.097311973571777,3.88594388961792,-0.8135597109794617
1761330826562259500,8.204259521484374,8.879764556884766,4.01037073135376,-0.4378865361213684
1761330826580960300,8.222960205078126,9.77707290649414,4.232903480529785,-0.12921242415905
1761330826599661300,8.241661376953125,10.066604614257812,4.579862594604492,-0.21296121180057526
1761330826618362400,8.2603623046875,10.009177207946777,4.996213912963867,-0.7130611538887024
1761330826637063200,8.279063232421874,10.688738822937012,4.773681163787842,-0.7393822073936462
1761330826655764200,8.29776416015625,12.000005722045898,4.206582069396973,-0.28235307335853577
1761330826674465300,8.31646533203125,13.804193496704102,3.82373046875,0.13639089465141296
1761330826693166000,8.335166015625,14.534005165100098,3.735196113586426,0.24646073579788208
1761330826711867100,8.3538671875,13.569697380065918,3.596412420272827,0.1818545162677765
1761330826730568000,8.37256787109375,12.358928680419922,2.988635540008545,0.7226324677467346
1761330826749269000,8.39126904296875,11.509476661682129,2.8211379051208496,0.9810572862625122
1761330826767970000,8.409969970703125,10.990234375,2.5387847423553467,0.6843472719192505
1761330826786670800,8.4286708984375,10.777273178100586,2.1128623485565186,0.5982056856155396
1761330826805372000,8.447371826171874,10.817951202392578,1.9453648328781128,0.5934200286865234
1761330826824072700,8.46607275390625,10.999805450439453,1.5792629718780518,0.760917603969574
1761330826842773800,8.484773681640625,11.018948554992676,1.2729816436767578,0.8374879360198975
1761330826861474800,8.503474853515625,10.581061363220215,1.1772687435150146,0.9020941257476807
1761330826880175600,8.522175537109375,9.475577354431152,1.428515076637268,0.5790630578994751
1761330826898876700,8.540876708984374,8.458627700805664,1.6103696823120117,0.23210379481315613
1761330826917577500,8.559577392578126,8.252845764160156,1.6893328428268433,0.09571290761232376
1761330826936278500,8.578278564453125,8.429914474487305,1.8041882514953613,0.0526420995593071
1761330826954979600,8.5969794921875,8.537590980529785,1.94297194480896,0.08853443711996078
1761330826973680400,8.615680419921874,8.506484031677246,2.045863389968872,0.2679961323738098
1761330826992381400,8.63438134765625,8.420342445373535,2.1511476039886475,0.4713860750198364
1761330827011082200,8.653082275390625,8.166703224182129,2.256431818008423,0.5790630578994751
1761330827029783300,8.671783203125,7.606783390045166,2.4287149906158447,0.6293123364448547
1761330827048484400,8.690484375,6.989434719085693,2.7110681533813477,0.5383850932121277
1761330827067185200,8.70918505859375,6.812366008758545,3.012563705444336,0.3038884699344635
1761330827085886200,8.72788623046875,6.903293132781982,3.2231321334838867,0.31106695532798767
1761330827104587300,8.746587158203125,7.04925537109375,3.3690943717956543,0.3445664644241333
1761330827123288000,8.7652880859375,7.274180889129639,3.572484254837036,0.22013968229293823
1761330827141989000,8.783989013671874,7.618747234344482,3.682554006576538,0.24167509377002716
1761330827160690200,8.802690185546876,8.422736167907715,3.893122434616089,0.4666004180908203
1761330827179391000,8.821390869140625,8.37966537475586,3.9194436073303223,0.5407779216766357
1761330827198092000,8.840092041015625,8.331808090209961,4.115654945373535,0.18424734473228455
1761330827216792800,8.858792724609375,8.908478736877441,4.3788652420043945,0.07657032459974289
1761330827235494000,8.877493896484374,9.870393753051758,4.543970108032227,0.40677985548973083
1761330827254195000,8.89619482421875,10.77248764038086,4.510470867156982,0.7130611538887024
1761330827272895700,8.914895751953125,11.13619613647461,4.278367042541504,0.7800601720809937
1761330827291596800,8.9335966796875,11.648261070251465,4.366901397705078,0.34695929288864136
1761330827310297600,8.952297607421874,11.779866218566895,4.668396949768066,-0.05024927482008934
1761330827328998700,8.97099853515625,11.550154685974121,4.541577339172363,0.07417750358581543
1761330827347700500,8.989700439453125,11.272587776184082,4.5391845703125,0.04785645380616188
1761330827366400500,9.008400390625,10.84427261352539,4.4721856117248535,0.6293123364448547
1761330827385101600,9.0271015625,10.456634521484375,3.8907296657562256,1.495514154434204
1761330827403802400,9.04580224609375,10.813165664672852,3.2231321334838867,1.550549030303955
1761330827422503400,9.06450341796875,11.43529987335205,2.6608188152313232,0.9308080077171326
1761330827441204500,9.08320458984375,11.863615036010742,2.227717876434326,0.11246266216039658
1761330827459905300,9.1019052734375,11.901900291442871,1.8065811395645142,-0.2919243574142456
1761330827478606300,9.1206064453125,11.578868865966797,1.5840486288070679,-0.3732803463935852
1761330827497307100,9.13930712890625,10.801201820373535,1.6606189012527466,-0.05742774158716202
1761330827516008200,9.15800830078125,9.839286804199219,1.8233308792114258,0.1818545162677765
1761330827534709200,9.176709228515625,8.874979019165039,1.9812572002410889,-0.0933200865983963
1761330827553410000,9.19541015625,8.123632431030273,2.1511476039886475,-0.5288137793540955
1761330827572111000,9.214111083984376,7.714460372924805,2.321038007736206,-0.9236295223236084
1761330827590812200,9.232812255859375,7.513463020324707,2.3090739250183105,-1.031306505203247
1761330827609513000,9.251512939453125,7.372286796569824,2.3545374870300293,-0.9308080077171326
1761330827628214000,9.270214111328125,7.188039302825928,2.6536402702331543,-0.849452018737793
1761330827646915000,9.2889150390625,7.10429048538208,2.967100143432617,-0.8063812255859375
1761330827665616000,9.307615966796876,7.085147857666016,3.2446675300598145,-0.7776673436164856
1761330827684317000,9.32631689453125,6.905686378479004,3.5030922889709473,-0.9236295223236084
1761330827703017700,9.345017822265625,6.754938125610352,3.6705899238586426,-0.9068797826766968
1761330827721718800,9.36371875,6.778866767883301,3.730410575866699,-0.5862415432929993
1761330827740419800,9.382419921875,6.702296257019043,3.8021950721740723,-0.27038896083831787
1761330827759120600,9.40112060546875,6.8482584953308105,3.9529430866241455,-0.4378865361213684
1761330827777821700,9.41982177734375,7.341179847717285,3.8356947898864746,-0.5312066078186035
1761330827796522800,9.438522705078125,7.850851058959961,3.7088751792907715,-0.4785645306110382
1761330827815223600,9.4572236328125,8.506484031677246,3.806980848312378,-0.4785645306110382
1761330827833924600,9.475924560546876,8.755337715148926,4.089334011077881,-0.32303106784820557
1761330827852625700,9.494625732421875,8.609375953674316,4.491328239440918,-0.08853443711996078
1761330827871326500,9.513326416015625,8.484949111938477,4.847858905792236,0.20817556977272034
1761330827890027500,9.532027587890624,8.673981666564941,5.166104316711426,0.45224347710609436
1761330827908728300,9.550728271484376,8.95394229888916,5.3694939613342285,0.5599204897880554
1761330827927429400,9.569429443359375,9.549755096435547,5.575276851654053,0.5312066078186035
1761330827946130400,9.58813037109375,10.415956497192383,5.335994720458984,0.849452018737793
1761330827964831200,9.606831298828125,11.432906150817871,5.091926574707031,1.222732424736023
1761330827983532300,9.6255322265625,12.485748291015625,5.010570526123047,1.4620146751403809
1761330828002233000,9.644233154296876,12.859028816223145,4.644468784332275,1.8089739084243774
1761330828020934100,9.66293408203125,12.356535911560059,4.208974838256836,2.093719720840454
1761330828039635200,9.68163525390625,11.633903503417969,3.9218363761901855,2.0267207622528076
1761330828058336000,9.7003359375,11.387442588806152,3.5222349166870117,1.4811571836471558
1761330828077037000,9.719037109375,11.92343521118164,2.9694929122924805,1.0360921621322632
1761330828095737900,9.73773779296875,12.411571502685547,2.227717876434326,1.0815558433532715
1761330828114439000,9.75643896484375,12.720245361328125,1.7467604875564575,1.428515076637268
1761330828133140000,9.775139892578125,12.459427833557129,1.3423734903335571,2.007578134536743
1761330828151840800,9.7938408203125,11.542976379394531,1.2323036193847656,2.2636101245880127
1761330828170541800,9.812541748046876,10.269994735717773,1.2610175609588623,2.1415762901306152
1761330828189243000,9.831242919921875,9.020941734313965,1.4883357286453247,1.7874385118484497
1761330828207944000,9.84994384765625,8.243273735046387,1.7778671979904175,1.31365966796875
1761330828226644700,9.868644775390624,7.865208148956299,1.8831514120101929,0.8638089895248413
1761330828245345800,9.887345703125,7.657032489776611,1.911865234375,0.7393822073936462
1761330828264046600,9.906046630859375,7.561319351196289,2.1511476039886475,0.7369893789291382
1761330828282747600,9.92474755859375,7.365108013153076,2.445464849472046,0.7872386574745178
1761330828301448700,9.94344873046875,7.262216567993164,2.713460922241211,0.727418065071106
1761330828320149500,9.9621494140625,7.226324558258057,2.974278450012207,0.7417750358581543
1761330828338850600,9.9808505859375,7.0301127433776855,3.208775281906128,0.7226324677467346
1761330828357551600,9.999551513671875,6.747759819030762,3.373879909515381,0.5886343717575073
1761330828376252400,10.01825244140625,6.709474563598633,3.4719855785369873,0.7393822073936462
1761330828394953500,10.036953369140624,7.087540626525879,3.570091485977173,1.0001999139785767
1761330828413654300,10.055654296875,7.417750358581543,3.6323046684265137,0.9978070259094238
1761330828432355300,10.074355224609375,7.611568927764893,3.7423746585845947,0.7992027401924133
1761330828451056400,10.093056396484375,7.692924976348877,3.869194269180298,0.8566305041313171
1761330828469757200,10.111757080078124,7.800601959228516,4.070191383361816,0.9475577473640442
1761330828488458200,10.130458251953126,7.9968132972717285,4.304687976837158,0.9403793215751648
1761330828507159000,10.149158935546875,8.200202941894531,4.577469825744629,0.8255237936973572
1761330828525860000,10.167860107421875,8.24566650390625,4.713860511779785,0.6293123364448547
1761330828544561200,10.18656103515625,8.171489715576172,4.965106964111328,0.35413774847984314
1761330828563262000,10.205261962890624,8.291130065917969,5.312066078186035,0.23210379481315613
1761330828581963000,10.223962890625,8.635697364807129,5.453242778778076,0.20578274130821228
1761330828600663800,10.242663818359375,9.250652313232422,5.529813289642334,-0.019142581149935722
1761330828619364900,10.26136474609375,10.243673324584961,5.395814895629883,-0.05742774158716202
1761330828638066000,10.28006591796875,10.971092224121094,5.1565327644348145,-0.016749758273363113
1761330828656766700,10.2987666015625,11.385049819946289,5.178068161010742,-0.10289137065410614
1761330828675467800,10.3174677734375,11.60279655456543,5.589633464813232,-0.4426721930503845
1761330828694168800,10.3361689453125,11.095519065856934,5.525027275085449,-0.7058826684951782
1761330828712869600,10.35486962890625,10.899307250976562,4.95074987411499,-0.5886343717575073
1761330828731570700,10.37357080078125,11.521441459655762,3.871587038040161,0.45942193269729614
1761330828750271700,10.392271728515626,12.614960670471191,2.9216363430023193,1.3160524368286133
1761330828768972500,10.41097265625,13.35434341430664,2.0410776138305664,1.5696916580200195
1761330828787673600,10.429673583984375,13.095918655395508,1.6534404754638672,0.9308080077171326
1761330828806374700,10.448374755859374,11.940184593200684,1.765903115272522,0.26560330390930176
1761330828825075500,10.467075439453126,10.578668594360352,2.038684844970703,0.4019941985607147
1761330828843776500,10.485776611328125,9.446864128112793,2.0482561588287354,0.698704183101654
1761330828862477600,10.5044775390625,8.602197647094727,1.9525432586669922,0.5527420043945312
1761330828881178400,10.523178466796875,8.281558990478516,1.9621145725250244,-0.11724831163883209
1761330828899879400,10.54187939453125,8.090133666992188,2.0267207622528076,-0.6556333899497986
1761330828918580200,10.560580322265626,8.063812255859375,2.2540390491485596,-0.794417142868042
1761330828937281300,10.57928125,8.068597793579102,2.4502503871917725,-0.4307080805301666
1761330828955982300,10.597982421875,8.133204460144043,2.715853691101074,0.06699903309345245
1761330828974683100,10.61668310546875,7.848458290100098,2.943171739578247,0.2512463629245758
1761330828993384200,10.63538427734375,7.350750923156738,3.1513473987579346,0.11246266216039658
1761330829012085000,10.6540849609375,6.97268533706665,3.4193434715270996,-0.1698904037475586
1761330829030786000,10.6727861328125,6.709474563598633,3.625126361846924,-0.4259224236011505
1761330829049487000,10.691487060546875,6.656832695007324,3.7232320308685303,-0.7322037220001221
1761330829068188000,10.71018798828125,6.750152587890625,3.6059837341308594,-0.638883650302887
1761330829086889000,10.728888916015626,7.137789726257324,3.6131622791290283,-0.4498506486415863
1761330829105589800,10.74758984375,7.824530124664307,3.596412420272827,-0.3732803463935852
1761330829124290800,10.766290771484375,8.623732566833496,3.2303106784820557,-0.33020952343940735
1761330829142992000,10.784991943359374,8.563912391662598,3.9194436073303223,-1.222732424736023
1761330829161692700,10.803692626953126,7.523034572601318,4.347758769989014,-1.5146567821502686
1761330829180393700,10.822393798828125,7.946564197540283,3.9457645416259766,-0.44027936458587646
1761330829199094500,10.841094482421875,8.6907320022583,3.809373617172241,-0.3206382393836975
