time,seconds_elapsed,z,y,x
1761334231196122000,0.0821220703125,9.934999465942383,5.036891460418701,-1.1222338676452637
1761334231214823700,0.10082373046875,8.930013656616211,5.190032482147217,-1.1222338676452637
1761334231233525000,0.11952490234375,7.04925537109375,5.144568920135498,-1.0504491329193115
1761334231252226300,0.138226318359375,6.269195556640625,5.106283664703369,-0.43549370765686035
1761334231270928000,0.156927978515625,6.302694797515869,5.443671703338623,0.6340979933738708
1761334231289629200,0.175629150390625,5.79063081741333,5.07517671585083,1.5026925802230835
1761334231308330800,0.194330810546875,6.415157318115234,4.211368083953857,0.5264210104942322
1761334231327032300,0.2130322265625,6.675975322723389,3.160918712615967,-0.4091726839542389
1761334231345733600,0.231733642578125,6.173482418060303,2.462214469909668,-0.607776939868927
1761334231364435200,0.250435302734375,5.3934221267700195,1.6390835046768188,-1.0145567655563354
1761334231383136500,0.269136474609375,5.67338228225708,1.828116536140442,-0.11964113265275955
1761334231401838000,0.287838134765625,7.8628153800964355,2.579462766647339,0.7968099117279053
1761334231420539400,0.306539306640625,8.870193481445312,3.1034910678863525,1.588834285736084
1761334231439241000,0.325240966796875,8.26241683959961,3.25663161277771,1.9836499691009521
1761334231457942300,0.3439423828125,6.597012042999268,6.290730953216553,-1.5098711252212524
1761334231476643800,0.362643798828125,9.492327690124512,7.501499176025391,-5.154139995574951
1761334231495345200,0.38134521484375,10.3681001663208,6.0849480628967285,-3.665804386138916
1761334231514046700,0.400046630859375,13.694124221801758,6.448657035827637,-1.6342978477478027
1761334231532748000,0.418748046875,18.965511322021484,7.219145774841309,-1.6965112686157227
1761334231551449600,0.43744970703125,18.8721923828125,10.992627143859863,-0.6101697683334351
1761334231570151000,0.45615087890625,19.25265121459961,11.23908805847168,-1.1222338676452637
1761334231588852500,0.4748525390625,19.592432022094727,10.518848419189453,-0.6771687865257263
1761334231607553800,0.4935537109375,18.967905044555664,8.963513374328613,2.2396819591522217
1761334231626255400,0.51225537109375,15.481562614440918,7.456035137176514,3.8572301864624023
1761334231644956700,0.530956787109375,10.183853149414062,5.31685209274292,2.421536445617676
1761334231663658200,0.549658203125,8.049455642700195,2.6009981632232666,1.3280165195465088
1761334231682359600,0.568359619140625,7.544569969177246,0.7752745151519775,-0.3326023519039154
1761334231701061000,0.58706103515625,5.850451469421387,-0.41156548261642456,0.0933200865983963
1761334231719762400,0.605762451171875,2.68953275680542,-1.062413215637207,-0.035892341285943985
1761334231738464000,0.624464111328125,-0.8398807644844055,-1.5337992906570435,-1.5720844268798828
1761334231757165300,0.643165283203125,-3.074777126312256,-1.9357935190200806,-1.832902193069458
1761334231775867000,0.661866943359375,-3.8596229553222656,-1.6917256116867065,-2.0745773315429688
1761334231794568200,0.680568115234375,-3.9768712520599365,-1.6366907358169556,-1.4261223077774048
1761334231813269800,0.699269775390625,-1.4572290182113647,-1.2658032178878784,-1.9525432586669922
1761334231831971000,0.71797119140625,-1.0217353105545044,-1.1270195245742798,0.05503492057323456
1761334231850672600,0.736672607421875,1.306481122970581,-0.2584248483181,0.760917603969574
1761334231869374200,0.755374267578125,3.421736478805542,0.16749759018421173,2.194218397140503
1761334231888075500,0.774075439453125,6.333801746368408,1.4404792785644531,3.046063184738159
1761334231906776800,0.79277685546875,10.691131591796875,3.696911096572876,3.0077781677246094
1761334231925478400,0.811478515625,17.328821182250977,7.087540626525879,3.862015724182129
1761334231944179700,0.8301796875,22.31546401977539,11.607583045959473,1.856830358505249
1761334231962881300,0.84888134765625,22.04986000061035,16.285551071166992,0.916451096534729
1761334231981582800,0.867582763671875,20.252851486206055,19.472789764404297,4.453042984008789
1761334232000284200,0.8862841796875,23.885154724121094,18.046669006347656,8.642875671386719
1761334232018985500,0.9049853515625,28.235307693481445,15.517455101013184,12.882957458496094
1761334232037687000,0.92368701171875,27.857240676879883,11.468798637390137,11.112268447875977
1761334232056388400,0.942388427734375,20.796022415161133,7.274180889129639,4.981856822967529
1761334232075090000,0.96108984375,10.705488204956055,2.5938198566436768,0.0023928226437419653
1761334232093791500,0.97979150390625,2.6967110633850098,-0.9547362327575684,-2.4335005283355713
1761334232112492800,0.998492919921875,-2.2396819591522217,-3.5126636028289795,-3.438486099243164
1761334232131194000,1.017194091796875,-5.9437713623046875,-4.1419758796691895,-2.6464617252349854
1761334232149895700,1.035895751953125,-7.348358154296875,-4.244867324829102,-2.304288148880005
1761334232168597000,1.054596923828125,-6.479763507843018,-3.957728624343872,-3.342773199081421
1761334232187298600,1.073298583984375,-4.713860511779785,-3.555734395980835,-3.634697675704956
1761334232206000000,1.092000244140625,-2.7637102603912354,-2.909672260284424,-2.6464617252349854
1761334232224701400,1.110701416015625,-0.46899324655532837,-2.0578274726867676,-0.3517449200153351
1761334232243402800,1.12940283203125,2.4741785526275635,-1.191625714302063,1.3543375730514526
1761334232262104300,1.148104248046875,4.706682205200195,-0.16271193325519562,2.2851455211639404
1761334232280806000,1.166805908203125,5.522634506225586,0.8374879360198975,2.847458839416504
1761334232299507200,1.185507080078125,6.599404811859131,2.084148406982422,1.8065811395645142
1761334232318208800,1.204208740234375,9.339186668395996,4.240081787109375,1.2346965074539185
1761334232336910000,1.22291015625,15.694523811340332,7.621140003204346,3.014956474304199
1761334232355611400,1.241611328125,18.393627166748047,12.052647590637207,2.0673987865448
1761334232374313000,1.26031298828125,18.867406845092773,16.132410049438477,-0.32542386651039124
1761334232393014500,1.2790146484375,20.20020866394043,18.55155372619629,-0.3613162338733673
1761334232411715800,1.2977158203125,22.1551456451416,18.874584197998047,-0.3397808074951172
1761334232430417400,1.31641748046875,24.751358032226562,16.979469299316406,4.668396949768066
1761334232449118700,1.33511865234375,28.62055206298828,15.144174575805664,9.580862045288086
1761334232467820000,1.353820068359375,24.394826889038086,10.942378044128418,7.063612461090088
1761334232486521600,1.372521484375,16.151552200317383,6.5874409675598145,2.610569477081299
1761334232505223200,1.39122314453125,8.717052459716797,2.122433662414551,0.6604190468788147
1761334232523924500,1.409924560546875,1.978864312171936,-1.5146567821502686,-0.9810572862625122
1761334232542625800,1.428625732421875,-3.8261234760284424,-3.500699520111084,-2.438286304473877
1761334232561327400,1.447327392578125,-7.35314416885376,-4.125226020812988,-3.596412420272827
1761334232580028700,1.466028564453125,-7.82692289352417,-3.759124279022217,-4.096512317657471
1761334232598730200,1.484730224609375,-6.314659118652344,-3.3092737197875977,-3.6323046684265137
1761334232617431800,1.503431884765625,-3.81655216217041,-2.5986053943634033,-2.4909284114837646
1761334232636133000,1.522133056640625,-1.1437692642211914,-1.8759729862213135,-0.45224347710609436
1761334232654834400,1.54083447265625,1.820937991142273,-1.2275179624557495,1.9453648328781128
1761334232673536000,1.559535888671875,3.9936211109161377,-0.6029912829399109,3.239881753921509
1761334232692237300,1.5782373046875,4.981856822967529,-0.02392822690308094,3.1034910678863525
1761334232710939000,1.59693896484375,4.610969066619873,0.8877372145652771,2.6488547325134277
1761334232729640400,1.615640380859375,4.565505504608154,2.2372891902923584,1.277767300605774
1761334232748341800,1.634341796875,6.821937561035156,3.397808074951172,1.3256237506866455
1761334232767043000,1.65304296875,11.753544807434082,6.271588325500488,2.768495798110962
1761334232785744600,1.67174462890625,19.38425636291504,9.77707290649414,3.91705060005188
1761334232804446000,1.690446044921875,20.7840576171875,13.265809059143066,-0.3756731450557709
1761334232823147500,1.7091474609375,17.905492782592773,17.520246505737305,-3.735196113586426
1761334232841849000,1.72784912109375,18.015562057495117,20.102102279663086,-3.8261234760284424
1761334232860550400,1.74655029296875,19.817358016967773,18.52044677734375,0.28235307335853577
1761334232879251700,1.765251708984375,28.508089065551758,15.414563179016113,9.200403213500977
1761334232897953300,1.783953369140625,30.54916763305664,13.031311988830566,11.131410598754883
1761334232916654800,1.80265478515625,23.26302146911621,9.698110580444336,8.015955924987793
1761334232935356200,1.821356201171875,11.983255386352539,5.9509501457214355,5.489135265350342
1761334232954057500,1.840057373046875,0.5431707501411438,1.6654045581817627,2.0721843242645264
1761334232972759000,1.858759033203125,-5.304887771606445,-2.091326951980591,-1.8305093050003052
1761334232991460400,1.87746044921875,-6.321837425231934,-3.617947816848755,-4.216153621673584
1761334233010162000,1.896161865234375,-6.1328043937683105,-3.6370904445648193,-4.572684288024902
1761334233028863500,1.914863525390625,-5.824130535125732,-3.2757742404937744,-3.4911282062530518
1761334233047564800,1.933564697265625,-4.778466701507568,-2.6967110633850098,-3.0005996227264404
1761334233066266000,1.95226611328125,-3.0484559535980225,-2.115255117416382,-1.9860427379608154
1761334233084967700,1.9709677734375,-0.5024927258491516,-1.3878371715545654,-0.20338992774486542
1761334233103669000,1.9896689453125,2.555534601211548,-0.7417750358581543,2.115255117416382
1761334233122370600,2.00837060546875,4.840680122375488,0.17946170270442963,3.326023578643799
1761334233141072000,2.02707177734375,5.54177713394165,1.0480563640594482,3.2614171504974365
1761334233159773400,2.0457734375,5.264209747314453,1.8975083827972412,2.794816732406616
1761334233178474800,2.064474853515625,5.044070243835449,2.5076780319213867,1.9597218036651611
1761334233197176300,2.08317626953125,6.781259536743164,3.3164522647857666,1.4021940231323242
1761334233215877600,2.101877685546875,10.796415328979492,5.840879917144775,1.7611174583435059
1761334233234579200,2.1205791015625,17.070396423339844,10.667202949523926,2.0961127281188965
1761334233253280500,2.139280517578125,17.51067543029785,14.859428405761719,-1.7587246894836426
1761334233271982000,2.157982177734375,14.751751899719238,19.0588321685791,-5.402993679046631
1761334233290683400,2.176683349609375,16.24247932434082,19.482362747192383,-4.254438877105713
1761334233309385000,2.195385009765625,24.87099838256836,16.319049835205078,4.381258487701416
1761334233328086300,2.214086181640625,36.5718994140625,12.717852592468262,13.15813159942627
1761334233346787800,2.232787841796875,34.23411178588867,11.557332992553711,11.763115882873535
1761334233365489200,2.2514892578125,23.411376953125,9.872786521911621,6.484549522399902
1761334233384190700,2.270190673828125,10.691131591796875,6.774080753326416,3.10109806060791
1761334233402892000,2.28889208984375,0.3565305769443512,2.493321180343628,0.9379864931106567
1761334233421593600,2.307593505859375,-3.9433717727661133,-1.5385849475860596,-1.6941183805465698
1761334233440295000,2.326294921875,-4.527220249176025,-3.462414264678955,-3.146561861038208
1761334233458996500,2.34499658203125,-4.618147850036621,-4.019941806793213,-3.7639100551605225
1761334233477697800,2.36369775390625,-5.285745143890381,-3.8907296657562256,-3.7902309894561768
1761334233496399400,2.3823994140625,-5.496313571929932,-3.201596736907959,-3.5341989994049072
1761334233515100700,2.4011005859375,-4.646861553192139,-2.510071039199829,-2.7565317153930664
1761334233533802200,2.41980224609375,-2.6273193359375,-2.117648124694824,-0.7680960893630981
1761334233552503600,2.438503662109375,0.06939185410737991,-1.1653046607971191,1.5792629718780518
1761334233571205000,2.457205078125,2.1511476039886475,-0.48095735907554626,2.8594231605529785
1761334233589906400,2.475906494140625,2.885744094848633,0.30149564146995544,2.912065267562866
1761334233608607700,2.494607666015625,2.610569477081299,0.8350951075553894,2.981456995010376
1761334233627309300,2.513309326171875,3.211168050765991,1.5337992906570435,1.919043779373169
1761334233646011000,2.532010986328125,6.247660160064697,2.9288148880004883,0.8877372145652771
1761334233664712200,2.550712158203125,13.713266372680664,5.630311489105225,2.431107759475708
1761334233683413500,2.56941357421875,23.13381004333496,9.324830055236816,3.7399818897247314
1761334233702115000,2.588114990234375,20.941984176635742,13.450056076049805,-1.3854442834854126
1761334233720816400,2.60681640625,14.017154693603516,18.721445083618164,-6.714260101318359
1761334233739518000,2.62551806640625,12.009576797485352,19.810178756713867,-8.764909744262695
1761334233758219500,2.644219482421875,18.680767059326172,16.692331314086914,0.04307080805301666
1761334233776920800,2.6629208984375,32.98745346069336,11.375478744506836,9.805787086486816
1761334233795622100,2.6816220703125,30.288349151611328,8.719446182250977,9.207581520080566
1761334233814323700,2.70032373046875,17.39821434020996,7.501499176025391,4.9124650955200195
1761334233833025000,2.71902490234375,6.833901405334473,4.73300313949585,1.2299108505249023
1761334233851726600,2.7377265625,2.7086751461029053,1.97407865524292,-0.3326023519039154
1761334233870428000,2.756427978515625,0.916451096534729,0.13160525262355804,0.2105683982372284
1761334233889129500,2.77512939453125,0.7178468108177185,-0.5599204897880554,0.8039883971214294
1761334233907830800,2.793830810546875,0.8183453679084778,-0.6101697683334351,0.11006984114646912
1761334233926532400,2.812532470703125,0.1052841991186142,-0.6101697683334351,-1.0671988725662231
1761334233945233700,2.831233642578125,-0.519242525100708,-0.5575276613235474,-1.8041882514953613
1761334233963935200,2.849935302734375,-0.5120640397071838,-0.4450650215148926,-2.0315065383911133
1761334233982636500,2.868636474609375,-0.22013968229293823,-0.29431718587875366,-1.4691931009292603
1761334234001338000,2.887338134765625,0.20338992774486542,0.13639089465141296,-0.3445664644241333
1761334234020039400,2.906039306640625,1.2442678213119507,0.3326023519039154,0.6125625967979431
1761334234038741000,2.924740966796875,2.383251428604126,0.7202396392822266,1.0504491329193115
1761334234057442300,2.9434423828125,3.5198421478271484,0.851844847202301,1.1629117727279663
1761334234076143900,2.962143798828125,5.67338228225708,1.2418749332427979,1.3782658576965332
1761334234094845200,2.98084521484375,9.401400566101074,2.352144718170166,2.912065267562866
1761334234113546500,2.99954638671875,16.467405319213867,4.297509670257568,3.510270833969116
1761334234132248000,3.018248046875,21.41097640991211,7.920242786407471,1.526620864868164
1761334234150949600,3.03694970703125,20.678773880004883,13.280165672302246,-2.667997360229492
1761334234169651000,3.05565087890625,25.036104202270508,17.304893493652344,-3.153740167617798
1761334234188352300,3.074352294921875,29.29293441772461,16.704294204711914,0.2560320198535919
1761334234207053800,3.0930537109375,25.399812698364258,14.943177223205566,5.015356063842773
1761334234225755100,3.111755126953125,21.521047592163086,14.155939102172852,9.241081237792969
1761334234244456700,3.130456787109375,16.49372673034668,11.552547454833984,6.065805435180664
1761334234263158300,3.149158203125,12.409177780151367,7.312466144561768,2.885744094848633
1761334234281859600,3.167859619140625,10.77248764038086,2.785245656967163,2.4813570976257324
1761334234300561000,3.186560791015625,7.154539585113525,-0.5359922647476196,1.6079767942428589
1761334234319262500,3.205262451171875,0.9212366938591003,-2.0267207622528076,0.4618147611618042
1761334234337963800,3.2239638671875,-4.603790760040283,-2.366501569747925,-1.4261223077774048
1761334234356665300,3.242665283203125,-6.922435760498047,-2.6153552532196045,-2.9048867225646973
1761334234375366700,3.26136669921875,-6.331408500671387,-2.56510591506958,-2.6273193359375
1761334234394068200,3.280068115234375,-4.991427898406982,-2.4287149906158447,-2.007578134536743
1761334234412769500,3.29876953125,-3.0867412090301514,-2.187039852142334,-1.734796404838562
1761334234431471000,3.31747119140625,-0.8781659007072449,-1.6103696823120117,-1.4189438819885254
1761334234450172400,3.33617236328125,1.0552347898483276,-0.9834501147270203,-0.6867401003837585
1761334234468874000,3.3548740234375,2.572284460067749,-0.1746760457754135,0.42352959513664246
1761334234487575300,3.3735751953125,3.352344512939453,0.6436693072319031,2.155933141708374
1761334234506276900,3.39227685546875,3.3020951747894287,1.3758729696273804,2.335394859313965
1761334234524978200,3.410978271484375,3.7806596755981445,2.2205393314361572,2.100898265838623
1761334234543679700,3.4296796875,6.120840549468994,3.3092737197875977,2.0721843242645264
1761334234562381000,3.448381103515625,12.299108505249023,5.8959150314331055,2.8139593601226807
1761334234581082600,3.46708251953125,19.209579467773438,10.14317512512207,3.1417760848999023
1761334234599784000,3.485783935546875,20.7242374420166,15.110674858093262,0.06699903309345245
1761334234618485200,3.5044853515625,20.53520393371582,18.336200714111328,-2.4430718421936035
1761334234637186800,3.523186767578125,22.059431076049805,18.494125366210938,-3.19441819190979
1761334234655888400,3.541888427734375,26.11048126220703,15.866806983947754,1.1198409795761108
1761334234674589700,3.560589599609375,34.97349548339844,13.225131034851074,10.908878326416016
1761334234693291000,3.579291015625,29.869604110717773,12.038290977478027,10.12881851196289
1761334234711992600,3.59799267578125,17.974884033203125,9.556933403015137,5.175675392150879
1761334234730694000,3.61669384765625,8.214560508728027,5.869594097137451,3.538984775543213
1761334234749395500,3.6353955078125,2.909672260284424,1.4093725681304932,2.210968017578125
1761334234768096800,3.6540966796875,-0.3445664644241333,-1.4979069232940674,-0.6580262184143066
1761334234786798300,3.67279833984375,-3.7495529651641846,-2.675175666809082,-2.737389087677002
1761334234805499600,3.691499755859375,-6.233303070068359,-2.816352367401123,-4.256831645965576
1761334234824201200,3.710201171875,-6.922435760498047,-2.8809585571289062,-4.596612453460693
1761334234842902500,3.728902587890625,-6.159125328063965,-3.091526746749878,-3.9672999382019043
1761334234861604000,3.74760400390625,-3.924229145050049,-3.115455150604248,-3.0029923915863037
1761334234880305400,3.766305419921875,-1.153340458869934,-2.7421748638153076,-1.852044701576233
1761334234899007000,3.785007080078125,1.3854442834854126,-2.1272194385528564,-0.12203395366668701
1761334234917708300,3.803708251953125,3.0005996227264404,-1.0504491329193115,1.8376877307891846
1761334234936409600,3.82240966796875,3.924229145050049,0.24646073579788208,2.801995277404785
1761334234955111200,3.841111083984375,4.163511276245117,1.4428720474243164,3.3882367610931396
1761334234973812700,3.859812744140625,5.26899528503418,2.809173822402954,3.050848960876465
1761334234992514000,3.87851416015625,8.903693199157715,5.01296329498291,2.912065267562866
1761334235011215400,3.89721533203125,14.057832717895508,8.73619556427002,2.794816732406616
1761334235029917000,3.9159169921875,17.611175537109375,12.77767276763916,1.9812572002410889
1761334235048618500,3.934618408203125,17.474782943725586,17.388641357421875,-3.046063184738159
1761334235067319800,3.95331982421875,16.649259567260742,19.092330932617188,-5.79780912399292
1761334235086021000,3.972021240234375,17.867206573486328,18.077775955200195,-4.323830604553223
1761334235104722700,3.99072265625,29.857641220092773,13.081561088562012,4.3310089111328125
1761334235123424000,4.009424072265625,37.780277252197266,11.511869430541992,12.1866455078125
1761334235142125600,4.02812548828125,27.543781280517578,10.853843688964844,10.796415328979492
1761334235160827000,4.046826904296875,14.026726722717285,8.86780071258545,5.565705299377441
1761334235179528400,4.065528564453125,4.1730828285217285,5.5345988273620605,3.7112679481506348
1761334235198229800,4.084229736328125,-1.5242279767990112,2.0961127281188965,2.280359983444214
1761334235216931300,4.102931396484375,-4.247260093688965,-0.7920243144035339,-0.4570291340351105
1761334235235632600,4.121632568359375,-4.517649173736572,-2.416750907897949,-3.304488182067871
1761334235254334200,4.140334228515625,-5.0703911781311035,-3.1441688537597656,-4.847858905792236
1761334235273035500,4.159035400390625,-5.304887771606445,-3.5030922889709473,-5.257031440734863
1761334235291736800,4.17773681640625,-4.479363918304443,-3.5126636028289795,-4.661218643188477
1761334235310438400,4.1964384765625,-2.5363919734954834,-3.297309637069702,-3.3068809509277344
1761334235329139700,4.2151396484375,-0.3278166949748993,-2.550748825073242,-0.7992027401924133
1761334235347841300,4.23384130859375,1.9453648328781128,-1.5098711252212524,1.6821542978286743
1761334235366542800,4.25254296875,3.469592809677124,-0.059820566326379776,3.517449378967285
1761334235385244200,4.271244140625,4.515256404876709,1.5912270545959473,4.0558342933654785
1761334235403945500,4.289945556640625,6.221338748931885,3.82373046875,4.005585193634033
1761334235422647000,4.30864697265625,10.04985523223877,7.094718933105469,3.680161237716675
1761334235441348400,4.327348388671875,15.416955947875977,11.365907669067383,3.13220477104187
1761334235460050000,4.3460498046875,18.075382232666016,16.07976722717285,-0.9762716293334961
1761334235478751200,4.364751220703125,19.558931350708008,19.142581939697266,-3.799802303314209
1761334235497452800,4.383452880859375,20.11406707763672,19.2933292388916,-3.682554006576538
1761334235516154000,4.402154052734375,19.331613540649414,17.036897659301758,-1.1772687435150146
1761334235534855700,4.420855712890625,27.062824249267578,13.373485565185547,9.889535903930664
1761334235553557000,4.439556884765625,26.63450813293457,11.313265800476074,13.672588348388672
1761334235572258600,4.458258544921875,15.25903034210205,9.140582084655762,9.128618240356445
1761334235590959900,4.4769599609375,5.2283172607421875,5.855237007141113,4.646861553192139
1761334235609661400,4.495661376953125,-0.16749759018421173,2.5603201389312744,1.2849457263946533
1761334235628362800,4.51436279296875,-1.576870083808899,-0.35413774847984314,-0.8590233325958252
1761334235647064300,4.533064208984375,-2.043470621109009,-1.8424733877182007,-1.9692929983139038
1761334235665765600,4.551765625,-3.2374889850616455,-2.210968017578125,-2.2636101245880127
1761334235684467200,4.57046728515625,-4.524827480316162,-2.249253273010254,-2.5914268493652344
1761334235703168500,4.58916845703125,-4.965106964111328,-2.0195422172546387,-2.9048867225646973
1761334235721869800,4.607869873046875,-3.304488182067871,-1.6845471858978271,-2.8450660705566406
1761334235740571400,4.6265712890625,-0.7824530005455017,-1.275374412536621,-1.8831514120101929
1761334235759273000,4.64527294921875,1.674975872039795,-0.6604190468788147,-0.47617170214653015
1761334235777974300,4.663974365234375,3.4408788681030273,-0.10289137065410614,0.5670989751815796
1761334235796675600,4.682675537109375,4.522434711456299,0.6771687865257263,1.5984054803848267
1761334235815377200,4.701377197265625,5.749952793121338,1.5314065217971802,2.2468605041503906
1761334235834078500,4.720078369140625,7.731209754943848,3.136990547180176,2.5459632873535156
1761334235852780000,4.738780029296875,11.234302520751953,7.135396957397461,2.1750757694244385
1761334235871481300,4.7574814453125,15.577275276184082,12.540783882141113,0.9451649188995361
1761334235890183000,4.776182861328125,18.415163040161133,16.804794311523438,-1.246660590171814
1761334235908884200,4.79488427734375,21.4516544342041,17.4891414642334,-2.581855535507202
1761334235927585500,4.81358544921875,23.337200164794922,17.77867317199707,-2.038684844970703
1761334235946287000,4.832287109375,33.7818717956543,13.818551063537598,8.384450912475586
1761334235964988400,4.850988525390625,32.46821212768555,12.380464553833008,13.308879852294922
1761334235983690000,4.86968994140625,18.604196548461914,10.49970531463623,6.802794933319092
1761334236002391300,4.888391357421875,8.157132148742676,6.553941249847412,1.2442678213119507
1761334236021092900,4.9070927734375,5.19960355758667,2.56510591506958,0.46899324655532837
1761334236039794400,4.92579443359375,5.8959150314331055,-0.5886343717575073,-0.6843472719192505
1761334236058495700,4.944495849609375,3.4408788681030273,-1.8687944412231445,-1.3639088869094849
1761334236077197000,4.963197021484375,-1.0959128141403198,-2.2229323387145996,-1.6941183805465698
1761334236095898600,4.981898681640625,-4.515256404876709,-2.2325034141540527,-2.8283164501190186
1761334236114600000,5.000599853515625,-5.484349727630615,-2.2085752487182617,-3.314059257507324
1761334236133301500,5.019301513671875,-4.398007869720459,-1.698904037475586,-2.344966173171997
1761334236152002800,5.0380029296875,-2.352144718170166,-1.0121639966964722,-0.6675975322723389
1761334236170704400,5.056704345703125,-0.5623133182525635,-0.5479564070701599,0.5814558863639832
1761334236189405700,5.07540576171875,1.1748759746551514,-0.1052841991186142,1.2801600694656372
1761334236208107300,5.094107177734375,2.7182464599609375,0.3397808074951172,1.7515461444854736
1761334236226808600,5.11280859375,4.027120590209961,0.8709874153137207,1.9956140518188477
1761334236245510100,5.13151025390625,5.132604598999023,1.6941183805465698,1.734796404838562
1761334236264211500,5.15021142578125,6.92482852935791,3.3954153060913086,1.179661512374878
1761334236282913000,5.1689130859375,12.399606704711914,6.034698486328125,1.0289137363433838
1761334236301614300,5.1876142578125,18.089738845825195,10.514062881469727,-0.42352959513664246
1761334236320315600,5.206315673828125,20.358135223388672,15.486348152160645,-3.314059257507324
1761334236339017200,5.225017333984375,22.387248992919922,16.9124698638916,-2.029113531112671
1761334236357718800,5.24371875,22.8825626373291,14.318650245666504,5.245067119598389
1761334236376420000,5.262420166015625,31.334012985229492,10.870593070983887,11.715259552001953
1761334236395121400,5.281121337890625,34.93281936645508,10.753344535827637,9.556933403015137
1761334236413823000,5.299822998046875,26.84029197692871,9.710074424743652,5.1565327644348145
1761334236432524300,5.318524169921875,15.52224063873291,7.365108013153076,2.5220351219177246
1761334236451225900,5.337225830078125,5.745167255401611,4.60139799118042,2.493321180343628
1761334236469927200,5.35592724609375,-2.8211379051208496,1.954936146736145,1.576870083808899
1761334236488628500,5.37462841796875,-6.58265495300293,0.2632105052471161,-0.8805587291717529
1761334236507330000,5.393330078125,-6.147161483764648,-1.0169496536254883,-3.1106693744659424
1761334236526031600,5.412031494140625,-4.73300313949585,-1.8113667964935303,-4.005585193634033
1761334236544733000,5.43073291015625,-4.1970109939575195,-1.8400806188583374,-3.146561861038208
1761334236563434500,5.4494345703125,-4.161118507385254,-1.4859428405761719,-1.5433706045150757
1761334236582135800,5.4681357421875,-3.541377544403076,-0.9786644577980042,0.11964113265275955
1761334236600837000,5.486837158203125,-1.9381862878799438,-0.5479564070701599,1.1988041400909424
1761334236619538700,5.50553857421875,-0.10767702013254166,-0.21774685382843018,1.4739787578582764
1761334236638240300,5.524240234375,1.6366907358169556,0.3206382393836975,1.1820544004440308
1761334236656941600,5.542941650390625,3.82373046875,0.727418065071106,0.6867401003837585
1761334236675643000,5.561642822265625,5.245067119598389,1.0863415002822876,1.8640087842941284
1761334236694344400,5.580344482421875,6.86261510848999,1.5553346872329712,3.091526746749878
1761334236713045800,5.599045654296875,11.660224914550781,2.1535403728485107,3.3571300506591797
1761334236731747300,5.617747314453125,16.333406448364258,4.572684288024902,3.38105845451355
1761334236750448600,5.63644873046875,20.209779739379883,7.738388538360596,1.588834285736084
1761334236769150200,5.655150146484375,23.10509490966797,11.334800720214844,-1.3615161180496216
1761334236787851500,5.6738515625,23.73201560974121,12.732209205627441,-1.5194423198699951
1761334236806553000,5.692552978515625,22.968704223632812,10.604990005493164,-1.1318050622940063
1761334236825254400,5.71125439453125,27.67060089111328,6.013163089752197,4.668396949768066
1761334236843956000,5.7299560546875,36.31586837768555,3.428914785385132,7.410571575164795
1761334236862657300,5.7486572265625,31.312477111816406,2.6703901290893555,5.319244861602783
1761334236881358800,5.76735888671875,16.613367080688477,3.562912940979004,2.478964328765869
1761334236900060200,5.78606005859375,2.4717857837677,3.517449378967285,-1.038485050201416
1761334236918761500,5.804761474609375,-6.508477687835693,2.2061824798583984,-2.833101987838745
1761334236937463000,5.823463134765625,-7.611568927764893,0.4450650215148926,-2.809173822402954
1761334236956164600,5.84216455078125,-4.084548473358154,-0.7369893789291382,-2.421536445617676
1761334236974866000,5.860865966796875,-1.7730815410614014,-1.1988041400909424,-1.0265209674835205
1761334236993567200,5.879567138671875,-1.911865234375,-1.2346965074539185,-1.399801254272461
1761334237012268800,5.898268798828125,-2.5363919734954834,-1.4691931009292603,-1.9716858863830566
1761334237030970400,5.916970458984375,-2.0673987865448,-1.306481122970581,-1.160519003868103
1761334237049671700,5.935671630859375,-0.9403793215751648,-0.6364908218383789,0.5910272002220154
1761334237068373000,5.954373046875,1.038485050201416,-0.18424734473228455,1.5936198234558105
1761334237087074600,5.973074462890625,4.613361835479736,-0.26560330390930176,1.4165509939193726
1761334237105775900,5.99177587890625,6.7310099601745605,-0.12442677468061447,1.7922241687774658
1761334237124477400,6.0104775390625,7.546962738037109,0.1746760457754135,2.1056840419769287
1761334237143178800,6.0291787109375,10.432706832885742,1.428515076637268,1.947757601737976
1761334237161880300,6.04788037109375,15.38345718383789,3.8883368968963623,2.117648124694824
1761334237180581600,6.06658154296875,19.99681854248047,7.992027759552002,0.9236295223236084
1761334237199283000,6.085282958984375,24.25604248046875,9.978070259094238,0.9930213689804077
1761334237217984500,6.103984619140625,26.507688522338867,10.6025972366333,0.3517449200153351
1761334237236686000,6.12268603515625,23.06202507019043,11.557332992553711,-1.373480200767517
1761334237255387400,6.141387451171875,28.041488647460938,10.315458297729492,3.1585259437561035
1761334237274088700,6.160088623046875,35.258243560791016,7.908278942108154,6.211767673492432
1761334237292790300,6.178790283203125,28.9603328704834,6.419943332672119,3.620340585708618
1761334237311491600,6.19749169921875,15.053247451782227,5.0703911781311035,0.7441678643226624
1761334237330193200,6.216193115234375,2.66560435295105,3.4121651649475098,0.9810572862625122
1761334237348894500,6.23489453125,-4.295116424560547,1.2586246728897095,0.14835500717163086
1761334237367596000,6.253595947265625,-5.422136306762695,-0.3206382393836975,-1.2993026971817017
1761334237386297300,6.27229736328125,-5.446064472198486,-1.3854442834854126,-2.062613010406494
1761334237404999000,6.2909990234375,-5.1876397132873535,-1.6869399547576904,-2.3641088008880615
1761334237423700200,6.3097001953125,-5.31685209274292,-1.8041882514953613,-2.2133610248565674
1761334237442401800,6.32840185546875,-4.967499732971191,-1.6007983684539795,-2.0721843242645264
1761334237461103000,6.34710302734375,-2.6297121047973633,-1.1270195245742798,-0.8542376756668091
1761334237479804400,6.365804443359375,0.19621145725250244,-0.7058826684951782,0.07657032459974289
1761334237498506000,6.384506103515625,2.967100143432617,-0.06699903309345245,1.1150553226470947
1761334237517207600,6.40320751953125,4.776073932647705,0.48574298620224,1.698904037475586
1761334237535908900,6.421908935546875,5.431707382202148,0.9044869542121887,2.1511476039886475
1761334237554610200,6.440610107421875,5.142175674438477,1.2849457263946533,1.7611174583435059
1761334237573311700,6.459311767578125,5.223531723022461,1.6845471858978271,0.9068797826766968
1761334237592013000,6.478012939453125,7.9489569664001465,3.280559778213501,0.5455635786056519
1761334237610714600,6.496714599609375,14.014761924743652,6.764509677886963,1.1461620330810547
1761334237629416000,6.515416015625,21.827327728271484,10.152746200561523,1.6558332443237305
1761334237648117500,6.534117431640625,28.354948043823242,11.303693771362305,3.9361932277679443
1761334237666818800,6.55281884765625,28.950761795043945,11.009376525878906,6.8243303298950195
1761334237685520400,6.571520263671875,36.05265808105469,8.882157325744629,12.167503356933594
1761334237704221700,6.5902216796875,43.35794448852539,7.946564197540283,11.198410034179688
1761334237722923300,6.60892333984375,34.60260772705078,7.601997375488281,5.838487148284912
1761334237741624600,6.62762451171875,20.188243865966797,5.965306758880615,2.423929452896118
1761334237760326100,6.646326171875,4.871787071228027,4.393222332000732,1.5409778356552124
1761334237779027500,6.66502734375,-4.721039295196533,1.588834285736084,0.3445664644241333
1761334237797728800,6.683728759765625,-6.379265308380127,-0.9954141974449158,-2.038684844970703
1761334237816430300,6.702430419921875,-7.04207706451416,-2.383251428604126,-4.273581027984619
1761334237835131600,6.721131591796875,-8.965906143188477,-3.22552490234375,-4.869394302368164
1761334237853833200,6.739833251953125,-9.753145217895508,-3.462414264678955,-4.005585193634033
1761334237872534500,6.758534423828125,-8.34138011932373,-3.3858439922332764,-3.5126636028289795
1761334237891236000,6.777236083984375,-4.383651256561279,-3.0891339778900146,-2.2540390491485596
1761334237909937400,6.7959375,0.02632104977965355,-2.3952155113220215,0.37806597352027893
1761334237928639000,6.814638916015625,3.3690943717956543,-1.2873386144638062,1.8855443000793457
1761334237947340300,6.83334033203125,4.6540398597717285,-0.24406790733337402,1.9405791759490967
1761334237966041900,6.852041748046875,4.362115859985352,0.7752745151519775,2.4813570976257324
1761334237984743200,6.8707431640625,3.9529430866241455,1.6342978477478027,1.8113667964935303
1761334238003444700,6.88944482421875,5.307280540466309,2.438286304473877,0.6197410821914673
1761334238022146000,6.90814599609375,7.970492362976074,3.869194269180298,0.48095735907554626
1761334238040847400,6.926847412109375,11.755937576293945,7.144968509674072,0.4498506486415863
1761334238059549000,6.945548828125,17.249858856201172,10.528419494628906,-0.8063812255859375
1761334238078250200,6.964250244140625,23.997617721557617,12.5144624710083,0.6963114142417908
1761334238096951800,6.982951904296875,26.749364852905273,12.205788612365723,3.294916868209839
1761334238115653000,7.001653076171875,33.38466262817383,9.927821159362793,8.894122123718262
1761334238134354700,7.020354736328125,46.39922332763672,7.623532772064209,10.473384857177734
1761334238153056000,7.039055908203125,41.795433044433594,7.592426300048828,6.434299945831299
1761334238171757600,7.057757568359375,26.888147354125977,6.606583118438721,4.981856822967529
1761334238190459000,7.076458984375,11.042876243591309,4.831109046936035,3.7112679481506348
1761334238209160400,7.095160400390625,-2.416750907897949,2.187039852142334,1.9836499691009521
1761334238227861800,7.11386181640625,-7.645068168640137,-0.45224347710609436,-0.30628129839897156
1761334238246563300,7.132563232421875,-8.300702095031738,-1.9070796966552734,-3.10109806060791
1761334238265264600,7.1512646484375,-8.429914474487305,-2.792423963546753,-4.711467742919922
1761334238283966000,7.169966064453125,-8.83669376373291,-3.2159535884857178,-3.9529430866241455
1761334238302667500,7.18866748046875,-8.236095428466797,-3.2853455543518066,-2.7254250049591064
1761334238321368800,7.207368896484375,-5.682953834533691,-3.239881753921509,-1.7467604875564575
1761334238340070400,7.2260703125,-1.2442678213119507,-2.761317253112793,-0.02871387079358101
1761334238358771700,7.244771728515625,2.6368906497955322,-2.0554347038269043,1.0959128141403198
1761334238377473300,7.263473388671875,4.371686935424805,-0.9379864931106567,1.887937068939209
1761334238396174600,7.282174560546875,4.235296249389648,0.34217363595962524,2.108076810836792
1761334238414876200,7.300876220703125,3.2685956954956055,1.2251251935958862,1.5002998113632202
1761334238433577500,7.319577392578125,3.074777126312256,1.794616937637329,1.404586911201477
1761334238452278800,7.33827880859375,3.6059837341308594,2.699103832244873,1.0959128141403198
1761334238470980400,7.35698046875,6.905686378479004,5.108676433563232,0.6771687865257263
1761334238489682000,7.375681884765625,12.91645622253418,8.331808090209961,1.0600204467773438
1761334238508383200,7.39438330078125,19.695323944091797,10.904092788696289,1.215553879737854
1761334238527084500,7.41308447265625,25.842485427856445,11.411371231079102,4.3070807456970215
1761334238545786000,7.4317861328125,31.767112731933594,10.511670112609863,10.911271095275879
1761334238564487400,7.4504873046875,41.89832305908203,8.841479301452637,14.593825340270996
1761334238583189000,7.46918896484375,43.836509704589844,7.913064479827881,11.093125343322754
1761334238601890300,7.487890380859375,34.119258880615234,6.805187702178955,7.477570533752441
1761334238620591900,7.506591796875,20.382062911987305,6.154339790344238,4.529613494873047
1761334238639293200,7.525293212890625,8.056633949279785,4.4243292808532715,2.8115665912628174
1761334238657994500,7.543994384765625,-1.4787644147872925,2.0243279933929443,1.8759729862213135
1761334238676696000,7.562696044921875,-5.800201892852783,-0.07417750358581543,-0.21296121180057526
1761334238695397600,7.581397705078125,-6.367300987243652,-1.275374412536621,-2.2755744457244873
1761334238714099000,7.600098876953125,-7.255038261413574,-1.8352949619293213,-3.493520975112915
1761334238732800300,7.61880029296875,-8.23848819732666,-1.9046868085861206,-3.6083765029907227
1761334238751501800,7.637501708984375,-7.755138397216797,-1.8664016723632812,-3.4121651649475098
1761334238770203400,7.656203369140625,-6.613761901855469,-2.0410776138305664,-3.170490026473999
1761334238788904700,7.67490478515625,-4.431507587432861,-1.7850457429885864,-2.210968017578125
1761334238807606000,7.69360595703125,-1.7012969255447388,-1.5840486288070679,-0.760917603969574
1761334238826307600,7.7123076171875,0.7728816866874695,-1.215553879737854,0.7561319470405579
1761334238845009000,7.7310087890625,2.218146562576294,-0.8350951075553894,0.6436693072319031
1761334238863710500,7.74971044921875,3.0412776470184326,0.035892341285943985,-0.035892341285943985
1761334238882411800,7.768411865234375,6.278766632080078,1.5074782371520996,-0.9092726111412048
1761334238901113300,7.78711328125,12.667603492736816,4.371686935424805,-0.11485548317432404
1761334238919814700,7.805814697265625,19.494325637817383,8.219346046447754,1.2179467678070068
1761334238938516000,7.824515869140625,21.523439407348633,11.669795989990234,0.11485548317432404
1761334238957217500,7.843217529296875,19.85085678100586,15.524633407592773,-2.888136863708496
1761334238975919000,7.861919189453125,23.19363021850586,17.190038681030273,-1.0648061037063599
1761334238994620400,7.880620361328125,35.4592399597168,12.579068183898926,6.3601226806640625
1761334239013321700,7.89932177734375,45.42055892944336,8.051848411560059,8.133204460144043
1761334239032023300,7.918023193359375,38.060237884521484,8.365307807922363,3.950550079345703
1761334239050724600,7.936724609375,25.45484733581543,7.733603000640869,0.4905286431312561
1761334239069426200,7.95542626953125,13.241880416870117,5.723631858825684,0.7250252366065979
1761334239088127500,7.97412744140625,1.1054840087890625,2.912065267562866,2.2133610248565674
1761334239106829000,7.9928291015625,-6.64486837387085,0.3684946894645691,2.0865414142608643
1761334239125530400,8.0115302734375,-8.3629150390625,-1.337587833404541,0.016749758273363113
1761334239144232000,8.03023193359375,-8.468199729919434,-2.1032910346984863,-2.6560330390930176
1761334239162933200,8.048933349609374,-7.836493968963623,-2.5459632873535156,-4.232903480529785
1761334239181634600,8.067634521484376,-7.001399040222168,-2.7014968395233154,-3.5772697925567627
1761334239200336100,8.086336181640625,-5.718846321105957,-2.667997360229492,-2.0554347038269043
1761334239219037400,8.105037353515625,-3.8213376998901367,-2.4047868251800537,-0.5647061467170715
1761334239237739000,8.123739013671875,-1.0911271572113037,-2.242074728012085,0.5575276613235474
1761334239256440300,8.1424404296875,1.466800332069397,-1.9381862878799438,0.550349235534668
1761334239275142000,8.161141845703124,3.589233875274658,-1.062413215637207,0.24167509377002716
1761334239293843200,8.17984326171875,5.431707382202148,0.3517449200153351,0.4785645306110382
1761334239312544500,8.19854443359375,8.484949111938477,2.3018953800201416,1.5170495510101318
1761334239331246000,8.21724609375,11.358729362487793,4.314259052276611,2.651247501373291
1761334239349947600,8.23594775390625,14.45743465423584,7.623532772064209,1.9812572002410889
1761334239368649000,8.25464892578125,18.716659545898438,11.337193489074707,0.9236295223236084
1761334239387350300,8.273350341796874,21.272193908691406,14.47179126739502,-1.789831280708313
1761334239406051800,8.2920517578125,19.87957000732422,15.706487655639648,-2.919243574142456
1761334239424753200,8.310753173828125,18.384056091308594,15.479169845581055,-1.7754744291305542
1761334239443454700,8.329454833984375,25.052852630615234,11.373085975646973,3.3092737197875977
1761334239462156000,8.348156005859375,33.808189392089844,7.865208148956299,7.989634990692139
1761334239480857300,8.366857421875,30.381669998168945,7.645068168640137,5.218746185302734
1761334239499559000,8.385558837890626,20.405990600585938,7.133004188537598,1.7850457429885864
1761334239518260200,8.40426025390625,10.363314628601074,5.927021503448486,0.9355936646461487
1761334239536961800,8.4229619140625,1.6558332443237305,3.6921253204345703,1.2299108505249023
1761334239555663000,8.4416630859375,-3.9936211109161377,1.6534404754638672,1.1222338676452637
1761334239574364700,8.46036474609375,-5.6207404136657715,0.26081767678260803,-0.28235307335853577
1761334239593066000,8.47906591796875,-5.029713153839111,-0.6197410821914673,-1.825723648071289
1761334239611767600,8.497767578125,-4.591826438903809,-1.5481562614440918,-2.287538528442383
1761334239630468900,8.51646875,-4.692325115203857,-2.1032910346984863,-2.0817556381225586
1761334239649170400,8.53517041015625,-5.173282623291016,-2.7326035499572754,-2.2396819591522217
1761334239667871700,8.553871826171875,-5.089533805847168,-2.68953275680542,-1.8472590446472168
1761334239686573000,8.572572998046875,-4.024727821350098,-2.5603201389312744,-0.5599204897880554
1761334239705274600,8.591274658203124,-2.163111686706543,-1.9884356260299683,-0.06939185410737991
1761334239723976000,8.609975830078126,-0.1579262912273407,-1.4189438819885254,0.5120640397071838
1761334239742677500,8.628677490234375,2.021935224533081,-0.16510476171970367,1.2705888748168945
1761334239761378800,8.64737890625,7.022934436798096,0.9260223507881165,2.196611166000366
1761334239780080000,8.666080078125,14.455041885375977,3.2231321334838867,3.871587038040161
1761334239798781700,8.68478173828125,19.08993911743164,6.975078105926514,2.6488547325134277
1761334239817483300,8.703483154296874,21.506689071655273,10.595418930053711,-0.7178468108177185
1761334239836184600,8.7221845703125,23.997617721557617,12.672389030456543,-2.179861545562744
1761334239854886000,8.740885986328125,26.81157684326172,13.780265808105469,-0.12203395366668701
1761334239873587500,8.75958740234375,32.676387786865234,10.612168312072754,5.26181697845459
1761334239892288800,8.778288818359375,37.84488296508789,7.623532772064209,5.857629776000977
1761334239910990300,8.796990234375,33.092735290527344,7.738388538360596,2.517249345779419
1761334239929691600,8.815691650390624,22.91127586364746,7.109076023101807,1.0815558433532715
1761334239948393000,8.83439306640625,11.648261070251465,5.742774486541748,0.638883650302887
1761334239967094500,8.853094482421875,1.1413763761520386,3.728017568588257,0.8733802437782288
1761334239985796000,8.871796142578125,-4.627718925476074,1.2873386144638062,0.6245267391204834
1761334240004497400,8.890497314453125,-4.622933387756348,-0.22492532432079315,-0.7896314859390259
1761334240023198700,8.90919873046875,-3.6155550479888916,-1.3184453248977661,-1.9046868085861206
1761334240041900300,8.927900390625,-3.706482172012329,-1.7874385118484497,-2.5220351219177246
1761334240060601600,8.9466015625,-4.721039295196533,-1.94297194480896,-2.9718856811523438
1761334240079303200,8.96530322265625,-5.685346603393555,-1.7754744291305542,-2.6464617252349854
1761334240098004500,8.98400439453125,-5.276174068450928,-1.3495519161224365,-2.172683000564575
1761334240116705800,9.002705810546875,-3.160918712615967,-0.7992027401924133,-0.48574298620224
1761334240135407400,9.021407470703124,0.09571290761232376,-0.19381862878799438,0.17228323221206665
1761334240154108700,9.040108642578126,2.0650060176849365,0.34695929288864136,0.7968099117279053
1761334240172810200,9.058810302734376,4.718646049499512,1.1270195245742798,1.6390835046768188
1761334240191511600,9.077511474609375,9.592825889587402,2.3258235454559326,2.201396942138672
1761334240210213000,9.096213134765625,15.634702682495117,4.130012035369873,2.366501569747925
1761334240228914400,9.11491455078125,20.44666862487793,6.063412666320801,0.8781659007072449
1761334240247615700,9.13361572265625,21.736400604248047,8.671588897705078,-2.258824586868286
1761334240266317300,9.1523173828125,19.740787506103516,10.638489723205566,-3.2063822746276855
1761334240285018600,9.1710185546875,23.066810607910156,11.0835542678833,3.0173492431640625
1761334240303720200,9.18972021484375,30.79323387145996,7.4464640617370605,10.796415328979492
1761334240322421500,9.20842138671875,33.04487991333008,6.391229152679443,8.250452041625977
1761334240341123000,9.227123046875,26.14158821105957,7.369893550872803,2.871387243270874
1761334240359824400,9.245824462890624,17.77388572692871,7.061219692230225,1.672582983970642
1761334240378526000,9.26452587890625,11.126625061035156,5.44845724105835,1.1341979503631592
1761334240397227300,9.283227294921875,4.996213912963867,3.728017568588257,1.545763373374939
1761334240415928600,9.301928466796875,0.9571290612220764,2.282752752304077,2.146361827850342
1761334240434630100,9.320630126953125,-1.222732424736023,1.007378339767456,2.124826431274414
1761334240453331500,9.33933154296875,-2.6009981632232666,0.2871387302875519,0.5312066078186035
1761334240472033000,9.358032958984374,-3.7088751792907715,-0.19381862878799438,-1.3950155973434448
1761334240490734300,9.376734375,-3.7806596755981445,-0.8877372145652771,-2.0817556381225586
1761334240509435600,9.395435546875,-3.6155550479888916,-1.007378339767456,-1.7132610082626343
1761334240528137200,9.41413720703125,-3.5341989994049072,-0.8997012972831726,-1.184447169303894
1761334240546838500,9.432838623046875,-2.840280532836914,-0.6125625967979431,-0.8805587291717529
1761334240565540000,9.4515400390625,-1.8448662757873535,-0.1746760457754135,-0.6293123364448547
1761334240584241400,9.470241455078124,0.02871387079358101,0.39960137009620667,-0.42352959513664246
1761334240602943000,9.48894287109375,2.5124638080596924,1.2969099283218384,0.4426721930503845
1761334240621644300,9.507644287109375,5.580062389373779,2.256431818008423,1.674975872039795
1761334240640345900,9.526345947265625,9.856036186218262,3.8596229553222656,2.2947168350219727
1761334240659047200,9.545047119140625,16.9603271484375,6.57547664642334,1.1054840087890625
1761334240677748500,9.56374853515625,20.805593490600586,8.652446746826172,-3.1417760848999023
1761334240696450000,9.582449951171874,16.823936462402344,10.162318229675293,-3.579662561416626
1761334240715151400,9.6011513671875,17.23789405822754,13.129417419433594,-0.4785645306110382
1761334240733853000,9.61985302734375,17.388641357421875,8.738588333129883,7.767102241516113
1761334240752554200,9.63855419921875,21.67418670654297,4.862215518951416,9.332008361816406
1761334240771255600,9.657255615234375,23.71765899658203,3.8763725757598877,3.704089403152466
1761334240789957000,9.67595703125,21.190837860107422,4.589433670043945,-0.17946170270442963
1761334240808658400,9.694658447265626,16.400405883789062,3.0891339778900146,0.31824541091918945
1761334240827360000,9.713360107421876,11.858829498291016,0.6963114142417908,3.1513473987579346
1761334240846061300,9.732061279296875,7.800601959228516,-0.10049854964017868,5.563312530517578
1761334240864762600,9.7507626953125,5.759523868560791,-0.12681959569454193,2.8115665912628174
1761334240883464200,9.769464111328125,5.517848968505859,-0.12921242415905,0.3278166949748993
1761334240902165800,9.788165771484374,4.620540618896484,-0.29431718587875366,-0.5790630578994751
1761334240920867000,9.8068671875,3.239881753921509,-0.24885354936122894,-0.7824530005455017
1761334240939568400,9.825568359375,2.093719720840454,-0.2105683982372284,-0.6604190468788147
1761334240958270000,9.84427001953125,1.3088740110397339,0.05742774158716202,-0.06939185410737991
1761334240976971300,9.86297119140625,1.1509476900100708,0.4713860750198364,0.33020952343940735
1761334240995672800,9.8816728515625,0.9810572862625122,0.760917603969574,0.019142581149935722
1761334241014374100,9.9003740234375,2.376072883605957,0.7513462901115417,-0.02392822690308094
1761334241033075500,9.919075439453126,4.809573650360107,0.8470591902732849,-0.5312066078186035
1761334241051777000,9.937777099609375,5.793023586273193,1.7324036359786987,-1.0839486122131348
1761334241070478300,9.956478271484375,8.204988479614258,2.9766714572906494,-1.4691931009292603
1761334241089180000,9.975179931640625,11.509476661682129,4.005585193634033,-0.6173482537269592
1761334241107881200,9.993881103515625,14.787644386291504,5.091926574707031,-0.9403793215751648
1761334241126582500,10.01258251953125,17.182859420776367,6.2189459800720215,-1.2562319040298462
1761334241145284000,10.0312841796875,16.409976959228516,6.013163089752197,-0.08374879509210587
1761334241163985400,10.0499853515625,14.780465126037598,6.26440954208374,2.9766714572906494
1761334241182687000,10.06868701171875,16.15633773803711,5.429314613342285,4.6995038986206055
1761334241201388300,10.08738818359375,19.946569442749023,4.46979284286499,1.4715858697891235
1761334241220089600,10.106089599609374,20.109281539916992,5.0943193435668945,-0.17946170270442963
1761334241238791200,10.124791259765624,16.979469299316406,5.036891460418701,0.7776673436164856
1761334241257492500,10.143492431640626,12.729816436767578,4.486542224884033,0.7226324677467346
1761334241276194000,10.162194091796875,8.595019340515137,3.4121651649475098,-0.7226324677467346
1761334241294895400,10.180895263671875,5.376672267913818,2.50289249420166,-1.2394821643829346
1761334241313597000,10.199596923828125,4.682754039764404,2.093719720840454,-0.6340979933738708
1761334241332298200,10.21829833984375,4.914857864379883,1.9286150932312012,-0.4498506486415863
1761334241350999600,10.23699951171875,4.417150497436523,1.6462619304656982,-0.34695929288864136
1761334241369701000,10.255701171875,4.508078098297119,1.730010747909546,-0.12442677468061447
1761334241388402400,10.27440234375,4.53200626373291,1.8472590446472168,-0.607776939868927
1761334241407104000,10.29310400390625,3.390629768371582,2.3401806354522705,-0.4785645306110382
1761334241425805300,10.311805419921875,3.814159393310547,2.6225335597991943,-0.380458801984787
1761334241444506600,10.330506591796874,6.8482584953308105,2.6727828979492188,0.41874396800994873
