time,seconds_elapsed,z,y,x
1761334231185680400,0.071680419921875,-0.006108647678047419,-0.34086254239082336,0.021991131827235222
1761334231204382000,0.0903818359375,0.028099779039621353,-0.27000224590301514,0.360410213470459
1761334231223083300,0.109083251953125,0.06597339361906052,-0.09529490768909454,0.5400044918060303
1761334231241784800,0.127784912109375,0.23273947834968567,0.1698204129934311,0.3402516841888428
1761334231260486100,0.146486083984375,0.30482152104377747,0.28038692474365234,0.06291907280683517
1761334231279187700,0.165187744140625,0.05070177838206291,0.13500112295150757,-0.021380268037319183
1761334231297889000,0.183888916015625,-0.2822195291519165,-0.12461641430854797,-0.1496618688106537
1761334231316590600,0.202590576171875,-0.3249800503253937,0.09712749719619751,-0.2510654330253601
1761334231335292000,0.2212919921875,-0.3549124300479889,0.36285367608070374,-0.4159989058971405
1761334231353993500,0.239993408203125,-0.23396120965480804,0.27427828311920166,-0.5711585879325867
1761334231372694800,0.25869482421875,0.16676609218120575,-0.09101885557174683,-0.7538071274757385
1761334231391396400,0.277396240234375,0.5027416944503784,-0.7574723362922668,-0.8753692507743835
1761334231410097700,0.29609765625,0.47036588191986084,-1.0115920305252075,-0.6334667801856995
1761334231428799200,0.31479931640625,0.14110976457595825,-0.6621774435043335,-0.2107483446598053
1761334231447500500,0.33350048828125,-0.430659681558609,0.024434590712189674,0.12583814561367035
1761334231466202000,0.3522021484375,-0.934623122215271,1.110552191734314,-0.029932374134659767
1761334231484903400,0.3709033203125,-0.6139190793037415,0.2822195291519165,-0.03787361457943916
1761334231503605000,0.38960498046875,-0.043371398001909256,-0.7904590368270874,-0.2779434621334076
1761334231522306300,0.408306396484375,0.6145299673080444,-0.11545344442129135,-0.5687150955200195
1761334231541008000,0.4270078125,1.1698060035705566,-0.27427828311920166,-0.3494146466255188
1761334231559709200,0.445709228515625,0.7660244107246399,-0.7703005075454712,-0.30970844626426697
1761334231578410800,0.46441064453125,0.7648026943206787,-1.1875211000442505,-0.42332929372787476
1761334231597112000,0.483112060546875,0.9315688014030457,-0.9309579133987427,-0.5082395076751709
1761334231615813600,0.501813720703125,0.7788525819778442,-0.7519745230674744,-0.4373791813850403
1761334231634515000,0.520514892578125,0.27550002932548523,-0.8472694754600525,-0.347582072019577
1761334231653216500,0.539216552734375,-0.07880155742168427,-1.1197150945663452,-0.47525280714035034
1761334231671917800,0.557917724609375,-0.21868959069252014,-1.351232886314392,-0.5021308660507202
1761334231690619400,0.576619384765625,-0.0513126403093338,-0.6010909676551819,-0.06047561392188072
1761334231709320700,0.59532080078125,-0.009773836471140385,0.15638138353824615,0.6401863098144531
1761334231728022300,0.614022216796875,-0.17653992772102356,0.25350889563560486,1.1612539291381836
1761334231746723800,0.632723876953125,-0.24495677649974823,0.003665188793092966,1.2736530303955078
1761334231765425200,0.651425048828125,-0.2712239623069763,-0.2822195291519165,1.0555742979049683
1761334231784126500,0.67012646484375,-0.20952661335468292,-0.34086254239082336,0.6737838387489319
1761334231802828000,0.688828125,-0.10995566099882126,-0.15271618962287903,0.14233149588108063
1761334231821529300,0.707529296875,0.1288924664258957,0.185092031955719,-0.17165300250053406
1761334231840231000,0.72623095703125,0.3280344009399414,0.15577052533626556,-0.3298669755458832
1761334231858932500,0.744932373046875,0.4575377106666565,0.08124501258134842,-0.3854556679725647
1761334231877633800,0.7636337890625,0.49052441120147705,0.1948658674955368,-0.36712974309921265
1761334231896335000,0.782335205078125,0.38240134716033936,0.07513637095689774,-0.20280711352825165
1761334231915036700,0.80103662109375,0.3182605504989624,-0.5876519083976746,-0.0824667438864708
1761334231933738000,0.819738037109375,0.15577052533626556,-0.01282816007733345,0.24740023910999298
1761334231952439600,0.838439453125,0.17715078592300415,0.9309579133987427,0.8277217745780945
1761334231971141000,0.85714111328125,0.45448338985443115,-0.3591884970664978,0.8093958497047424
1761334231989842400,0.875842529296875,0.45326167345046997,-2.4440701007843018,-0.20708316564559937
1761334232008543700,0.894543701171875,0.5021308660507202,-2.210108757019043,-1.2834268808364868
1761334232027245300,0.913245361328125,0.08368847519159317,-0.45998117327690125,-1.5412118434906006
1761334232045947000,0.93194677734375,-0.5962040424346924,0.618806004524231,-0.8698714375495911
1761334232064648200,0.950648193359375,-1.0195332765579224,0.8619301915168762,0.1637117564678192
1761334232083349800,0.969349853515625,-1.0775654315948486,0.30482152104377747,0.9608902931213379
1761334232102051000,0.988051025390625,-0.972496747970581,-0.10690133273601532,1.3060288429260254
1761334232120752400,1.00675244140625,-0.729983389377594,-0.014660755172371864,1.3090832233428955
1761334232139454000,1.025453857421875,-0.6456840634346008,0.08857539296150208,0.9401208758354187
1761334232158155500,1.044155517578125,-0.6682860851287842,0.13988803327083588,0.3848448097705841
1761334232176856800,1.06285693359375,-0.4838049113750458,0.16004657745361328,-0.0616973415017128
1761334232195558400,1.081558349609375,-0.17104214429855347,-0.02260199747979641,-0.32620179653167725
1761334232214259700,1.100259765625,0.1594357043504715,-0.3396408259868622,-0.526565432548523
1761334232232961000,1.1189609375,0.3237583339214325,-0.3756818473339081,-0.7250964641571045
1761334232251662600,1.13766259765625,0.347582072019577,0.10323614627122879,-0.6829468011856079
1761334232270364200,1.1563642578125,0.318871408700943,0.6395754218101501,-0.3756818473339081
1761334232289065500,1.1750654296875,0.19364413619041443,0.8680388331413269,-0.008552107028663158
1761334232307767000,1.19376708984375,0.1380554437637329,0.5558869242668152,0.268169641494751
1761334232326468400,1.21246826171875,0.18692462146282196,-0.3848448097705841,0.40866854786872864
1761334232345169700,1.231169677734375,-0.02260199747979641,-0.29626941680908203,0.8826996088027954
1761334232363871200,1.249871337890625,-0.34147340059280396,0.5845975875854492,1.053741693496704
1761334232382572800,1.26857275390625,-0.20952661335468292,0.9975422024726868,0.5351175665855408
1761334232401274000,1.287274169921875,0.0030543238390237093,0.4825831651687622,-0.1698204129934311
1761334232419975700,1.3059755859375,0.49663305282592773,-0.9828814268112183,-0.9089667797088623
1761334232438677000,1.324677001953125,0.7550288438796997,-1.422093152999878,-1.4074324369430542
1761334232457378300,1.34337841796875,0.18631376326084137,-0.6218603253364563,-0.9859357476234436
1761334232476079900,1.362079833984375,-0.3396408259868622,0.41294458508491516,-0.2608392536640167
1761334232494781400,1.380781494140625,-0.4379900395870209,0.8436042666435242,0.4007273018360138
1761334232513482800,1.399482666015625,-0.5057960152626038,0.6426297426223755,1.072678565979004
1761334232532184300,1.418184326171875,-0.5430588126182556,0.39828383922576904,1.497840404510498
1761334232550885600,1.4368857421875,-0.5088503360748291,0.3029889166355133,1.397047758102417
1761334232569587000,1.4555869140625,-0.3860665261745453,0.30970844626426697,0.84177166223526
1761334232588288500,1.47428857421875,-0.18325942754745483,0.15271618962287903,0.1844811588525772
1761334232606989800,1.49298974609375,0.056199558079242706,-0.15271618962287903,-0.33231043815612793
1761334232625691400,1.51169140625,0.30604326725006104,-0.5210676789283752,-0.6560688018798828
1761334232644393000,1.53039306640625,0.4783071279525757,-0.8368847370147705,-0.8460476994514465
1761334232663094300,1.54909423828125,0.48502662777900696,-0.7959567904472351,-0.8271108865737915
1761334232681795800,1.5677958984375,0.3897317349910736,-0.287106454372406,-0.5772672295570374
1761334232700497200,1.5864970703125,0.3549124300479889,0.3494146466255188,-0.20341797173023224
1761334232719198700,1.60519873046875,0.26389357447624207,0.4984656572341919,0.11545344442129135
1761334232737900000,1.623900146484375,0.23457208275794983,0.18203771114349365,0.26450446248054504
1761334232756601300,1.642601318359375,0.27855435013771057,-0.205861434340477,0.3384190797805786
1761334232775303000,1.661302978515625,0.11972949653863907,-0.3231474757194519,0.39400777220726013
1761334232794004500,1.68000439453125,-0.32559093832969666,0.7067705392837524,0.896138608455658
1761334232812705800,1.698705810546875,-0.3121519088745117,1.6713260412216187,1.2553271055221558
1761334232831407400,1.717407470703125,0.09712749719619751,0.8552106618881226,0.6707295179367065
1761334232850108700,1.736108642578125,0.5180133581161499,-1.196073293685913,-0.30604326725006104
1761334232868810000,1.75481005859375,1.1227694749832153,-2.3622140884399414,-1.525940179824829
1761334232887511600,1.773511474609375,1.1624757051467896,-1.2370011806488037,-1.591302752494812
1761334232906213000,1.792213134765625,0.6731730103492737,0.29993459582328796,-0.4007273018360138
1761334232924914400,1.81091455078125,0.1948658674955368,0.6017017960548401,0.9779945015907288
1761334232943616000,1.829615966796875,-0.38179048895835876,0.25045454502105713,1.8637484312057495
1761334232962317300,1.8483173828125,-0.8503237962722778,0.18264856934547424,1.6713260412216187
1761334232981018600,1.8670185546875,-0.8564324378967285,0.8472694754600525,0.8955277800559998
1761334232999720200,1.88572021484375,-0.5491674542427063,1.507614254951477,0.30543237924575806
1761334233018421800,1.904421875,-0.2712239623069763,1.1893537044525146,0.008552107028663158
1761334233037123000,1.923123046875,-0.15515965223312378,0.2406807243824005,-0.21502439677715302
1761334233055824400,1.941824462890625,0.010995565913617611,-0.5302306413650513,-0.471587598323822
1761334233074526000,1.96052587890625,0.27000224590301514,-0.8998038172721863,-0.7672461867332458
1761334233093227300,1.979227294921875,0.47464191913604736,-0.8967494964599609,-1.0018181800842285
1761334233111928800,1.9979287109375,0.4673115611076355,-0.546113133430481,-0.9462295174598694
1761334233130630400,2.01663037109375,0.3182605504989624,-0.15210533142089844,-0.5925388336181641
1761334233149331700,2.035331787109375,0.15515965223312378,0.11545344442129135,-0.12217295914888382
1761334233168033000,2.054032958984375,-0.023212861269712448,0.013439024798572063,0.23273947834968567
1761334233186734600,2.072734619140625,-0.15760311484336853,-0.08307760953903198,0.36285367608070374
1761334233205436000,2.091435791015625,-0.15088360011577606,0.07941242307424545,0.3481929302215576
1761334233224137500,2.110137451171875,-0.10995566099882126,0.16859868168830872,0.21258094906806946
1761334233242838800,2.1288388671875,-0.4276053309440613,1.1490366458892822,0.5943714380264282
1761334233261540400,2.147540283203125,-0.4269944727420807,1.5699224472045898,0.6927206516265869
1761334233280241700,2.16624169921875,-0.05070177838206291,0.4404335021972656,-0.18325942754745483
1761334233298943200,2.184943115234375,0.5192350745201111,-2.0244059562683105,-1.5149446725845337
1761334233317644500,2.20364453125,1.0592395067214966,-3.166112184524536,-2.4929392337799072
1761334233336346000,2.22234619140625,0.8784235715866089,-0.8545998334884644,-1.6255111694335938
1761334233355047400,2.24104736328125,0.3249800503253937,0.9718858599662781,0.06230820715427399
1761334233373749000,2.2597490234375,-0.1496618688106537,0.7770199775695801,1.5234967470169067
1761334233392450300,2.2784501953125,-0.5345066785812378,0.13622283935546875,2.1508548259735107
1761334233411152000,2.29715185546875,-0.8619301915168762,0.4056142270565033,1.7458515167236328
1761334233429853200,2.315853271484375,-0.8594867587089539,1.284037709236145,1.0238093137741089
1761334233448554800,2.3345546875,-0.7177661061286926,1.6988149881362915,0.6597339510917664
1761334233467256000,2.353256103515625,-0.5503891706466675,1.250440239906311,0.6047561168670654
1761334233485957600,2.37195751953125,-0.3597993552684784,0.4514290690422058,0.4984656572341919
1761334233504659000,2.390658935546875,-0.10690133273601532,-0.21135921776294708,0.1747073233127594
1761334233523360500,2.409360595703125,0.22296564280986786,-0.4416552484035492,-0.29565855860710144
1761334233542061800,2.428061767578125,0.4874700903892517,-0.41783151030540466,-0.6982184648513794
1761334233560763400,2.446763427734375,0.5180133581161499,-0.3170388340950012,-0.7861829996109009
1761334233579464700,2.465464599609375,0.4416552484035492,-0.2364046722650528,-0.6145299673080444
1761334233598166000,2.484166015625,0.33597561717033386,-0.10567960888147354,-0.39400777220726013
1761334233616867600,2.50286767578125,0.15760311484336853,0.06230820715427399,-0.3652971386909485
1761334233635569200,2.521569091796875,0.027488915249705315,0.09957095980644226,-0.5033525824546814
1761334233654270500,2.5402705078125,0.12278381735086441,-0.014049889519810677,-0.7318159937858582
1761334233672972000,2.558971923828125,0.1130099818110466,0.1380554437637329,-0.7000510096549988
1761334233691673300,2.57767333984375,-0.4166097939014435,1.546709656715393,0.4214966893196106
1761334233710374700,2.596374755859375,-0.5821541547775269,1.9413282871246338,1.0757328271865845
1761334233729076200,2.615076171875,-0.3042106628417969,0.5393936038017273,0.2675587832927704
1761334233747777800,2.63377783203125,0.5045742988586426,-1.5870267152786255,-1.40559983253479
1761334233766479000,2.65247900390625,1.1459823846817017,-2.833801746368408,-2.8686211109161377
1761334233785180400,2.671180419921875,0.9211840629577637,-1.2675443887710571,-1.997527837753296
1761334233803882000,2.689882080078125,0.3952295184135437,0.12156209349632263,-0.2730565667152405
1761334233822583300,2.708583251953125,-0.01282816007733345,-0.2987128794193268,0.6090322136878967
1761334233841284900,2.727284912109375,-0.14110976457595825,-1.201570987701416,0.5015199780464172
1761334233859986200,2.745986083984375,-0.02626718580722809,-1.0690133571624756,0.07941242307424545
1761334233878687700,2.764687744140625,-0.024434590712189674,-0.2211330533027649,-0.3384190797805786
1761334233897389000,2.78338916015625,-0.2565632164478302,0.2559523284435272,-0.48991355299949646
1761334233916090600,2.802090576171875,-0.48075059056282043,0.2571740746498108,-0.3023780584335327
1761334233934792200,2.820792236328125,-0.5100721120834351,0.023823726922273636,-0.06719512492418289
1761334233953493500,2.839493408203125,-0.39828383922576904,-0.31581708788871765,0.07024945318698883
1761334233972194800,2.85819482421875,-0.18570289015769958,-0.5051851868629456,0.1288924664258957
1761334233990896400,2.876896484375,0.011606430634856224,-0.5369501113891602,0.11178825795650482
1761334234009597700,2.89559765625,0.10506874322891235,-0.4471530318260193,0.01893680728971958
1761334234028299300,2.91429931640625,0.10934479534626007,-0.32070401310920715,-0.04459312930703163
1761334234047000600,2.93300048828125,0.053145237267017365,-0.15149445831775665,-0.033597562462091446
1761334234065702100,2.9517021484375,0.004276053514331579,0.049480047076940536,-0.06597339361906052
1761334234084403500,2.970403564453125,-0.020158538594841957,0.287106454372406,-0.0818558782339096
1761334234103105000,2.98910498046875,-0.11972949653863907,0.3396408259868622,-0.05558869615197182
1761334234121806300,3.007806396484375,-0.29993459582328796,0.9413426518440247,0.3903425931930542
1761334234140508000,3.0265078125,-0.44470956921577454,1.9657628536224365,1.102000117301941
1761334234159209200,3.045209228515625,-0.22907429933547974,1.2388337850570679,0.7422007322311401
1761334234177910800,3.063910888671875,0.1698204129934311,-0.7648026943206787,0.34636032581329346
1761334234196612000,3.082612060546875,0.6957749724388123,-1.7238603830337524,0.5088503360748291
1761334234215313400,3.1013134765625,1.0855066776275635,-0.905912458896637,0.235793799161911
1761334234234015000,3.120014892578125,0.546113133430481,-0.06108647957444191,-0.11362084746360779
1761334234252716500,3.138716552734375,0.02932151034474373,0.08491020649671555,-0.3426951467990875
1761334234271417900,3.15741796875,-0.05436696484684944,-0.143553227186203,-0.268169641494751
1761334234290119200,3.176119140625,-0.10934479534626007,-0.1893680840730667,0.3494146466255188
1761334234308820700,3.19482080078125,-0.21991132199764252,0.01893680728971958,1.1814124584197998
1761334234327522000,3.21352197265625,-0.38240134716033936,0.12400554865598679,1.50028395652771
1761334234346223600,3.2322236328125,-0.41844236850738525,0.11972949653863907,1.1722495555877686
1761334234364925000,3.250925048828125,-0.22663083672523499,-0.004886918235570192,0.5418370366096497
1761334234383626500,3.26962646484375,-0.046425722539424896,-0.10201441496610641,0.024434590712189674
1761334234402327800,3.288327880859375,0.046425722539424896,-0.11667517572641373,-0.347582072019577
1761334234421029400,3.307029296875,0.1337793916463852,-0.22296564280986786,-0.5748237371444702
1761334234439730700,3.325730712890625,0.26389357447624207,-0.4166097939014435,-0.5949822664260864
1761334234458432300,3.344432373046875,0.3952295184135437,-0.6090322136878967,-0.4679224193096161
1761334234477133600,3.363133544921875,0.4819723069667816,-0.4880809485912323,-0.2620609998703003
1761334234495835100,3.381835205078125,0.34697118401527405,-0.2101374864578247,-0.05558869615197182
1761334234514536400,3.400536376953125,0.14233149588108063,0.0922405794262886,0.01954767294228077
1761334234533238000,3.419238037109375,-0.010995565913617611,0.44348782300949097,-0.07330377399921417
1761334234551939300,3.437939208984375,-0.10445787757635117,0.5516108870506287,-0.2364046722650528
1761334234570641000,3.456640869140625,-0.16859868168830872,0.7092140316963196,-0.1533270627260208
1761334234589342200,3.47534228515625,-0.40744680166244507,1.4538581371307373,0.3964512348175049
1761334234608043500,3.49404345703125,-0.4563159942626953,1.5204424858093262,0.4978547990322113
1761334234626745000,3.5127451171875,-0.2675587832927704,0.7660244107246399,-0.08002328872680664
1761334234645446700,3.53144677734375,0.34697118401527405,-0.5968148708343506,-0.915686309337616
1761334234664148000,3.55014794921875,1.2449424266815186,-1.7696752548217773,-1.6340632438659668
1761334234682849300,3.568849365234375,0.9920443892478943,-1.0684025287628174,-0.6652317643165588
1761334234701550800,3.58755078125,0.28527384996414185,-0.25534147024154663,0.6023126840591431
1761334234720252200,3.606252197265625,0.021991131827235222,-0.09285144507884979,1.1410953998565674
1761334234738953700,3.62495361328125,-0.25900667905807495,0.0360410213470459,1.1490366458892822
1761334234757655300,3.6436552734375,-0.6017017960548401,0.43371400237083435,1.035415768623352
1761334234776356600,3.662356689453125,-0.6835576891899109,1.0543526411056519,1.0238093137741089
1761334234795058000,3.681057861328125,-0.6096430420875549,1.3249657154083252,0.9144645929336548
1761334234813759500,3.699759521484375,-0.42455101013183594,1.0525200366973877,0.6310232877731323
1761334234832460800,3.718460693359375,-0.18081597983837128,0.45998117327690125,0.2467893660068512
1761334234851162400,3.737162353515625,0.04764745384454727,-0.031154103577136993,-0.18692462146282196
1761334234869863700,3.75586376953125,0.3139844834804535,-0.21868959069252014,-0.5112938284873962
1761334234888565000,3.77456494140625,0.5790998339653015,-0.31642794609069824,-0.6261364221572876
1761334234907266600,3.7932666015625,0.7550288438796997,-0.3280344009399414,-0.5112938284873962
1761334234925968100,3.811968017578125,0.7336485981941223,-0.25961753726005554,-0.2889390289783478
1761334234944669400,3.83066943359375,0.6206386089324951,0.003665188793092966,-0.059864748269319534
1761334234963371000,3.84937109375,0.4477638900279999,0.2669478952884674,0.018325943499803543
1761334234982072300,3.868072265625,0.30543237924575806,0.3842339515686035,-0.007941242307424545
1761334235000773600,3.886773681640625,0.24006985127925873,0.4972439408302307,0.07819069176912308
1761334235019475200,3.90547509765625,0.10384701192378998,0.8790343999862671,0.36163195967674255
1761334235038176800,3.9241767578125,-0.2767217457294464,1.4294235706329346,0.6743947267532349
1761334235056878000,3.942878173828125,-0.347582072019577,1.5375466346740723,0.3481929302215576
1761334235075579400,3.961579345703125,-0.06536252796649933,0.5839866995811462,-0.5540543794631958
1761334235094281000,3.980281005859375,0.6786707639694214,-1.7513493299484253,-2.0189080238342285
1761334235112982300,3.998982177734375,1.4233149290084839,-2.408639907836914,-2.0916008949279785
1761334235131683800,4.017683837890625,1.1820234060287476,-1.164919137954712,0.018325943499803543
1761334235150385200,4.03638525390625,0.43432486057281494,-0.4929678738117218,1.6352850198745728
1761334235169086700,4.055086669921875,0.037262752652168274,-0.4917461574077606,2.084270715713501
1761334235187788000,4.0737880859375,-0.34697118401527405,-0.43432486057281494,1.7800599336624146
1761334235206489600,4.092489501953125,-0.8124501705169678,0.2003636509180069,1.186299443244934
1761334235225191000,4.11119091796875,-1.0427461862564087,1.028085470199585,0.565049946308136
1761334235243892500,4.129892578125,-0.9761618971824646,1.285259485244751,0.3237583339214325
1761334235262593800,4.14859375,-0.7599157691001892,0.7458658814430237,0.2608392536640167
1761334235281295400,4.16729541015625,-0.4685332775115967,-0.1594357043504715,0.1233946830034256
1761334235299996700,4.18599658203125,-0.0824667438864708,-0.7220421433448792,-0.12156209349632263
1761334235318698000,4.204697998046875,0.31154105067253113,-0.8301652073860168,-0.31031930446624756
1761334235337399600,4.223399658203125,0.5473348498344421,-0.8069523572921753,-0.38179048895835876
1761334235356101000,4.24210107421875,0.5662716627120972,-0.7391464114189148,-0.287106454372406
1761334235374802400,4.260802490234375,0.401949018239975,-0.4935787320137024,-0.13500112295150757
1761334235393503700,4.279503662109375,0.21502439677715302,-0.10751219838857651,-0.056199558079242706
1761334235412205300,4.298205322265625,0.03787361457943916,0.1545487940311432,-0.0665842592716217
1761334235430907000,4.316906982421875,-0.11667517572641373,0.22418737411499023,-0.06780599057674408
1761334235449608200,4.335608154296875,-0.4068359434604645,1.0219768285751343,0.21685700118541718
1761334235468309500,4.3543095703125,-0.4251618981361389,1.4117084741592407,0.29077163338661194
1761334235487011000,4.373010986328125,-0.12400554865598679,0.8057306408882141,0.08124501258134842
1761334235505712400,4.39171240234375,0.34147340059280396,-0.3585776388645172,-0.2419024556875229
1761334235524414000,4.4104140625,1.2760965824127197,-1.8283182382583618,-1.1612539291381836
1761334235543115300,4.429115234375,1.4092650413513184,-1.588248372077942,-0.9669989347457886
1761334235561816800,4.44781689453125,0.7464767694473267,-0.26022839546203613,0.31459537148475647
1761334235580518100,4.46651806640625,0.19608759880065918,0.3384190797805786,0.8197805285453796
1761334235599219700,4.4852197265625,-0.2101374864578247,0.3555232882499695,0.6359102129936218
1761334235617921000,4.503921142578125,-0.4569268524646759,0.27000224590301514,0.21746785938739777
1761334235636622600,4.52262255859375,-0.4984656572341919,0.39767298102378845,0.011606430634856224
1761334235655324000,4.541323974609375,-0.4324922561645508,0.4373791813850403,0.09468404203653336
1761334235674025200,4.560025146484375,-0.42455101013183594,0.21380266547203064,0.18631376326084137
1761334235692726800,4.578726806640625,-0.4098902642726898,-0.07574722915887833,0.05925388261675835
1761334235711428000,4.597427978515625,-0.3127627670764923,-0.25473061203956604,-0.32620179653167725
1761334235730129700,4.616129638671875,-0.1178968995809555,-0.18753549456596375,-0.6817250847816467
1761334235748831200,4.634831298828125,0.06108647957444191,-0.025045456364750862,-0.8032872080802917
1761334235767532500,4.653532470703125,0.1185077652335167,-0.013439024798572063,-0.6682860851287842
1761334235786233900,4.67223388671875,0.1233946830034256,-0.0616973415017128,-0.4147771894931793
1761334235804935400,4.690935302734375,0.08124501258134842,0.08674279600381851,-0.21319180727005005
1761334235823636700,4.70963671875,0.01282816007733345,0.3530798554420471,-0.05925388261675835
1761334235842338300,4.72833837890625,-0.06719512492418289,0.39767298102378845,0.012217295356094837
1761334235861039600,4.74703955078125,-0.2162461280822754,0.38179048895835876,-0.047036588191986084
1761334235879741200,4.7657412109375,-0.389120876789093,1.0067051649093628,-0.27977606654167175
1761334235898442500,4.7844423828125,-0.45448338985443115,1.304807186126709,-0.7800742983818054
1761334235917144000,4.80314404296875,-0.2412915825843811,0.337808221578598,-1.166751742362976
1761334235935845400,4.821845458984375,0.5888736248016357,-1.8551963567733765,-1.9559890031814575
1761334235954547000,4.840546875,1.0140355825424194,-1.757457971572876,-1.518609881401062
1761334235973248300,4.859248291015625,0.22174391150474548,-0.37201663851737976,-0.19303326308727264
1761334235991949600,4.877949462890625,-0.4062250852584839,0.3805687427520752,-0.04214967042207718
1761334236010651100,4.896651123046875,-0.516791582107544,0.4862483739852905,-0.5766563415527344
1761334236029352700,4.915352783203125,-0.6407971382141113,0.22235478460788727,-0.7202095985412598
1761334236048054000,4.934053955078125,-0.6621774435043335,0.1637117564678192,-0.06352993845939636
1761334236066755600,4.952755615234375,-0.6633991599082947,0.06719512492418289,0.7483093738555908
1761334236085457000,4.971456787109375,-0.7269290685653687,-0.22907429933547974,1.0555742979049683
1761334236104158200,4.990158203125,-0.6352993845939636,-0.555276095867157,0.813671886920929
1761334236122859800,5.00885986328125,-0.3481929302215576,-0.5057960152626038,0.31031930446624756
1761334236141561000,5.02756103515625,-0.09896009415388107,-0.34636032581329346,-0.10995566099882126
1761334236160262700,5.0462626953125,-0.0256563201546669,-0.43310311436653137,-0.28954991698265076
1761334236178964000,5.0649638671875,-0.06414080411195755,-0.6591231226921082,-0.31459537148475647
1761334236197665500,5.08366552734375,-0.1178968995809555,-0.7831286191940308,-0.24801109731197357
1761334236216366800,5.102366943359375,-0.15760311484336853,-0.5937605500221252,-0.12034036219120026
1761334236235068400,5.121068359375,-0.205861434340477,-0.17104214429855347,-0.020158538594841957
1761334236253769700,5.139769775390625,-0.2577849328517914,0.16004657745361328,0.06414080411195755
1761334236272471300,5.15847119140625,-0.2993237376213074,0.03176496922969818,0.04520399495959282
1761334236291172600,5.177172607421875,-0.36651885509490967,-0.13011419773101807,0.20769402384757996
1761334236309874200,5.195874267578125,-0.39278605580329895,0.45937031507492065,0.5155698657035828
1761334236328575500,5.214575439453125,-0.09712749719619751,0.18814635276794434,0.318871408700943
1761334236347277000,5.233277099609375,0.30543237924575806,-1.2034035921096802,-0.2003636509180069
1761334236365978400,5.251978271484375,0.6322450637817383,-2.366490125656128,-1.6780455112457275
1761334236384679700,5.2706796875,0.6298015713691711,-0.2528980076313019,-2.1251986026763916
1761334236403381200,5.28938134765625,0.370184063911438,1.2333359718322754,-0.84177166223526
1761334236422082800,5.308082763671875,0.05253437161445618,0.24740023910999298,0.7134900689125061
1761334236440784100,5.3267841796875,-0.13744457066059113,-0.8692606091499329,1.6047418117523193
1761334236459485400,5.3454853515625,-0.41355544328689575,-0.4263836145401001,1.6694934368133545
1761334236478187000,5.36418701171875,-0.7996219992637634,0.7440332770347595,0.9016364216804504
1761334236496888300,5.382888427734375,-1.035415768623352,1.2724313735961914,-0.009162971749901772
1761334236515590000,5.40158984375,-1.0238093137741089,0.9040798544883728,-0.4471530318260193
1761334236534291200,5.420291259765625,-0.7794634699821472,0.10201441496610641,-0.4685332775115967
1761334236552992800,5.43899267578125,-0.5467239618301392,-0.45998117327690125,-0.4514290690422058
1761334236571694000,5.457694091796875,-0.3964512348175049,-0.6017017960548401,-0.6365211009979248
1761334236590395400,5.4763955078125,-0.3634645342826843,-0.6236929297447205,-0.9547816514968872
1761334236609097000,5.495096923828125,-0.3744601011276245,-0.4868592321872711,-1.2596031427383423
1761334236627798500,5.513798583984375,-0.30970844626426697,-0.11606431007385254,-1.3799434900283813
1761334236646499800,5.532499755859375,-0.22724169492721558,0.16676609218120575,-1.3115266561508179
1761334236665201200,5.551201171875,-0.10201441496610641,0.07757982611656189,-0.8930842876434326
1761334236683902700,5.56990283203125,-0.11911863088607788,-0.5186241865158081,-0.38850998878479004
1761334236702604000,5.58860400390625,-0.32620179653167725,-1.0225876569747925,-0.2260199636220932
1761334236721305600,5.6073056640625,-0.35674503445625305,-0.5601630210876465,-0.13133592903614044
1761334236740007000,5.6260068359375,-0.4428769648075104,0.44959646463394165,-0.01954767294228077
1761334236758708500,5.64470849609375,-0.544891357421875,1.2620465755462646,0.164322629570961
1761334236777409800,5.663409912109375,-0.5558869242668152,0.794124186038971,0.16615521907806396
1761334236796111400,5.682111328125,-0.6151408553123474,-0.6621774435043335,-0.20402882993221283
1761334236814812700,5.700812744140625,-0.2205221801996231,-2.1704025268554688,-1.3616175651550293
1761334236833514200,5.71951416015625,0.2461785078048706,-1.3078614473342896,-2.5198171138763428
1761334236852215600,5.738215576171875,0.1698204129934311,1.1911863088607788,-1.4679080247879028
1761334236870917000,5.756917236328125,-0.05497783049941063,1.6450588703155518,0.7550288438796997
1761334236889618400,5.775618408203125,-0.3958403766155243,0.2052505612373352,2.216217517852783
1761334236908320000,5.794320068359375,-0.45937031507492065,-0.6456840634346008,2.1636829376220703
1761334236927021300,5.813021240234375,-0.22968515753746033,0.0256563201546669,0.915686309337616
1761334236945723000,5.831722900390625,0.01282816007733345,1.091004490852356,-0.3280344009399414
1761334236964424200,5.850424072265625,0.09957095980644226,1.3017528057098389,-0.6322450637817383
1761334236983125500,5.86912548828125,-0.056810423731803894,0.5564978122711182,-0.21868959069252014
1761334237001827000,5.8878271484375,-0.1331685185432434,-0.18325942754745483,0.1386663019657135
1761334237020528600,5.906528564453125,0.05864302068948746,-0.2932150959968567,0.11667517572641373
1761334237039230000,5.92522998046875,0.2712239623069763,-0.10079269111156464,-0.11178825795650482
1761334237057931300,5.94393115234375,0.2730565667152405,-0.10140355676412582,-0.3952295184135437
1761334237076632800,5.9626328125,0.17837251722812653,-0.22174391150474548,-0.638353705406189
1761334237095334100,5.981334228515625,0.1899789422750473,-0.11484257876873016,-0.4196641147136688
1761334237114035700,6.00003564453125,0.16859868168830872,0.06963858753442764,0.07391463965177536
1761334237132737000,6.018737060546875,0.09468404203653336,0.03481929376721382,0.40378162264823914
1761334237151438600,6.0374384765625,0.059864748269319534,-0.1496618688106537,0.5308414697647095
1761334237170140000,6.056139892578125,-0.07330377399921417,-0.12767073512077332,0.573602020740509
1761334237188841200,6.07484130859375,-0.15515965223312378,0.07941242307424545,0.4612029194831848
1761334237207542800,6.093542724609375,-0.22296564280986786,0.021380268037319183,0.21135921776294708
1761334237226244400,6.112244384765625,-0.277332603931427,0.06780599057674408,0.1178968995809555
1761334237244945700,6.130945556640625,0.0977383628487587,-1.065959095954895,-0.8772017955780029
1761334237263647000,6.14964697265625,0.33658650517463684,-0.9957095980644226,-1.7085888385772705
1761334237282348500,6.1683486328125,0.13133592903614044,0.2565632164478302,-0.6346884965896606
1761334237301050000,6.187050048828125,-0.046425722539424896,0.2364046722650528,0.9969313144683838
1761334237319751400,6.20575146484375,0.01954767294228077,-0.4221075773239136,1.7934989929199219
1761334237338452700,6.22445263671875,-0.1178968995809555,-0.33169957995414734,1.5118902921676636
1761334237357154300,6.243154296875,-0.268169641494751,0.1282816082239151,0.7055488228797913
1761334237375855600,6.261855712890625,-0.2724456787109375,0.3995055556297302,0.20402882993221283
1761334237394557200,6.28055712890625,-0.2254091054201126,0.22968515753746033,0.06230820715427399
1761334237413258500,6.299258544921875,-0.16126830875873566,-0.23457208275794983,0.06230820715427399
1761334237431960000,6.3179599609375,-0.09346231073141098,-0.46975502371788025,-0.0616973415017128
1761334237450661400,6.336661376953125,0.013439024798572063,-0.6114756464958191,-0.39278605580329895
1761334237469363000,6.355363037109375,0.05070177838206291,-0.7458658814430237,-0.6444623470306396
1761334237497415000,6.383414794921875,0.1026252806186676,-0.6133082509040833,-0.6774490475654602
1761334237516116500,6.402116455078125,0.1490510106086731,-0.29443681240081787,-0.4557051360607147
1761334237534817800,6.42081787109375,0.12278381735086441,-0.1490510106086731,-0.11423171311616898
1761334237553519400,6.439519287109375,0.010995565913617611,-0.23335035145282745,0.27855435013771057
1761334237572220700,6.458220703125,-0.0769689604640007,-0.15821397304534912,0.41416633129119873
1761334237590922200,6.476922119140625,-0.013439024798572063,0.12034036219120026,0.3292561173439026
1761334237609623600,6.49562353515625,-0.07147117704153061,0.004276053514331579,0.06780599057674408
1761334237628324900,6.514324951171875,-0.15699224174022675,-0.3597993552684784,-0.20158538222312927
1761334237647026400,6.5330263671875,-0.06414080411195755,-0.37201663851737976,-0.3494146466255188
1761334237665728000,6.55172802734375,0.10506874322891235,-0.6065887212753296,-0.7373138070106506
1761334237684429300,6.57042919921875,0.2260199636220932,-1.0800089836120605,-1.8796309232711792
1761334237703130600,6.589130615234375,0.03787361457943916,0.38728827238082886,-1.2944225072860718
1761334237721832200,6.607832275390625,-0.2107483446598053,0.80389803647995,0.6261364221572876
1761334237740533500,6.626533447265625,-0.33719736337661743,0.13133592903614044,2.1704025268554688
1761334237759235000,6.645235107421875,-0.5009090900421143,-0.2009745091199875,2.7372851371765137
1761334237777936400,6.663936279296875,-0.7531962990760803,0.3591884970664978,2.0378448963165283
1761334237796638000,6.682637939453125,-0.8930842876434326,1.0140355825424194,1.1875211000442505
1761334237815339300,6.70133935546875,-0.833219587802887,0.7116574645042419,0.9786053895950317
1761334237834040800,6.720040771484375,-0.5955931544303894,-0.10690133273601532,0.8881973624229431
1761334237852742100,6.7387421875,-0.337808221578598,-0.370184063911438,0.4416552484035492
1761334237871443700,6.757443603515625,-0.12644900381565094,-0.28588470816612244,-0.24801109731197357
1761334237890145000,6.77614501953125,0.16676609218120575,-0.33658650517463684,-0.823445737361908
1761334237908846300,6.794846435546875,0.318871408700943,-0.5858193039894104,-1.0286962985992432
1761334237927548000,6.8135478515625,0.27366742491722107,-0.6023126840591431,-0.9089667797088623
1761334237946249500,6.83224951171875,0.2608392536640167,-0.20219624042510986,-0.6145299673080444
1761334237964950800,6.85095068359375,0.23335035145282745,0.0824667438864708,-0.33108872175216675
1761334237983652000,6.869652099609375,0.06475166976451874,0.16859868168830872,-0.17837251722812653
1761334238002353700,6.888353759765625,-0.009773836471140385,0.03848448023200035,-0.09712749719619751
1761334238021055000,6.907054931640625,0.025045456364750862,0.014660755172371864,0.014049889519810677
1761334238039756500,6.925756591796875,0.021380268037319183,0.2461785078048706,0.028099779039621353
1761334238058457900,6.944457763671875,0.01954767294228077,0.05803215503692627,-0.258395791053772
1761334238077159400,6.963159423828125,0.1747073233127594,-0.545502245426178,-0.5174024701118469
1761334238095860700,6.98186083984375,0.32620179653167725,-0.8124501705169678,-0.9236275553703308
1761334238114562000,7.00056201171875,0.62857985496521,-0.9651663303375244,-2.3518292903900146
1761334238133263600,7.019263671875,0.5534434914588928,0.3494146466255188,-2.4801111221313477
1761334238151965200,7.037965087890625,0.3805687427520752,0.9419534802436829,-0.40866854786872864
1761334238170666500,7.05666650390625,0.19914191961288452,0.13439024984836578,1.5412118434906006
1761334238189367800,7.075367919921875,-0.07391463965177536,-0.13011419773101807,2.5692973136901855
1761334238208069400,7.0940693359375,-0.3549124300479889,0.5882627964019775,2.3622140884399414
1761334238226771000,7.11277099609375,-0.5595521330833435,1.3732240200042725,1.4385865926742554
1761334238245472300,7.13147216796875,-0.6194168925285339,1.4129302501678467,0.8692606091499329
1761334238264173600,7.150173583984375,-0.4740310609340668,0.5369501113891602,0.7220421433448792
1761334238282875100,7.168875244140625,-0.22968515753746033,-0.21807873249053955,0.5479456782341003
1761334238301576400,7.187576416015625,-0.05070177838206291,-0.48013970255851746,0.08552107214927673
1761334238320278000,7.206278076171875,0.11362084746360779,-0.5558869242668152,-0.5247328281402588
1761334238338979300,7.224979248046875,0.27488914132118225,-0.5571087002754211,-0.9517273306846619
1761334238357681000,7.243680908203125,0.3439168632030487,-0.5534434914588928,-0.916297197341919
1761334238376382200,7.26238232421875,0.40805765986442566,-0.4379900395870209,-0.5974257588386536
1761334238395083500,7.28108349609375,0.3805687427520752,-0.2254091054201126,-0.22846342623233795
1761334238413785000,7.29978515625,0.32681265473365784,-0.12217295914888382,0.004276053514331579
1761334238432486700,7.318486572265625,0.27000224590301514,-0.18814635276794434,0.09468404203653336
1761334238451188000,7.33718798828125,0.19914191961288452,-0.12950333952903748,0.0769689604640007
1761334238469889300,7.35588916015625,0.25900667905807495,-0.13011419773101807,-0.16065743565559387
1761334238488590800,7.3745908203125,0.2620609998703003,-0.3451386094093323,-0.45448338985443115
1761334238507292200,7.393292236328125,0.2968802750110626,-0.7452550530433655,-0.7458658814430237
1761334238525993700,7.41199365234375,0.5283980369567871,-0.9969313144683838,-1.0769546031951904
1761334238544695000,7.430695068359375,0.7006618976593018,-1.084285020828247,-1.7916663885116577
1761334238563396600,7.449396728515625,0.4007273018360138,-0.5705476999282837,-2.3060145378112793
1761334238582098000,7.468097900390625,0.16676609218120575,0.2919933497905731,-1.1899645328521729
1761334238600799200,7.48679931640625,0.14172062277793884,0.40255987644195557,0.5778780579566956
1761334238619500800,7.505500732421875,0.10323614627122879,0.10873392969369888,1.8661918640136719
1761334238638202000,7.5242021484375,-0.036651886999607086,0.09712749719619751,2.4049746990203857
1761334238656903700,7.542903564453125,-0.2809978127479553,0.5204567909240723,2.1801764965057373
1761334238675605000,7.56160498046875,-0.5693259835243225,1.0903936624526978,1.4734058380126953
1761334238694306600,7.580306640625,-0.7006618976593018,1.368947982788086,0.9957095980644226
1761334238713007900,7.5990078125,-0.6872228980064392,1.1197150945663452,0.896138608455658
1761334238731709400,7.61770947265625,-0.6212494969367981,0.5290089249610901,0.7617483735084534
1761334238750410800,7.63641064453125,-0.6078104376792908,-0.01893680728971958,0.47464191913604736
1761334238769112300,7.6551123046875,-0.4825831651687622,-0.23273947834968567,0.05436696484684944
1761334238787813600,7.673813720703125,-0.277332603931427,-0.030543239787220955,-0.4563159942626953
1761334238806515200,7.69251513671875,-0.13683371245861053,0.21319180727005005,-0.7965676784515381
1761334238825216500,7.711216552734375,-0.17531819641590118,0.4056142270565033,-0.8796452879905701
1761334238843918000,7.72991796875,-0.2724456787109375,0.7715222239494324,-0.7672461867332458
1761334238862619400,7.748619384765625,-0.21258094906806946,1.0213658809661865,-0.675616443157196
1761334238881320700,7.76732080078125,-0.05742128938436508,0.6548470258712769,-0.6401863098144531
1761334238900022300,7.786022216796875,0.2009745091199875,-0.0873536616563797,-0.4007273018360138
1761334238918723600,7.8047236328125,0.2559523284435272,-0.37323838472366333,0.17898337543010712
1761334238937425200,7.823425048828125,0.1380554437637329,0.43860089778900146,0.7574723362922668
1761334238956126500,7.84212646484375,0.16676609218120575,0.8497129082679749,0.5106829404830933
1761334238974828000,7.860828125,0.39767298102378845,-0.7757982611656189,-0.9694424271583557
1761334238993529300,7.879529296875,0.39217519760131836,-2.0879359245300293,-2.3628249168395996
1761334239012231000,7.89823095703125,0.25350889563560486,-0.4831940531730652,-1.9755367040634155
1761334239030932200,7.91693212890625,0.2370155304670334,1.5277727842330933,-0.16737695038318634
1761334239049633500,7.935633544921875,0.2669478952884674,0.8527672290802002,1.3793326616287231
1761334239068335000,7.954335205078125,0.23823726177215576,-0.7880155444145203,2.6028947830200195
1761334239087036700,7.97303662109375,0.07574722915887833,-0.8552106618881226,2.936426877975464
1761334239105738000,7.991738037109375,-0.29138249158859253,0.2461785078048706,2.13191819190979
1761334239124439300,8.010439208984375,-0.6175842881202698,1.2748748064041138,1.1331541538238525
1761334239143140900,8.029140869140624,-0.739757239818573,1.4080432653427124,0.6047561168670654
1761334239161842200,8.04784228515625,-0.6047561168670654,0.5772672295570374,0.3591884970664978
1761334239180543700,8.066543701171875,-0.33169957995414734,-0.20769402384757996,0.19914191961288452
1761334239199245000,8.0852451171875,-0.1594357043504715,-0.5467239618301392,-0.09285144507884979
1761334239217946600,8.103946533203125,-0.09285144507884979,-0.5821541547775269,-0.49968740344047546
1761334239236648000,8.12264794921875,-0.13561198115348816,-0.45875945687294006,-0.8741474747657776
1761334239255349200,8.141349365234374,-0.15577052533626556,-0.2626718580722809,-0.9883792400360107
1761334239274050800,8.16005078125,-0.01893680728971958,-0.17837251722812653,-0.8625410795211792
1761334239292752100,8.178752197265625,0.20891575515270233,-0.23884813487529755,-0.6450732350349426
1761334239311453700,8.19745361328125,0.37690356373786926,-0.42332929372787476,-0.35796675086021423
1761334239330155000,8.216155029296875,0.35246896743774414,-0.3439168632030487,0.06597339361906052
1761334239348856600,8.234856689453125,0.21197007596492767,-0.12217295914888382,0.31031930446624756
1761334239367558000,8.253557861328124,0.11667517572641373,0.42332929372787476,0.2761108875274658
1761334239386259500,8.272259521484376,0.020158538594841957,1.4098758697509766,0.28588470816612244
1761334239404960800,8.290960693359375,0,1.2168426513671875,0.25411975383758545
1761334239423662000,8.309662109375,-0.04276053607463837,-0.4355465769767761,-0.3842339515686035
1761334239442363600,8.32836376953125,0.13622283935546875,-2.260810613632202,-1.7238603830337524
1761334239461065200,8.347065185546874,0.31031930446624756,-1.147204041481018,-1.96148681640625
1761334239479766500,8.3657666015625,0.16798780858516693,0.8796452879905701,-0.7275399565696716
1761334239498467800,8.3844677734375,0.09346231073141098,0.8448259830474854,0.7195987105369568
1761334239517169400,8.40316943359375,0.003665188793092966,-0.5082395076751709,1.7831143140792847
1761334239535870700,8.42187060546875,-0.15577052533626556,-0.9786053895950317,2.0689990520477295
1761334239554572300,8.440572265625,-0.3652971386909485,-0.05253437161445618,1.4917317628860474
1761334239573273600,8.459273681640624,-0.5491674542427063,0.9761618971824646,0.6780598759651184
1761334239591975200,8.47797509765625,-0.6053670048713684,1.2431098222732544,0.2205221801996231
1761334239610676500,8.496676513671876,-0.526565432548523,0.7751874327659607,0.16676609218120575
1761334239629377800,8.515377685546875,-0.4770853817462921,0.010384701192378998,0.2254091054201126
1761334239648079400,8.534079345703125,-0.3390299379825592,-0.3530798554420471,0.15088360011577606
1761334239666780700,8.55278076171875,-0.11728604137897491,-0.3335321843624115,-0.16676609218120575
1761334239685482200,8.571482177734374,0.0616973415017128,-0.35613417625427246,-0.5375609993934631
1761334239704183600,8.59018359375,0.12278381735086441,-0.4007273018360138,-0.8155044913291931
1761334239722884900,8.608884765625,0.20158538222312927,-0.5259546041488647,-0.9034690260887146
1761334239741586400,8.62758642578125,0.2412915825843811,-0.7562506198883057,-0.9584468603134155
1761334239760288000,8.6462880859375,0.27366742491722107,-0.8484911918640137,-1.1160500049591064
1761334239778989300,8.6649892578125,0.24434591829776764,-0.48563748598098755,-0.9578359723091125
1761334239797690600,8.683690673828124,-0.021380268037319183,0.26389357447624207,-0.42882707715034485
1761334239816392200,8.70239208984375,-0.25411975383758545,0.48013970255851746,-0.19120067358016968
1761334239835093500,8.721093505859375,-0.16737695038318634,0.4147771894931793,-0.3652971386909485
1761334239853795000,8.739795166015625,0.03481929376721382,-0.4770853817462921,-0.915686309337616
1761334239872496400,8.758496337890625,-0.000610864779446274,-1.5937461853027344,-1.7678426504135132
1761334239891197700,8.77719775390625,-0.09346231073141098,-0.5858193039894104,-1.7470732927322388
1761334239909899300,8.795899169921874,0.06108647957444191,0.8649845123291016,-0.5888736248016357
1761334239928600800,8.814600830078126,0.16065743565559387,0.6414080262184143,0.7751874327659607
1761334239947302100,8.83330224609375,0.0824667438864708,-0.6352993845939636,1.907119870185852
1761334239966003500,8.85200341796875,-0.08063415437936783,-1.1679733991622925,2.1667373180389404
1761334239984705000,8.870705078125,-0.2559523284435272,-0.39339691400527954,1.3732240200042725
1761334240003406300,8.88940625,-0.3536907136440277,0.5925388336181641,0.5051851868629456
1761334240022108000,8.90810791015625,-0.37629270553588867,0.9266818761825562,0.2559523284435272
1761334240040809200,8.926809326171876,-0.36285367608070374,0.5057960152626038,0.41844236850738525
1761334240059510500,8.945510498046875,-0.3023780584335327,-0.1692095398902893,0.5790998339653015
1761334240078212000,8.964212158203125,-0.16065743565559387,-0.44470956921577454,0.4221075773239136
1761334240096913400,8.982913330078125,-0.000610864779446274,-0.43860089778900146,-0.039706211537122726
1761334240115615000,9.001614990234375,0.08491020649671555,-0.43921178579330444,-0.5332849621772766
1761334240134316300,9.02031640625,-0.0030543238390237093,-0.5613847374916077,-0.7733548283576965
1761334240153017900,9.039017822265626,-0.0054977829568088055,-0.5412262082099915,-0.7611374855041504
1761334240171719200,9.05771923828125,0.017715077847242355,-0.5577195286750793,-0.8582650423049927
1761334240190420700,9.076420654296875,0.07024945318698883,-0.41294458508491516,-0.8967494964599609
1761334240209122000,9.0951220703125,0.06841685622930527,0.050090912729501724,-0.6542361974716187
1761334240227823400,9.1138232421875,0.014049889519810677,0.6310232877731323,-0.02871064469218254
1761334240246525000,9.13252490234375,0.07269290834665298,0.8906408548355103,0.6444623470306396
1761334240265226200,9.151226318359376,0.40927940607070923,0.03848448023200035,0.6053670048713684
1761334240283927800,9.169927734375,0.8118392825126648,-1.915061116218567,-0.656679630279541
1761334240302629000,9.188629150390625,0.6261364221572876,-1.8252639770507812,-1.5228859186172485
1761334240321330700,9.20733056640625,0.2254091054201126,0.48013970255851746,-1.1905754804611206
1761334240340032000,9.226031982421874,0.15149445831775665,1.5986331701278687,-0.17043127119541168
1761334240358733300,9.2447333984375,0.1380554437637329,0.5876519083976746,0.7464767694473267
1761334240377435000,9.263434814453126,0.007941242307424545,-0.44348782300949097,1.3084723949432373
1761334240396136200,9.28213623046875,-0.018325943499803543,-0.3744601011276245,1.414151906967163
1761334240414837800,9.300837646484375,-0.07635809481143951,0.2706131041049957,1.1050543785095215
1761334240433539000,9.3195390625,-0.2828303873538971,0.8026763200759888,0.749531090259552
1761334240452240400,9.338240478515624,-0.5338957905769348,0.924238383769989,0.5766563415527344
1761334240470942000,9.35694189453125,-0.6352993845939636,0.4324922561645508,0.5131264328956604
1761334240489643500,9.3756435546875,-0.5210676789283752,-0.09101885557174683,0.4269944727420807
1761334240508344800,9.3943447265625,-0.35735589265823364,-0.2577849328517914,0.3585776388645172
1761334240527046100,9.413046142578125,-0.27550002932548523,-0.2608392536640167,0.23396120965480804
1761334240545747700,9.431747802734375,-0.24984370172023773,-0.31581708788871765,0.028099779039621353
1761334240564449000,9.450448974609374,-0.2461785078048706,-0.41355544328689575,-0.18875721096992493
1761334240583150600,9.469150634765626,-0.2162461280822754,-0.5864301919937134,-0.4159989058971405
1761334240601852000,9.487851806640625,-0.16310089826583862,-0.8338304162025452,-0.6071996092796326
1761334240620553200,9.50655322265625,-0.14294235408306122,-0.7183769941329956,-0.8307760953903198
1761334240639254800,9.5252548828125,-0.1178968995809555,-0.26022839546203613,-1.1227694749832153
1761334240657956000,9.5439560546875,-0.1954767256975174,0.5430588126182556,-1.1673625707626343
1761334240676657700,9.56265771484375,-0.2706131041049957,1.1465932130813599,-0.17531819641590118
1761334240695359000,9.58135888671875,0.07024945318698883,0.14599667489528656,0.6976075768470764
1761334240714060300,9.600060302734375,0.42882707715034485,-2.1862850189208984,0.06475166976451874
1761334240732761900,9.618761962890625,0.462424635887146,-2.4465134143829346,-1.2467750310897827
1761334240751463400,9.63746337890625,-0.002443459117785096,-0.35613417625427246,-2.772104263305664
1761334240770164700,9.656164794921875,-0.287106454372406,1.8600832223892212,-2.9516985416412354
1761334240788866000,9.674865966796874,-0.31031930446624756,0.8820887207984924,-1.915061116218567
1761334240807567400,9.6935673828125,-0.16310089826583862,-1.6114612817764282,-0.7965676784515381
1761334240826269000,9.71226904296875,0.09590577334165573,-1.92666757106781,-0.164322629570961
1761334240844970500,9.730970458984375,-0.015271619893610477,-0.4263836145401001,-0.02626718580722809
1761334240863671800,9.749671875,-0.3952295184135437,0.6517927050590515,-0.16615521907806396
1761334240882373000,9.768373046875,-0.4667007029056549,0.7049379348754883,-0.09834922850131989
1761334240901074700,9.78707470703125,-0.48563748598098755,0.21319180727005005,0.2938259541988373
1761334240919776000,9.80577587890625,-0.4465421438217163,-0.043982263654470444,0.6298015713691711
1761334240938477600,9.8244775390625,-0.39889469742774963,0.05925388261675835,0.7629700899124146
1761334240957179000,9.843178955078125,-0.3451386094093323,0.15027274191379547,0.7611374855041504
1761334240975880200,9.861880126953125,-0.43493571877479553,0.10629047453403473,0.6426297426223755
1761334240994581800,9.880581787109374,-0.4917461574077606,0.3274235129356384,0.3805687427520752
1761334241013283000,9.899282958984376,-0.544891357421875,0.4935787320137024,0.06597339361906052
1761334241031984600,9.917984619140626,-0.4465421438217163,0.6719512343406677,0.008552107028663158
1761334241050686000,9.93668603515625,-0.14172062277793884,0.9401208758354187,-0.056810423731803894
1761334241069387300,9.95538720703125,0.2205221801996231,1.268766164779663,-0.08429934084415436
1761334241088088800,9.9740888671875,0.33108872175216675,1.2315033674240112,-0.046425722539424896
1761334241106790100,9.9927900390625,0.23518294095993042,0.8564324378967285,0.13683371245861053
1761334241125491700,10.01149169921875,0.22724169492721558,0.20219624042510986,0.49602219462394714
1761334241144193000,10.030193115234376,0.21441353857517242,-0.2419024556875229,0.7006618976593018
1761334241162894300,10.048894287109375,0.11606431007385254,-0.8637627959251404,0.2510654330253601
1761334241181596000,10.067595947265625,-0.1802051067352295,-1.1123847961425781,-0.9547816514968872
1761334241200297500,10.08629736328125,-0.2315177470445633,0.20341797173023224,-1.5888593196868896
1761334241218998800,10.104998779296874,-0.006108647678047419,0.9107993841171265,-1.1447606086730957
1761334241237700000,10.1237001953125,-0.04214967042207718,0.3799578845500946,-0.33108872175216675
1761334241256401700,10.142401611328125,-0.3610210716724396,-0.37201663851737976,0.41355544328689575
1761334241275103000,10.16110302734375,-0.471587598323822,-0.647516667842865,0.7837395071983337
1761334241293804500,10.179804443359375,-0.2626718580722809,-0.24862197041511536,0.66645348072052
1761334241312505900,10.198505859375,-0.08002328872680664,0.14233149588108063,0.430659681558609
1761334241331207200,10.217207275390624,-0.07452550530433655,-0.026878049597144127,0.4465421438217163
1761334241349908700,10.23590869140625,-0.07269290834665298,-0.1380554437637329,0.5540543794631958
1761334241368610000,10.254610107421875,-0.0720820426940918,0.18692462146282196,0.5919279456138611
1761334241387311600,10.2733115234375,-0.04459312930703163,0.2938259541988373,0.6530144214630127
1761334241406013000,10.292012939453125,0.0873536616563797,0.07391463965177536,0.5186241865158081
1761334241424714200,10.31071435546875,0.16126830875873566,-0.030543239787220955,0.020769402384757996
1761334241443415800,10.329415771484374,0.27488914132118225,-0.14538581669330597,-0.46059203147888184
