time,seconds_elapsed,z,y,x
1761334231186771200,0.072771240234375,9.978070259094238,5.120640277862549,-1.2346965074539185
1761334231205472800,0.09147265625,9.487542152404785,5.065605640411377,-1.0432707071304321
1761334231224174300,0.11017431640625,8.011170387268066,5.292923450469971,-1.093519926071167
1761334231242875600,0.128875732421875,6.599404811859131,4.977071285247803,-0.9260223507881165
1761334231261577200,0.1475771484375,6.276373863220215,5.355136871337891,0.004785645287483931
1761334231280278500,0.166278564453125,6.020341873168945,5.364708423614502,1.2849457263946533
1761334231298980000,0.18497998046875,6.147161483764648,4.756931304931641,0.9786644577980042
1761334231317681400,0.203681396484375,6.608976364135742,3.594019651412964,0.040677983313798904
1761334231336383000,0.222383056640625,6.601797580718994,2.9383862018585205,-0.4713860750198364
1761334231355084300,0.241084228515625,5.680561065673828,1.911865234375,-0.9475577473640442
1761334231373785900,0.259785888671875,5.304887771606445,1.6366907358169556,-0.6891329288482666
1761334231392487200,0.278487060546875,6.872186660766602,2.1678972244262695,0.4211367964744568
1761334231411188700,0.297188720703125,8.516056060791016,2.957528829574585,1.1078768968582153
1761334231429890000,0.31589013671875,8.599804878234863,3.115455150604248,1.9836499691009521
1761334231448591600,0.334591552734375,7.252645492553711,3.957728624343872,1.7754744291305542
1761334231467293200,0.353293212890625,8.317451477050781,8.09252643585205,-5.039284706115723
1761334231485994500,0.371994384765625,9.920642852783203,6.5419769287109375,-4.658825874328613
1761334231504696000,0.390696044921875,11.868400573730469,6.192625045776367,-2.8187451362609863
1761334231523397400,0.4093974609375,16.59661865234375,6.798008918762207,-1.00259268283844
1761334231542098700,0.4280986328125,19.00140380859375,8.803194046020508,-0.9212366938591003
1761334231560800300,0.44680029296875,18.85783576965332,11.875578880310059,-1.1174482107162476
1761334231579501800,0.465501708984375,19.578075408935547,10.837093353271484,-1.0528420209884644
1761334231598203100,0.484203125,19.599609375,9.820143699645996,0.6580262184143066
1761334231616904700,0.50290478515625,17.692529678344727,8.228917121887207,3.4719855785369873
1761334231635606000,0.52160595703125,12.844672203063965,6.314659118652344,3.3092737197875977
1761334231654307300,0.540307373046875,8.367700576782227,4.326223373413086,1.8544375896453857
1761334231673009000,0.5590087890625,7.491927623748779,0.7178468108177185,0.8470591902732849
1761334231691710500,0.57771044921875,6.865008354187012,0.4785645306110382,-0.2727817893028259
1761334231710411800,0.596411865234375,4.383651256561279,-0.8973084688186646,0.36610186100006104
1761334231729113300,0.61511328125,0.8470591902732849,-1.277767300605774,-0.9571290612220764
1761334231747814700,0.633814697265625,-2.1822543144226074,-1.852044701576233,-1.794616937637329
1761334231766516000,0.652515869140625,-3.5461630821228027,-1.7563318014144897,-2.038684844970703
1761334231785217500,0.671217529296875,-4.01037073135376,-1.6654045581817627,-1.6917256116867065
1761334231803919000,0.689919189453125,-3.6634113788604736,-1.588834285736084,-1.2969099283218384
1761334231822620400,0.708620361328125,0.27756741642951965,-0.851844847202301,-1.8089739084243774
1761334231841322000,0.727322021484375,0.4019941985607147,-0.3852444589138031,0.1698904037475586
1761334231860023300,0.746023193359375,2.122433662414551,-0.13639089465141296,1.552941918373108
1761334231878724900,0.764724853515625,4.859822750091553,0.7106683254241943,2.641676187515259
1761334231897426200,0.78342626953125,8.276773452758789,2.359323024749756,3.077169895172119
1761334231916127700,0.802127685546875,13.720444679260254,5.309673309326172,3.34995174407959
1761334231934829000,0.8208291015625,20.425134658813477,9.265008926391602,3.3858439922332764
1761334231953530600,0.839530517578125,22.700708389282227,13.988441467285156,0.6939185857772827
1761334231972232000,0.85823193359375,20.81516456604004,18.278772354125977,2.3330020904541016
1761334231990933500,0.87693359375,21.789043426513672,19.377077102661133,6.530013084411621
1761334232009634800,0.895634765625,26.02433967590332,16.644474029541016,10.96630573272705
1761334232028336400,0.91433642578125,29.10150909423828,13.737195014953613,12.622138977050781
1761334232047037700,0.93303759765625,24.868606567382812,9.418149948120117,8.240880966186523
1761334232065739300,0.9517392578125,15.780665397644043,4.926821708679199,1.9884356260299683
1761334232084440600,0.970440673828125,6.283552169799805,0.727418065071106,-1.4093725681304932
1761334232103142100,0.98914208984375,0.007178467698395252,-2.493321180343628,-3.153740167617798
1761334232121843500,1.007843505859375,-4.242474555969238,-3.9984066486358643,-3.2135608196258545
1761334232140545000,1.026544921875,-7.001399040222168,-4.211368083953857,-2.1272194385528564
1761334232159246300,1.045246337890625,-7.1162543296813965,-4.053441524505615,-2.919243574142456
1761334232177948000,1.063947998046875,-5.706881999969482,-3.799802303314209,-3.6227335929870605
1761334232196649200,1.082649169921875,-3.6993038654327393,-3.328416347503662,-3.3092737197875977
1761334232215350800,1.101350830078125,-1.7228323221206665,-2.455035924911499,-1.5649060010910034
1761334232234052000,1.120052001953125,1.0336993932724,-1.6103696823120117,0.6795616149902344
1761334232252753700,1.138753662109375,3.7088751792907715,-0.7010970115661621,1.8424733877182007
1761334232271455000,1.157455078125,5.309673309326172,0.3158525824546814,2.6081767082214355
1761334232290156500,1.176156494140625,5.907878875732422,1.3567304611206055,2.59621262550354
1761334232308857900,1.19485791015625,7.444071292877197,3.046063184738159,1.1820544004440308
1761334232327559400,1.213559326171875,12.543176651000977,5.737988471984863,1.9884356260299683
1761334232346260700,1.2322607421875,17.826528549194336,9.882357597351074,3.2925238609313965
1761334232364962300,1.25096240234375,18.532411575317383,14.067404747009277,0.5647061467170715
1761334232383663600,1.26966357421875,19.429719924926758,17.74756622314453,-0.3732803463935852
1761334232402365200,1.288365234375,21.09033966064453,18.80280113220215,-0.5670989751815796
1761334232421066500,1.30706640625,23.231914520263672,18.065811157226562,1.28255295753479
1761334232439768000,1.32576806640625,27.342784881591797,16.39322853088379,7.891529083251953
1761334232458469400,1.344469482421875,27.39781951904297,13.052847862243652,9.265008926391602
1761334232477171000,1.3631708984375,20.379671096801758,8.779266357421875,4.517649173736572
1761334232495872300,1.381872314453125,12.287144660949707,4.393222332000732,1.4189438819885254
1761334232514573800,1.40057373046875,5.271388053894043,0.04785645380616188,-0.12442677468061447
1761334232533275100,1.419275146484375,-1.0791629552841187,-2.60339093208313,-1.7778671979904175
1761334232551976700,1.437976806640625,-5.97727108001709,-4.024727821350098,-3.0317063331604004
1761334232570678000,1.456677978515625,-7.915457248687744,-4.0079779624938965,-3.924229145050049
1761334232589379600,1.475379638671875,-7.245467185974121,-3.541377544403076,-4.015156269073486
1761334232608081000,1.494080810546875,-5.111069202423096,-2.991028308868408,-3.146561861038208
1761334232626782500,1.512782470703125,-2.445464849472046,-2.242074728012085,-1.5314065217971802
1761334232645483800,1.53148388671875,0.32303106784820557,-1.552941918373108,0.7345965504646301
1761334232664185300,1.550185302734375,3.029313564300537,-0.8877372145652771,2.871387243270874
1761334232682886700,1.56888671875,4.706682205200195,-0.34217363595962524,3.160918712615967
1761334232701588200,1.587588134765625,4.9124650955200195,0.4426721930503845,3.0077781677246094
1761334232720289500,1.60628955078125,4.249652862548828,1.4835500717163086,2.053041934967041
1761334232738991000,1.6249912109375,5.529813289642334,2.7589244842529297,0.9212366938591003
1761334232757692400,1.6436923828125,8.80798053741455,4.627718925476074,2.012363910675049
1761334232776394000,1.66239404296875,15.570096969604492,8.10688304901123,3.6394832134246826
1761334232795095300,1.68109521484375,21.28176498413086,11.48076343536377,2.400001049041748
1761334232813796900,1.699796875,19.113866806030273,15.39781379699707,-2.63449764251709
1761334232832498200,1.718498291015625,17.632709503173828,19.228723526000977,-4.254438877105713
1761334232851199700,1.73719970703125,18.41994857788086,19.89153480529785,-2.56510591506958
1761334232869901000,1.755901123046875,23.751157760620117,16.7736873626709,4.776073932647705
1761334232888602600,1.7746025390625,31.051658630371094,14.270793914794922,11.389835357666016
1761334232907304000,1.793303955078125,27.63231658935547,11.466405868530273,9.702896118164062
1761334232926005500,1.812005615234375,17.986846923828125,7.953742504119873,6.501298904418945
1761334232944706800,1.830706787109375,5.816951751708984,3.7950167655944824,3.9936211109161377
1761334232963408400,1.849408447265625,-3.2374889850616455,-0.34217363595962524,0.05742774158716202
1761334232982109700,1.868109619140625,-6.1088762283325195,-3.1920254230499268,-3.31884503364563
1761334233000811300,1.886811279296875,-6.278766632080078,-3.689732551574707,-4.620540618896484
1761334233019512600,1.9055126953125,-5.996413707733154,-3.510270833969116,-4.058227062225342
1761334233038214100,1.924214111328125,-5.4556355476379395,-2.9790642261505127,-3.129812002182007
1761334233056915500,1.94291552734375,-3.9122650623321533,-2.4837498664855957,-2.5842485427856445
1761334233075617000,1.961616943359375,-1.8855443000793457,-1.710868239402771,-1.1820544004440308
1761334233094318300,1.980318359375,1.0504491329193115,-1.100698471069336,1.031306505203247
1761334233113020000,1.99902001953125,3.845266103744507,-0.2560320198535919,2.9359934329986572
1761334233131721200,2.01772119140625,5.412564754486084,0.607776939868927,3.3954153060913086
1761334233150422500,2.036422607421875,5.4867424964904785,1.4979069232940674,2.9862427711486816
1761334233169124000,2.0551240234375,4.984249591827393,2.218146562576294,2.4119651317596436
1761334233187825700,2.07382568359375,5.599205017089844,2.8115665912628174,1.6031911373138428
1761334233206527000,2.09252685546875,8.396414756774902,4.213760852813721,1.4213366508483887
1761334233225228500,2.111228515625,14.117653846740723,8.14516830444336,2.242074728012085
1761334233243929900,2.129929931640625,18.238094329833984,12.911670684814453,0.4426721930503845
1761334233262631200,2.148631103515625,15.924234390258789,17.10628890991211,-3.8763725757598877
1761334233281332700,2.167332763671875,14.926427841186523,19.812570571899414,-5.788238048553467
1761334233300034300,2.186034423828125,19.17847442626953,18.407983779907227,-0.7848458290100098
1761334233318735600,2.204735595703125,32.02314376831055,14.081761360168457,9.889535903930664
1761334233337437000,2.22343701171875,37.076786041259766,12.014362335205078,13.861621856689453
1761334233356138500,2.242138427734375,29.297719955444336,10.849058151245117,9.087940216064453
1761334233374839800,2.26083984375,17.103897094726562,8.516056060791016,4.3310089111328125
1761334233393541400,2.279541259765625,4.907679080963135,4.737788677215576,2.1535403728485107
1761334233412243000,2.298242919921875,-2.526820659637451,0.28953152894973755,-0.41156548261642456
1761334233430944300,2.3169443359375,-4.4721856117248535,-2.7110681533813477,-2.5746772289276123
1761334233449645600,2.3356455078125,-4.548755645751953,-3.8739798069000244,-3.5054850578308105
1761334233468347100,2.35434716796875,-4.88853645324707,-4.019941806793213,-3.8811583518981934
1761334233487048700,2.373048583984375,-5.5034918785095215,-3.579662561416626,-3.6849467754364014
1761334233505750000,2.39175,-5.2115678787231445,-2.8211379051208496,-3.1561331748962402
1761334233524451300,2.410451416015625,-3.775874137878418,-2.344966173171997,-1.9860427379608154
1761334233543153000,2.42915283203125,-1.275374412536621,-1.6582261323928833,0.5359922647476196
1761334233561854200,2.447854248046875,1.1940184831619263,-0.7992027401924133,2.280359983444214
1761334233580555800,2.4665556640625,2.7254250049591064,-0.09571290761232376,3.0101709365844727
1761334233599257000,2.485257080078125,2.7493531703948975,0.6436693072319031,2.8833513259887695
1761334233617958700,2.503958740234375,2.6799614429473877,1.0648061037063599,2.6081767082214355
1761334233636660000,2.522659912109375,4.302295207977295,2.1200408935546875,1.160519003868103
1761334233655361500,2.541361572265625,9.21715259552002,4.084548473358154,1.1102696657180786
1761334233674062800,2.560062744140625,19.17847442626953,7.585247993469238,3.81655216217041
1761334233692764400,2.578764404296875,23.576480865478516,11.023734092712402,1.5625132322311401
1761334233711465700,2.5974658203125,17.462820053100586,16.414762496948242,-4.2831525802612305
1761334233730167300,2.616167236328125,11.988041877746582,19.7742862701416,-8.305487632751465
1761334233748868600,2.63486865234375,13.49312686920166,18.798015594482422,-5.9198431968688965
1761334233767570000,2.65356982421875,27.268606185913086,13.832907676696777,5.972485542297363
1761334233786271500,2.672271484375,33.82015609741211,9.667003631591797,10.559526443481445
1761334233804973000,2.69097314453125,24.102903366088867,8.315058708190918,7.032505512237549
1761334233823674400,2.70967431640625,11.310873031616211,6.190232276916504,2.830709218978882
1761334233842376000,2.7283759765625,4.206582069396973,3.3020951747894287,-0.02392822690308094
1761334233861077200,2.7470771484375,1.6821542978286743,0.8374879360198975,-0.1698904037475586
1761334233879778600,2.765778564453125,0.6221339106559753,-0.24406790733337402,0.5216353535652161
1761334233898480000,2.784480224609375,0.8757730722427368,-0.6939185857772827,0.7106683254241943
1761334233917181700,2.803181640625,0.5431707501411438,-0.5455635786056519,-0.550349235534668
1761334233935883000,2.821883056640625,-0.33020952343940735,-0.5862415432929993,-1.4476577043533325
1761334233954584300,2.840584228515625,-0.5407779216766357,-0.48813581466674805,-2.021935224533081
1761334233973286000,2.859285888671875,-0.3924229145050049,-0.3852444589138031,-1.8424733877182007
1761334233991987500,2.877987548828125,-0.016749758273363113,-0.10767702013254166,-0.8877372145652771
1761334234010688800,2.896688720703125,0.6245267391204834,0.22971096634864807,0.1818545162677765
1761334234029390000,2.91539013671875,1.8855443000793457,0.48574298620224,0.882951557636261
1761334234048091600,2.934091552734375,2.8498518466949463,0.8279166221618652,1.074377417564392
1761334234066793000,2.95279296875,4.433900356292725,0.9786644577980042,1.277767300605774
1761334234085494500,2.97149462890625,7.161718368530273,1.7012969255447388,1.8616160154342651
1761334234104196000,2.990196044921875,12.672389030456543,3.2231321334838867,3.735196113586426
1761334234122897400,3.0088974609375,19.910676956176758,5.79063081741333,2.823530673980713
1761334234141598700,3.0275986328125,20.863019943237305,10.50927734375,-0.6005984544754028
1761334234160300300,3.04630029296875,22.047468185424805,15.888341903686523,-3.649054527282715
1761334234179001600,3.065001708984375,28.15155792236328,17.364713668823242,-1.5792629718780518
1761334234197703200,3.083703125,27.873991012573242,15.713665962219238,2.187039852142334
1761334234216404500,3.102404541015625,23.48316192626953,14.610574722290039,7.743174076080322
1761334234235106000,3.12110595703125,18.94397735595703,13.186845779418945,8.343772888183594
1761334234253807400,3.139807373046875,14.263615608215332,9.501898765563965,4.060619831085205
1761334234272509000,3.158509033203125,11.373085975646973,5.079962253570557,2.586641311645508
1761334234291210200,3.177210205078125,9.475577354431152,0.8303094506263733,2.170290231704712
1761334234309911800,3.195911865234375,4.192225456237793,-1.4428720474243164,1.0169496536254883
1761334234328613000,3.214613037109375,-2.155933141708374,-2.2683959007263184,-0.35892340540885925
1761334234347314700,3.233314697265625,-6.20219612121582,-2.5052852630615234,-2.3641088008880615
1761334234366016000,3.25201611328125,-6.865008354187012,-2.59621262550354,-2.9790642261505127
1761334234384717300,3.27071728515625,-5.714060306549072,-2.4741785526275635,-2.2636101245880127
1761334234403419000,3.2894189453125,-4.115654945373535,-2.3473589420318604,-1.8352949619293213
1761334234422120400,3.308120361328125,-1.9621145725250244,-1.911865234375,-1.6534404754638672
1761334234440821800,3.32682177734375,0.13639089465141296,-1.3184453248977661,-1.1150553226470947
1761334234459523000,3.345523193359375,1.8233308792114258,-0.6221339106559753,-0.2512463629245758
1761334234478224600,3.364224609375,3.1034910678863525,0.27038896083831787,1.3854442834854126
1761334234496926000,3.382926025390625,3.4169507026672363,1.0193424224853516,2.4023938179016113
1761334234515627500,3.40162744140625,3.3475589752197266,1.8305093050003052,2.179861545562744
1761334234534328800,3.420328857421875,4.59421968460083,2.5770699977874756,2.0721843242645264
1761334234553030400,3.439030517578125,8.796015739440918,4.436293125152588,2.3186452388763428
1761334234571731700,3.457731689453125,16.14198112487793,7.843672752380371,3.345165967941284
1761334234590433300,3.476433349609375,20.647666931152344,12.803994178771973,1.6869399547576904
1761334234609134600,3.495134521484375,20.494525909423828,17.04646873474121,-1.2251251935958862
1761334234627836200,3.513836181640625,21.080766677856445,18.747764587402344,-3.053241729736328
1761334234646537500,3.532537353515625,23.270200729370117,17.553747177124023,-2.3186452388763428
1761334234665239000,3.551239013671875,31.360334396362305,14.182259559631348,6.534798622131348
1761334234683940400,3.5699404296875,34.1551513671875,12.698709487915039,12.088540077209473
1761334234702642000,3.588641845703125,24.0789737701416,10.932806968688965,7.18086051940918
1761334234721343200,3.60734326171875,12.56710433959961,7.886743545532227,3.9984066486358643
1761334234740044800,3.626044921875,5.058426856994629,3.610769271850586,3.1752755641937256
1761334234758746000,3.64474609375,1.2993026971817017,-0.349352091550827,0.7393822073936462
1761334234777447400,3.663447509765625,-2.0721843242645264,-2.225325107574463,-1.797009825706482
1761334234796149000,3.68214892578125,-5.170889854431152,-2.7732813358306885,-3.6323046684265137
1761334234814850600,3.7008505859375,-6.776473522186279,-2.823530673980713,-4.618147850036621
1761334234833552000,3.7195517578125,-6.786045074462891,-3.029313564300537,-4.271188259124756
1761334234852253200,3.738253173828125,-5.158925533294678,-3.091526746749878,-3.5820555686950684
1761334234870954800,3.756954833984375,-2.5770699977874756,-2.9766714572906494,-2.3952155113220215
1761334234889656000,3.775656005859375,0.22013968229293823,-2.4717857837677,-1.1078768968582153
1761334234908357600,3.794357666015625,2.304288148880005,-1.6869399547576904,0.9595218896865845
1761334234927059000,3.813058837890625,3.4887354373931885,-0.39481574296951294,2.392822742462158
1761334234945760500,3.831760498046875,4.120440483093262,0.882951557636261,3.1585259437561035
1761334234964461800,3.8504619140625,4.505684852600098,2.021935224533081,3.345165967941284
1761334234983163400,3.869163330078125,6.771687984466553,3.809373617172241,2.8809585571289062
1761334235001864700,3.88786474609375,11.382657051086426,6.647261142730713,2.746960401535034
1761334235020566300,3.906566162109375,16.371692657470703,10.916056632995605,2.825923442840576
1761334235039267600,3.925267578125,17.766708374023438,14.988640785217285,-0.19381862878799438
1761334235057969200,3.94396923828125,17.096717834472656,18.9320125579834,-5.115854740142822
1761334235076670500,3.96267041015625,16.46261978149414,19.092330932617188,-5.898307800292969
1761334235095372000,3.9813720703125,22.270000457763672,15.672987937927246,-0.4713860750198364
1761334235114073300,4.0000732421875,36.32304763793945,11.753544807434082,8.930013656616211
1761334235132775000,4.01877490234375,34.10729217529297,11.361122131347656,12.658031463623047
1761334235151476200,4.037476318359375,20.50409698486328,10.045069694519043,8.147561073303223
1761334235170177500,4.056177490234375,8.496912956237793,7.369893550872803,4.130012035369873
1761334235188879000,4.074879150390625,0.8997012972831726,3.761517286300659,3.1800613403320312
1761334235207580700,4.09358056640625,-3.3786656856536865,0.5670989751815796,0.9690931439399719
1761334235226282000,4.112281982421875,-4.46979284286499,-1.789831280708313,-1.9621145725250244
1761334235244983300,4.1309833984375,-4.697110652923584,-2.8139593601226807,-4.240081787109375
1761334235263684900,4.149684814453125,-5.309673309326172,-3.3882367610931396,-5.101497650146484
1761334235282386200,4.16838623046875,-5.079962253570557,-3.517449378967285,-5.194818019866943
1761334235301087700,4.187087646484375,-3.601198196411133,-3.4911282062530518,-4.048655986785889
1761334235319789000,4.2057890625,-1.4500504732131958,-3.0029923915863037,-2.148754835128784
1761334235338490600,4.22449072265625,0.8709874153137207,-2.062613010406494,0.4977070987224579
1761334235357192000,4.24319189453125,2.7517459392547607,-0.882951557636261,2.8043880462646484
1761334235375893500,4.2618935546875,4.067798614501953,0.8183453679084778,3.864408493041992
1761334235394594800,4.2805947265625,5.1804609298706055,2.5292134284973145,4.208974838256836
1761334235413296400,4.29929638671875,7.75753116607666,5.295316696166992,3.8261234760284424
1761334235431997700,4.317997802734375,12.863814353942871,9.09990406036377,3.689732551574707
1761334235450699300,4.33669921875,17.034503936767578,13.782658576965332,1.5122638940811157
1761334235469400600,4.355400634765625,18.76930046081543,17.9700984954834,-2.9599215984344482
1761334235488102000,4.374101806640625,20.298315048217773,19.535003662109375,-3.9290146827697754
1761334235506803500,4.392803466796875,19.17847442626953,18.527626037597656,-3.3475589752197266
1761334235525505000,4.411505126953125,22.325035095214844,15.03171157836914,4.18983268737793
1761334235544206300,4.430206298828125,29.199615478515625,12.31825065612793,13.117453575134277
1761334235562907600,4.44890771484375,21.073589324951172,10.387243270874023,11.710474014282227
1761334235581609200,4.467609130859375,9.870393753051758,7.568498134613037,6.685546398162842
1761334235600310800,4.486310791015625,1.887937068939209,4.204189300537109,2.7493531703948975
1761334235619012000,4.50501220703125,-1.3040883541107178,1.0001999139785767,0.18424734473228455
1761334235637713400,4.52371337890625,-1.7252250909805298,-1.306481122970581,-1.6247265338897705
1761334235656415000,4.5424150390625,-2.5531418323516846,-2.0650060176849365,-2.1343977451324463
1761334235675116300,4.5611162109375,-3.895515203475952,-2.2923240661621094,-2.3856441974639893
1761334235693817900,4.57981787109375,-4.962714195251465,-2.115255117416382,-2.770888566970825
1761334235712519200,4.598519287109375,-4.34536600112915,-1.8783657550811768,-2.974278450012207
1761334235731220700,4.617220703125,-2.062613010406494,-1.4859428405761719,-2.478964328765869
1761334235749922000,4.635922119140625,0.5216353535652161,-0.9882357716560364,-1.1318050622940063
1761334235768623400,4.654623291015625,2.691925525665283,-0.38763725757598877,0.05503492057323456
1761334235787325000,4.673324951171875,4.041477680206299,0.3038884699344635,1.1054840087890625
1761334235806026500,4.692026611328125,5.065605640411377,1.074377417564392,1.9812572002410889
1761334235824727800,4.710727783203125,6.5491557121276855,2.1104695796966553,2.4047868251800537
1761334235843429000,4.72942919921875,9.322437286376953,4.749752998352051,2.557927370071411
1761334235862130700,4.748130615234375,13.600804328918457,9.820143699645996,1.5385849475860596
1761334235880832000,4.76683203125,16.998611450195312,15.1417818069458,-0.05503492057323456
1761334235899533600,4.785533447265625,20.092531204223633,17.333606719970703,-1.856830358505249
1761334235918235000,4.80423486328125,22.12643051147461,18.07059669494629,-3.4337005615234375
1761334235936936400,4.8229365234375,27.823741912841797,15.730416297912598,2.620140790939331
1761334235955637800,4.8416376953125,35.909088134765625,12.835101127624512,12.483355522155762
1761334235974339300,4.86033935546875,25.667808532714844,11.842079162597656,10.628918647766113
1761334235993040600,4.87904052734375,12.52881908416748,8.654839515686035,3.4504501819610596
1761334236011742200,4.8977421875,5.819344520568848,4.453042984008789,0.5216353535652161
1761334236030443500,4.916443603515625,5.6925249099731445,0.760917603969574,0
1761334236049144800,4.935144775390625,5.127819061279297,-1.3878371715545654,-1.1102696657180786
1761334236067846400,4.953846435546875,1.2083754539489746,-2.179861545562744,-1.3806586265563965
1761334236086548000,4.9725478515625,-3.0963125228881836,-2.2229323387145996,-2.210968017578125
1761334236105249300,4.991249267578125,-5.249852657318115,-2.2205393314361572,-3.2350962162017822
1761334236123950800,5.009950927734375,-5.144568920135498,-2.045863389968872,-2.9455647468566895
1761334236142652200,5.028652099609375,-3.414557933807373,-1.2897313833236694,-1.5361921787261963
1761334236161353500,5.047353515625,-1.3782658576965332,-0.7992027401924133,0.09571290761232376
1761334236180055000,5.066054931640625,0.2560320198535919,-0.3086741268634796,0.9403793215751648
1761334236198756600,5.084756591796875,2.076970100402832,0.07657032459974289,1.5074782371520996
1761334236217458000,5.1034580078125,3.366701364517212,0.5982056856155396,1.9046868085861206
1761334236236159200,5.1221591796875,4.644468784332275,1.2394821643829346,1.9621145725250244
1761334236254860800,5.14086083984375,5.608776092529297,2.321038007736206,1.430907964706421
1761334236273562000,5.15956201171875,9.375079154968262,4.565505504608154,1.0815558433532715
1761334236292263700,5.178263671875,15.6227388381958,8.171489715576172,0.7034898400306702
1761334236310965000,5.196965087890625,19.4129695892334,12.952348709106445,-2.007578134536743
1761334236329666600,5.21566650390625,21.741186141967773,17.132610321044922,-3.6227335929870605
1761334236348368000,5.234367919921875,21.77707862854004,15.955341339111328,0.914058268070221
1761334236367069200,5.253069091796875,26.37129783630371,12.07896900177002,9.796216011047363
1761334236385770800,5.271770751953125,35.064422607421875,10.626524925231934,11.26062297821045
1761334236404472300,5.290472412109375,31.750364303588867,10.593026161193848,7.226324558258057
1761334236423173600,5.309173583984375,21.097517013549805,8.537590980529785,3.565305709838867
1761334236441875200,5.327875244140625,10.559526443481445,6.0777692794799805,2.2851455211639404
1761334236460576500,5.346576416015625,1.0456634759902954,3.1728827953338623,2.311466693878174
1761334236479278000,5.365278076171875,-5.414957523345947,1.0360921621322632,0.3852444589138031
1761334236497979400,5.3839794921875,-6.695117950439453,-0.39960137009620667,-2.0410776138305664
1761334236516680700,5.4026806640625,-5.424529075622559,-1.5146567821502686,-3.8835511207580566
1761334236535382300,5.42138232421875,-4.342973232269287,-1.8975083827972412,-3.6299118995666504
1761334236554083600,5.44008349609375,-4.187439441680908,-1.6869399547576904,-2.3856441974639893
1761334236572785200,5.45878515625,-3.924229145050049,-1.1748759746551514,-0.7369893789291382
1761334236591486500,5.477486572265625,-2.9288148880004883,-0.7800601720809937,0.7992027401924133
1761334236610188000,5.49618798828125,-0.9451649188995361,-0.397208571434021,1.3495519161224365
1761334236628889300,5.514889404296875,0.6843472719192505,0.07896314561367035,1.4261223077774048
1761334236647591000,5.5335908203125,2.7349963188171387,0.519242525100708,0.9260223507881165
1761334236666292200,5.552292236328125,4.658825874328613,0.9044869542121887,0.9260223507881165
1761334236684993800,5.570993896484375,5.735595703125,1.3280165195465088,2.7493531703948975
1761334236703695000,5.589695068359375,9.05444049835205,1.8041882514953613,3.1752755641937256
1761334236722396700,5.608396728515625,14.134403228759766,3.0939197540283203,3.445664644241333
1761334236741098000,5.627097900390625,18.314664840698242,6.185446739196777,2.7182464599609375
1761334236759799300,5.64579931640625,21.94936180114746,9.329615592956543,0.2105683982372284
1761334236778500900,5.6645009765625,23.636302947998047,12.696316719055176,-1.7994025945663452
1761334236797202400,5.683202392578125,23.3515567779541,12.184252738952637,-1.552941918373108
1761334236815903700,5.70190380859375,23.892333984375,8.233702659606934,0.9427721500396729
1761334236834605000,5.72060498046875,33.05445098876953,4.599005222320557,6.965506553649902
1761334236853306600,5.739306640625,35.633914947509766,2.5914268493652344,6.618547439575195
1761334236872008000,5.758008056640625,24.50489616394043,3.0484559535980225,3.8668015003204346
1761334236890709500,5.77670947265625,9.049654960632324,3.8763725757598877,0.605384111404419
1761334236909410800,5.795410888671875,-2.9072794914245605,2.9240293502807617,-2.1894326210021973
1761334236928112400,5.8141123046875,-7.953742504119873,1.3471591472625732,-3.022135019302368
1761334236946813700,5.832813720703125,-6.032305717468262,-0.2584248483181,-2.6392834186553955
1761334236965515300,5.851515380859375,-2.4981069564819336,-1.093519926071167,-1.6965112686157227
1761334236984216600,5.870216552734375,-1.6414763927459717,-1.1772687435150146,-0.8566305041313171
1761334237002918100,5.888918212890625,-2.287538528442383,-1.4117653369903564,-1.8975083827972412
1761334237021619500,5.907619384765625,-2.423929452896118,-1.4380863904953003,-1.7419748306274414
1761334237040320800,5.92632080078125,-1.4979069232940674,-0.9906286001205444,-0.17228323221206665
1761334237059022300,5.945022216796875,-0.3038884699344635,-0.3852444589138031,1.155733346939087
1761334237077724000,5.963723876953125,2.847458839416504,-0.11964113265275955,1.5481562614440918
1761334237096425200,5.98242529296875,5.905486106872559,-0.27756741642951965,1.5840486288070679
1761334237115126500,6.00112646484375,7.1473612785339355,-0.009571290574967861,1.8831514120101929
1761334237133828000,6.019828125,8.532805442810059,0.6747759580612183,1.9597218036651611
1761334237152529400,6.038529296875,12.842279434204102,2.335394859313965,2.3497519493103027
1761334237171231000,6.05723095703125,17.840885162353516,6.0777692794799805,1.4189438819885254
1761334237189932300,6.075932373046875,22.018753051757812,9.315258979797363,0.7058826684951782
1761334237208633900,6.0946337890625,26.103302001953125,10.15753173828125,1.2131611108779907
1761334237227335200,6.113335205078125,25.081567764282227,11.088339805603027,-0.8638089895248413
1761334237246036700,6.13203662109375,23.681766510009766,11.385049819946289,0.2919243574142456
1761334237264738000,6.150738037109375,32.89173889160156,9.07119083404541,5.38624382019043
1761334237283439600,6.169439697265625,33.68854904174805,6.965506553649902,5.469992637634277
1761334237302141000,6.188140869140625,22.43271255493164,5.831308841705322,1.6366907358169556
1761334237320842500,6.206842529296875,8.276773452758789,4.304687976837158,0.8685946464538574
1761334237339543800,6.225543701171875,-1.588834285736084,2.289931297302246,0.7561319470405579
1761334237358245000,6.2442451171875,-5.245067119598389,0.38763725757598877,-0.6221339106559753
1761334237376946700,6.26294677734375,-5.424529075622559,-0.8973084688186646,-1.6319050788879395
1761334237395648300,6.281648193359375,-5.367101192474365,-1.6055840253829956,-2.4047868251800537
1761334237414349600,6.300349609375,-5.170889854431152,-1.7419748306274414,-2.179861545562744
1761334237433051000,6.31905078125,-5.292923450469971,-1.797009825706482,-2.266003131866455
1761334237451752400,6.33775244140625,-4.015156269073486,-1.399801254272461,-1.4859428405761719
1761334237470454000,6.3564541015625,-1.2131611108779907,-0.9355936646461487,-0.4450650215148926
1761334237498506000,6.384506103515625,2.967100143432617,-0.06699903309345245,1.1150553226470947
1761334237517207600,6.40320751953125,4.776073932647705,0.48574298620224,1.698904037475586
1761334237535908900,6.421908935546875,5.431707382202148,0.9044869542121887,2.1511476039886475
1761334237554610200,6.440610107421875,5.142175674438477,1.2849457263946533,1.7611174583435059
1761334237573311700,6.459311767578125,5.223531723022461,1.6845471858978271,0.9068797826766968
1761334237592013000,6.478012939453125,7.9489569664001465,3.280559778213501,0.5455635786056519
1761334237610714600,6.496714599609375,14.014761924743652,6.764509677886963,1.1461620330810547
1761334237629416000,6.515416015625,21.827327728271484,10.152746200561523,1.6558332443237305
1761334237648117500,6.534117431640625,28.354948043823242,11.303693771362305,3.9361932277679443
1761334237666818800,6.55281884765625,28.950761795043945,11.009376525878906,6.8243303298950195
1761334237685520400,6.571520263671875,36.05265808105469,8.882157325744629,12.167503356933594
1761334237704221700,6.5902216796875,43.35794448852539,7.946564197540283,11.198410034179688
1761334237722923300,6.60892333984375,34.60260772705078,7.601997375488281,5.838487148284912
1761334237741624600,6.62762451171875,20.188243865966797,5.965306758880615,2.423929452896118
1761334237760326100,6.646326171875,4.871787071228027,4.393222332000732,1.5409778356552124
1761334237779027500,6.66502734375,-4.721039295196533,1.588834285736084,0.3445664644241333
1761334237797728800,6.683728759765625,-6.379265308380127,-0.9954141974449158,-2.038684844970703
1761334237816430300,6.702430419921875,-7.04207706451416,-2.383251428604126,-4.273581027984619
1761334237835131600,6.721131591796875,-8.965906143188477,-3.22552490234375,-4.869394302368164
1761334237853833200,6.739833251953125,-9.753145217895508,-3.462414264678955,-4.005585193634033
1761334237872534500,6.758534423828125,-8.34138011932373,-3.3858439922332764,-3.5126636028289795
1761334237891236000,6.777236083984375,-4.383651256561279,-3.0891339778900146,-2.2540390491485596
1761334237909937400,6.7959375,0.02632104977965355,-2.3952155113220215,0.37806597352027893
1761334237928639000,6.814638916015625,3.3690943717956543,-1.2873386144638062,1.8855443000793457
1761334237947340300,6.83334033203125,4.6540398597717285,-0.24406790733337402,1.9405791759490967
1761334237966041900,6.852041748046875,4.362115859985352,0.7752745151519775,2.4813570976257324
1761334237984743200,6.8707431640625,3.9529430866241455,1.6342978477478027,1.8113667964935303
1761334238003444700,6.88944482421875,5.307280540466309,2.438286304473877,0.6197410821914673
1761334238022146000,6.90814599609375,7.970492362976074,3.869194269180298,0.48095735907554626
1761334238040847400,6.926847412109375,11.755937576293945,7.144968509674072,0.4498506486415863
1761334238059549000,6.945548828125,17.249858856201172,10.528419494628906,-0.8063812255859375
1761334238078250200,6.964250244140625,23.997617721557617,12.5144624710083,0.6963114142417908
1761334238096951800,6.982951904296875,26.749364852905273,12.205788612365723,3.294916868209839
1761334238115653000,7.001653076171875,33.38466262817383,9.927821159362793,8.894122123718262
1761334238134354700,7.020354736328125,46.39922332763672,7.623532772064209,10.473384857177734
1761334238153056000,7.039055908203125,41.795433044433594,7.592426300048828,6.434299945831299
1761334238171757600,7.057757568359375,26.888147354125977,6.606583118438721,4.981856822967529
1761334238190459000,7.076458984375,11.042876243591309,4.831109046936035,3.7112679481506348
1761334238209160400,7.095160400390625,-2.416750907897949,2.187039852142334,1.9836499691009521
1761334238227861800,7.11386181640625,-7.645068168640137,-0.45224347710609436,-0.30628129839897156
1761334238246563300,7.132563232421875,-8.300702095031738,-1.9070796966552734,-3.10109806060791
1761334238265264600,7.1512646484375,-8.429914474487305,-2.792423963546753,-4.711467742919922
1761334238283966000,7.169966064453125,-8.83669376373291,-3.2159535884857178,-3.9529430866241455
1761334238302667500,7.18866748046875,-8.236095428466797,-3.2853455543518066,-2.7254250049591064
1761334238321368800,7.207368896484375,-5.682953834533691,-3.239881753921509,-1.7467604875564575
1761334238340070400,7.2260703125,-1.2442678213119507,-2.761317253112793,-0.02871387079358101
1761334238358771700,7.244771728515625,2.6368906497955322,-2.0554347038269043,1.0959128141403198
1761334238377473300,7.263473388671875,4.371686935424805,-0.9379864931106567,1.887937068939209
1761334238396174600,7.282174560546875,4.235296249389648,0.34217363595962524,2.108076810836792
1761334238414876200,7.300876220703125,3.2685956954956055,1.2251251935958862,1.5002998113632202
1761334238433577500,7.319577392578125,3.074777126312256,1.794616937637329,1.404586911201477
1761334238452278800,7.33827880859375,3.6059837341308594,2.699103832244873,1.0959128141403198
1761334238470980400,7.35698046875,6.905686378479004,5.108676433563232,0.6771687865257263
1761334238489682000,7.375681884765625,12.91645622253418,8.331808090209961,1.0600204467773438
1761334238508383200,7.39438330078125,19.695323944091797,10.904092788696289,1.215553879737854
1761334238527084500,7.41308447265625,25.842485427856445,11.411371231079102,4.3070807456970215
1761334238545786000,7.4317861328125,31.767112731933594,10.511670112609863,10.911271095275879
1761334238564487400,7.4504873046875,41.89832305908203,8.841479301452637,14.593825340270996
1761334238583189000,7.46918896484375,43.836509704589844,7.913064479827881,11.093125343322754
1761334238601890300,7.487890380859375,34.119258880615234,6.805187702178955,7.477570533752441
1761334238620591900,7.506591796875,20.382062911987305,6.154339790344238,4.529613494873047
1761334238639293200,7.525293212890625,8.056633949279785,4.4243292808532715,2.8115665912628174
1761334238657994500,7.543994384765625,-1.4787644147872925,2.0243279933929443,1.8759729862213135
1761334238676696000,7.562696044921875,-5.800201892852783,-0.07417750358581543,-0.21296121180057526
1761334238695397600,7.581397705078125,-6.367300987243652,-1.275374412536621,-2.2755744457244873
1761334238714099000,7.600098876953125,-7.255038261413574,-1.8352949619293213,-3.493520975112915
1761334238732800300,7.61880029296875,-8.23848819732666,-1.9046868085861206,-3.6083765029907227
1761334238751501800,7.637501708984375,-7.755138397216797,-1.8664016723632812,-3.4121651649475098
1761334238770203400,7.656203369140625,-6.613761901855469,-2.0410776138305664,-3.170490026473999
1761334238788904700,7.67490478515625,-4.431507587432861,-1.7850457429885864,-2.210968017578125
1761334238807606000,7.69360595703125,-1.7012969255447388,-1.5840486288070679,-0.760917603969574
1761334238826307600,7.7123076171875,0.7728816866874695,-1.215553879737854,0.7561319470405579
1761334238845009000,7.7310087890625,2.218146562576294,-0.8350951075553894,0.6436693072319031
1761334238863710500,7.74971044921875,3.0412776470184326,0.035892341285943985,-0.035892341285943985
1761334238882411800,7.768411865234375,6.278766632080078,1.5074782371520996,-0.9092726111412048
1761334238901113300,7.78711328125,12.667603492736816,4.371686935424805,-0.11485548317432404
1761334238919814700,7.805814697265625,19.494325637817383,8.219346046447754,1.2179467678070068
1761334238938516000,7.824515869140625,21.523439407348633,11.669795989990234,0.11485548317432404
1761334238957217500,7.843217529296875,19.85085678100586,15.524633407592773,-2.888136863708496
1761334238975919000,7.861919189453125,23.19363021850586,17.190038681030273,-1.0648061037063599
1761334238994620400,7.880620361328125,35.4592399597168,12.579068183898926,6.3601226806640625
1761334239013321700,7.89932177734375,45.42055892944336,8.051848411560059,8.133204460144043
1761334239032023300,7.918023193359375,38.060237884521484,8.365307807922363,3.950550079345703
1761334239050724600,7.936724609375,25.45484733581543,7.733603000640869,0.4905286431312561
1761334239069426200,7.95542626953125,13.241880416870117,5.723631858825684,0.7250252366065979
1761334239088127500,7.97412744140625,1.1054840087890625,2.912065267562866,2.2133610248565674
1761334239106829000,7.9928291015625,-6.64486837387085,0.3684946894645691,2.0865414142608643
1761334239125530400,8.0115302734375,-8.3629150390625,-1.337587833404541,0.016749758273363113
1761334239144232000,8.03023193359375,-8.468199729919434,-2.1032910346984863,-2.6560330390930176
1761334239162933200,8.048933349609374,-7.836493968963623,-2.5459632873535156,-4.232903480529785
1761334239181634600,8.067634521484376,-7.001399040222168,-2.7014968395233154,-3.5772697925567627
1761334239200336100,8.086336181640625,-5.718846321105957,-2.667997360229492,-2.0554347038269043
1761334239219037400,8.105037353515625,-3.8213376998901367,-2.4047868251800537,-0.5647061467170715
1761334239237739000,8.123739013671875,-1.0911271572113037,-2.242074728012085,0.5575276613235474
1761334239256440300,8.1424404296875,1.466800332069397,-1.9381862878799438,0.550349235534668
1761334239275142000,8.161141845703124,3.589233875274658,-1.062413215637207,0.24167509377002716
1761334239293843200,8.17984326171875,5.431707382202148,0.3517449200153351,0.4785645306110382
1761334239312544500,8.19854443359375,8.484949111938477,2.3018953800201416,1.5170495510101318
1761334239331246000,8.21724609375,11.358729362487793,4.314259052276611,2.651247501373291
1761334239349947600,8.23594775390625,14.45743465423584,7.623532772064209,1.9812572002410889
1761334239368649000,8.25464892578125,18.716659545898438,11.337193489074707,0.9236295223236084
1761334239387350300,8.273350341796874,21.272193908691406,14.47179126739502,-1.789831280708313
1761334239406051800,8.2920517578125,19.87957000732422,15.706487655639648,-2.919243574142456
1761334239424753200,8.310753173828125,18.384056091308594,15.479169845581055,-1.7754744291305542
1761334239443454700,8.329454833984375,25.052852630615234,11.373085975646973,3.3092737197875977
1761334239462156000,8.348156005859375,33.808189392089844,7.865208148956299,7.989634990692139
1761334239480857300,8.366857421875,30.381669998168945,7.645068168640137,5.218746185302734
1761334239499559000,8.385558837890626,20.405990600585938,7.133004188537598,1.7850457429885864
1761334239518260200,8.40426025390625,10.363314628601074,5.927021503448486,0.9355936646461487
1761334239536961800,8.4229619140625,1.6558332443237305,3.6921253204345703,1.2299108505249023
1761334239555663000,8.4416630859375,-3.9936211109161377,1.6534404754638672,1.1222338676452637
1761334239574364700,8.46036474609375,-5.6207404136657715,0.26081767678260803,-0.28235307335853577
1761334239593066000,8.47906591796875,-5.029713153839111,-0.6197410821914673,-1.825723648071289
1761334239611767600,8.497767578125,-4.591826438903809,-1.5481562614440918,-2.287538528442383
1761334239630468900,8.51646875,-4.692325115203857,-2.1032910346984863,-2.0817556381225586
1761334239649170400,8.53517041015625,-5.173282623291016,-2.7326035499572754,-2.2396819591522217
1761334239667871700,8.553871826171875,-5.089533805847168,-2.68953275680542,-1.8472590446472168
1761334239686573000,8.572572998046875,-4.024727821350098,-2.5603201389312744,-0.5599204897880554
1761334239705274600,8.591274658203124,-2.163111686706543,-1.9884356260299683,-0.06939185410737991
1761334239723976000,8.609975830078126,-0.1579262912273407,-1.4189438819885254,0.5120640397071838
1761334239742677500,8.628677490234375,2.021935224533081,-0.16510476171970367,1.2705888748168945
1761334239761378800,8.64737890625,7.022934436798096,0.9260223507881165,2.196611166000366
1761334239780080000,8.666080078125,14.455041885375977,3.2231321334838867,3.871587038040161
1761334239798781700,8.68478173828125,19.08993911743164,6.975078105926514,2.6488547325134277
1761334239817483300,8.703483154296874,21.506689071655273,10.595418930053711,-0.7178468108177185
1761334239836184600,8.7221845703125,23.997617721557617,12.672389030456543,-2.179861545562744
1761334239854886000,8.740885986328125,26.81157684326172,13.780265808105469,-0.12203395366668701
1761334239873587500,8.75958740234375,32.676387786865234,10.612168312072754,5.26181697845459
1761334239892288800,8.778288818359375,37.84488296508789,7.623532772064209,5.857629776000977
1761334239910990300,8.796990234375,33.092735290527344,7.738388538360596,2.517249345779419
1761334239929691600,8.815691650390624,22.91127586364746,7.109076023101807,1.0815558433532715
1761334239948393000,8.83439306640625,11.648261070251465,5.742774486541748,0.638883650302887
1761334239967094500,8.853094482421875,1.1413763761520386,3.728017568588257,0.8733802437782288
1761334239985796000,8.871796142578125,-4.627718925476074,1.2873386144638062,0.6245267391204834
1761334240004497400,8.890497314453125,-4.622933387756348,-0.22492532432079315,-0.7896314859390259
1761334240023198700,8.90919873046875,-3.6155550479888916,-1.3184453248977661,-1.9046868085861206
1761334240041900300,8.927900390625,-3.706482172012329,-1.7874385118484497,-2.5220351219177246
1761334240060601600,8.9466015625,-4.721039295196533,-1.94297194480896,-2.9718856811523438
1761334240079303200,8.96530322265625,-5.685346603393555,-1.7754744291305542,-2.6464617252349854
1761334240098004500,8.98400439453125,-5.276174068450928,-1.3495519161224365,-2.172683000564575
1761334240116705800,9.002705810546875,-3.160918712615967,-0.7992027401924133,-0.48574298620224
1761334240135407400,9.021407470703124,0.09571290761232376,-0.19381862878799438,0.17228323221206665
1761334240154108700,9.040108642578126,2.0650060176849365,0.34695929288864136,0.7968099117279053
1761334240172810200,9.058810302734376,4.718646049499512,1.1270195245742798,1.6390835046768188
1761334240191511600,9.077511474609375,9.592825889587402,2.3258235454559326,2.201396942138672
1761334240210213000,9.096213134765625,15.634702682495117,4.130012035369873,2.366501569747925
1761334240228914400,9.11491455078125,20.44666862487793,6.063412666320801,0.8781659007072449
1761334240247615700,9.13361572265625,21.736400604248047,8.671588897705078,-2.258824586868286
1761334240266317300,9.1523173828125,19.740787506103516,10.638489723205566,-3.2063822746276855
1761334240285018600,9.1710185546875,23.066810607910156,11.0835542678833,3.0173492431640625
1761334240303720200,9.18972021484375,30.79323387145996,7.4464640617370605,10.796415328979492
1761334240322421500,9.20842138671875,33.04487991333008,6.391229152679443,8.250452041625977
1761334240341123000,9.227123046875,26.14158821105957,7.369893550872803,2.871387243270874
1761334240359824400,9.245824462890624,17.77388572692871,7.061219692230225,1.672582983970642
1761334240378526000,9.26452587890625,11.126625061035156,5.44845724105835,1.1341979503631592
1761334240397227300,9.283227294921875,4.996213912963867,3.728017568588257,1.545763373374939
1761334240415928600,9.301928466796875,0.9571290612220764,2.282752752304077,2.146361827850342
1761334240434630100,9.320630126953125,-1.222732424736023,1.007378339767456,2.124826431274414
1761334240453331500,9.33933154296875,-2.6009981632232666,0.2871387302875519,0.5312066078186035
1761334240472033000,9.358032958984374,-3.7088751792907715,-0.19381862878799438,-1.3950155973434448
1761334240490734300,9.376734375,-3.7806596755981445,-0.8877372145652771,-2.0817556381225586
1761334240509435600,9.395435546875,-3.6155550479888916,-1.007378339767456,-1.7132610082626343
1761334240528137200,9.41413720703125,-3.5341989994049072,-0.8997012972831726,-1.184447169303894
1761334240546838500,9.432838623046875,-2.840280532836914,-0.6125625967979431,-0.8805587291717529
1761334240565540000,9.4515400390625,-1.8448662757873535,-0.1746760457754135,-0.6293123364448547
1761334240584241400,9.470241455078124,0.02871387079358101,0.39960137009620667,-0.42352959513664246
1761334240602943000,9.48894287109375,2.5124638080596924,1.2969099283218384,0.4426721930503845
1761334240621644300,9.507644287109375,5.580062389373779,2.256431818008423,1.674975872039795
1761334240640345900,9.526345947265625,9.856036186218262,3.8596229553222656,2.2947168350219727
1761334240659047200,9.545047119140625,16.9603271484375,6.57547664642334,1.1054840087890625
1761334240677748500,9.56374853515625,20.805593490600586,8.652446746826172,-3.1417760848999023
1761334240696450000,9.582449951171874,16.823936462402344,10.162318229675293,-3.579662561416626
1761334240715151400,9.6011513671875,17.23789405822754,13.129417419433594,-0.4785645306110382
1761334240733853000,9.61985302734375,17.388641357421875,8.738588333129883,7.767102241516113
1761334240752554200,9.63855419921875,21.67418670654297,4.862215518951416,9.332008361816406
1761334240771255600,9.657255615234375,23.71765899658203,3.8763725757598877,3.704089403152466
1761334240789957000,9.67595703125,21.190837860107422,4.589433670043945,-0.17946170270442963
1761334240808658400,9.694658447265626,16.400405883789062,3.0891339778900146,0.31824541091918945
1761334240827360000,9.713360107421876,11.858829498291016,0.6963114142417908,3.1513473987579346
1761334240846061300,9.732061279296875,7.800601959228516,-0.10049854964017868,5.563312530517578
1761334240864762600,9.7507626953125,5.759523868560791,-0.12681959569454193,2.8115665912628174
1761334240883464200,9.769464111328125,5.517848968505859,-0.12921242415905,0.3278166949748993
1761334240902165800,9.788165771484374,4.620540618896484,-0.29431718587875366,-0.5790630578994751
1761334240920867000,9.8068671875,3.239881753921509,-0.24885354936122894,-0.7824530005455017
1761334240939568400,9.825568359375,2.093719720840454,-0.2105683982372284,-0.6604190468788147
1761334240958270000,9.84427001953125,1.3088740110397339,0.05742774158716202,-0.06939185410737991
1761334240976971300,9.86297119140625,1.1509476900100708,0.4713860750198364,0.33020952343940735
1761334240995672800,9.8816728515625,0.9810572862625122,0.760917603969574,0.019142581149935722
1761334241014374100,9.9003740234375,2.376072883605957,0.7513462901115417,-0.02392822690308094
1761334241033075500,9.919075439453126,4.809573650360107,0.8470591902732849,-0.5312066078186035
1761334241051777000,9.937777099609375,5.793023586273193,1.7324036359786987,-1.0839486122131348
1761334241070478300,9.956478271484375,8.204988479614258,2.9766714572906494,-1.4691931009292603
1761334241089180000,9.975179931640625,11.509476661682129,4.005585193634033,-0.6173482537269592
1761334241107881200,9.993881103515625,14.787644386291504,5.091926574707031,-0.9403793215751648
1761334241126582500,10.01258251953125,17.182859420776367,6.2189459800720215,-1.2562319040298462
1761334241145284000,10.0312841796875,16.409976959228516,6.013163089752197,-0.08374879509210587
1761334241163985400,10.0499853515625,14.780465126037598,6.26440954208374,2.9766714572906494
1761334241182687000,10.06868701171875,16.15633773803711,5.429314613342285,4.6995038986206055
1761334241201388300,10.08738818359375,19.946569442749023,4.46979284286499,1.4715858697891235
1761334241220089600,10.106089599609374,20.109281539916992,5.0943193435668945,-0.17946170270442963
1761334241238791200,10.124791259765624,16.979469299316406,5.036891460418701,0.7776673436164856
1761334241257492500,10.143492431640626,12.729816436767578,4.486542224884033,0.7226324677467346
1761334241276194000,10.162194091796875,8.595019340515137,3.4121651649475098,-0.7226324677467346
1761334241294895400,10.180895263671875,5.376672267913818,2.50289249420166,-1.2394821643829346
1761334241313597000,10.199596923828125,4.682754039764404,2.093719720840454,-0.6340979933738708
1761334241332298200,10.21829833984375,4.914857864379883,1.9286150932312012,-0.4498506486415863
1761334241350999600,10.23699951171875,4.417150497436523,1.6462619304656982,-0.34695929288864136
1761334241369701000,10.255701171875,4.508078098297119,1.730010747909546,-0.12442677468061447
1761334241388402400,10.27440234375,4.53200626373291,1.8472590446472168,-0.607776939868927
1761334241407104000,10.29310400390625,3.390629768371582,2.3401806354522705,-0.4785645306110382
1761334241425805300,10.311805419921875,3.814159393310547,2.6225335597991943,-0.380458801984787
1761334241444506600,10.330506591796874,6.8482584953308105,2.6727828979492188,0.41874396800994873
