time,seconds_elapsed,z,y,x
1761315831245980400,0.06498046875,-0.98590087890625,-0.003173828125,-0.01568603515625
1761315831256029700,0.07502978515625,-0.9853668212890625,-0.0029144287109375,-0.0153656005859375
1761315831266072600,0.085072509765625,-0.9854278564453125,-0.0025177001953125,-0.0154571533203125
1761315831276120300,0.095120361328125,-0.9855499267578125,-0.0014801025390625,-0.0164947509765625
1761315831286167600,0.10516748046875,-0.9849395751953125,-0.002044677734375,-0.0152740478515625
1761315831296214500,0.115214599609375,-0.9847412109375,-0.0021820068359375,-0.015869140625
1761315831306261500,0.125261474609375,-0.984771728515625,-0.002197265625,-0.0161285400390625
1761315831316308500,0.13530859375,-0.9853973388671875,-0.00299072265625,-0.0156707763671875
1761315831326355500,0.14535546875,-0.984100341796875,-0.0028076171875,-0.0167388916015625
1761315831336402400,0.15540234375,-0.9848480224609375,-0.0018768310546875,-0.0163116455078125
1761315831346449700,0.16544970703125,-0.98486328125,-0.001739501953125,-0.0156097412109375
1761315831356496600,0.17549658203125,-0.9851226806640625,-0.0013885498046875,-0.0157318115234375
1761315831366543600,0.185543701171875,-0.985137939453125,-0.002105712890625,-0.0147705078125
1761315831376590600,0.195590576171875,-0.9850311279296875,-0.00335693359375,-0.0166473388671875
1761315831386637600,0.205637451171875,-0.98577880859375,-0.0037689208984375,-0.01654052734375
1761315831396684300,0.215684326171875,-0.985260009765625,-0.0023345947265625,-0.0160064697265625
1761315831406731500,0.2257314453125,-0.985992431640625,-0.001983642578125,-0.015655517578125
1761315831416778500,0.235778564453125,-0.9850006103515625,-0.001678466796875,-0.016204833984375
1761315831426825500,0.245825439453125,-0.9844970703125,-0.002593994140625,-0.0160064697265625
1761315831436872400,0.25587255859375,-0.9847564697265625,-0.0023956298828125,-0.0158538818359375
1761315831446919400,0.26591943359375,-0.985137939453125,-0.002410888671875,-0.0146636962890625
1761315831456966700,0.275966552734375,-0.9853515625,-0.002410888671875,-0.01580810546875
1761315831467013600,0.286013671875,-0.985595703125,-0.00311279296875,-0.0171356201171875
1761315831477061600,0.2960615234375,-0.98577880859375,-0.00189208984375,-0.01641845703125
1761315831487108400,0.3061083984375,-0.986724853515625,-0.001983642578125,-0.01593017578125
1761315831497155300,0.3161552734375,-0.9858245849609375,-0.0016937255859375,-0.0157470703125
1761315831507202600,0.32620263671875,-0.985443115234375,-0.0021820068359375,-0.016021728515625
1761315831517249500,0.33624951171875,-0.9850616455078125,-0.0031890869140625,-0.0157623291015625
1761315831527296500,0.346296630859375,-0.986297607421875,-0.002471923828125,-0.0152435302734375
1761315831537343500,0.356343505859375,-0.98486328125,-0.00250244140625,-0.0153350830078125
1761315831547390500,0.366390380859375,-0.9853363037109375,-0.002410888671875,-0.016937255859375
1761315831557437400,0.3764375,-0.98541259765625,-0.0022125244140625,-0.0168914794921875
1761315831567484700,0.386484619140625,-0.9854278564453125,-0.001861572265625,-0.0157318115234375
1761315831577531600,0.39653173828125,-0.9863739013671875,-0.0028533935546875,-0.0152587890625
1761315831587578600,0.40657861328125,-0.98638916015625,-0.00262451171875,-0.01519775390625
1761315831597625600,0.41662548828125,-0.9854736328125,-0.0018768310546875,-0.0157928466796875
1761315831607672600,0.426672607421875,-0.985260009765625,-0.0013885498046875,-0.016082763671875
1761315831617719300,0.43671923828125,-0.98687744140625,-0.002105712890625,-0.0150604248046875
1761315831627766500,0.4467666015625,-0.985443115234375,-0.002838134765625,-0.0155181884765625
1761315831637813500,0.4568134765625,-0.9857635498046875,-0.001922607421875,-0.0163421630859375
1761315831647861500,0.466861572265625,-0.985565185546875,-0.002197265625,-0.0156402587890625
1761315831657908500,0.476908447265625,-0.9863433837890625,-0.0027618408203125,-0.015594482421875
1761315831667955700,0.486955810546875,-0.9859466552734375,-0.0022125244140625,-0.01531982421875
1761315831678002700,0.497002685546875,-0.9850006103515625,-0.0027008056640625,-0.0157928466796875
1761315831688049700,0.507049560546875,-0.98541259765625,-0.0022430419921875,-0.0163726806640625
1761315831698096600,0.5170966796875,-0.9852447509765625,-0.001708984375,-0.015838623046875
1761315831708143400,0.527143310546875,-0.984893798828125,-0.0020294189453125,-0.0159454345703125
1761315831718190300,0.5371904296875,-0.9857330322265625,-0.0026397705078125,-0.0162506103515625
1761315831728237600,0.547237548828125,-0.9848480224609375,-0.0028228759765625,-0.0157012939453125
1761315831738284500,0.557284423828125,-0.985137939453125,-0.0023651123046875,-0.015380859375
1761315831748331500,0.56733154296875,-0.98565673828125,-0.002044677734375,-0.015899658203125
1761315831758378500,0.57737841796875,-0.9853515625,-0.002655029296875,-0.0155029296875
1761315831768425500,0.587425537109375,-0.9859161376953125,-0.0025634765625,-0.015838623046875
1761315831778472400,0.597472412109375,-0.985504150390625,-0.0019378662109375,-0.0159149169921875
1761315831788519700,0.607519775390625,-0.9854736328125,-0.002777099609375,-0.01605224609375
1761315831798566700,0.617566650390625,-0.985015869140625,-0.0034332275390625,-0.0164794921875
1761315831808613600,0.627613525390625,-0.98626708984375,-0.002044677734375,-0.01513671875
1761315831818661400,0.637661376953125,-0.985565185546875,-0.0017852783203125,-0.0158538818359375
1761315831828708400,0.647708251953125,-0.985687255859375,-0.001617431640625,-0.0154266357421875
1761315831838755600,0.657755615234375,-0.9849853515625,-0.00225830078125,-0.015655517578125
1761315831848802600,0.667802490234375,-0.984588623046875,-0.0023956298828125,-0.01629638671875
1761315831858849500,0.677849609375,-0.9856719970703125,-0.00262451171875,-0.0158843994140625
1761315831868896500,0.687896484375,-0.985809326171875,-0.0026397705078125,-0.0158538818359375
1761315831878943500,0.697943603515625,-0.98492431640625,-0.0023040771484375,-0.015960693359375
1761315831888990700,0.70799072265625,-0.98492431640625,-0.001983642578125,-0.0152587890625
1761315831899033600,0.71803369140625,-0.985565185546875,-0.00201416015625,-0.01513671875
1761315831909080800,0.728080810546875,-0.98529052734375,-0.0032501220703125,-0.015655517578125
1761315831919127800,0.7381279296875,-0.9852447509765625,-0.0027923583984375,-0.015167236328125
1761315831929174800,0.7481748046875,-0.985687255859375,-0.0019989013671875,-0.016265869140625
1761315831939221500,0.758221435546875,-0.98553466796875,-0.0023956298828125,-0.0150299072265625
1761315831949268500,0.7682685546875,-0.9863128662109375,-0.0027618408203125,-0.0154571533203125
1761315831959315500,0.7783154296875,-0.984771728515625,-0.0018768310546875,-0.0154876708984375
1761315831969362700,0.78836279296875,-0.9851226806640625,-0.001678466796875,-0.01611328125
1761315831979410700,0.79841064453125,-0.9853515625,-0.00250244140625,-0.0159912109375
1761315831989457700,0.808457763671875,-0.9852142333984375,-0.0020904541015625,-0.015655517578125
1761315831999504600,0.818504638671875,-0.9849853515625,-0.0017242431640625,-0.0157012939453125
1761315832009552000,0.8285517578125,-0.9850006103515625,-0.0022735595703125,-0.0156402587890625
1761315832019598800,0.838598876953125,-0.984771728515625,-0.0023345947265625,-0.0158843994140625
1761315832029645600,0.8486455078125,-0.984344482421875,-0.0015106201171875,-0.0156707763671875
1761315832039692500,0.858692626953125,-0.986053466796875,-0.0022735595703125,-0.0168914794921875
1761315832049739500,0.868739501953125,-0.986175537109375,-0.002716064453125,-0.015960693359375
1761315832059786500,0.878786376953125,-0.98541259765625,-0.002532958984375,-0.0160980224609375
1761315832069833700,0.888833740234375,-0.9853973388671875,-0.00311279296875,-0.0159912109375
1761315832079880700,0.898880615234375,-0.9833984375,-0.002105712890625,-0.016265869140625
1761315832089927700,0.908927734375,-0.98638916015625,-0.0029754638671875,-0.01568603515625
1761315832099974700,0.918974609375,-0.9871673583984375,-0.0020751953125,-0.0160675048828125
1761315832110021600,0.929021728515625,-0.9859619140625,-0.002716064453125,-0.0171356201171875
1761315832120068600,0.939068603515625,-0.984466552734375,-0.0023040771484375,-0.0170745849609375
1761315832130116600,0.94911669921875,-0.985687255859375,-0.000335693359375,-0.0158233642578125
1761315832140163600,0.95916357421875,-0.9858551025390625,-0.002288818359375,-0.0144195556640625
1761315832150210600,0.96921044921875,-0.9858856201171875,-0.0038299560546875,-0.0155029296875
1761315832160257500,0.979257568359375,-0.985260009765625,-0.003082275390625,-0.0152435302734375
1761315832170304500,0.989304443359375,-0.9852447509765625,-0.0019683837890625,-0.015533447265625
1761315832180351700,0.999351806640625,-0.98614501953125,-0.0008544921875,-0.016021728515625
1761315832190398700,1.009398681640625,-0.9855804443359375,-0.00189208984375,-0.01641845703125
1761315832200445700,1.01944580078125,-0.98577880859375,-0.00347900390625,-0.0176849365234375
1761315832210492700,1.02949267578125,-0.98468017578125,-0.0036163330078125,-0.015289306640625
1761315832220539600,1.03953955078125,-0.9855194091796875,-0.0037689208984375,-0.0143585205078125
1761315832230587000,1.0495869140625,-0.9856109619140625,-0.002838134765625,-0.015838623046875
1761315832240633600,1.059633544921875,-0.9849395751953125,-0.0012969970703125,-0.016082763671875
1761315832250680600,1.0696806640625,-0.985382080078125,-0.0010833740234375,-0.0164337158203125
1761315832260727600,1.0797275390625,-0.9857025146484375,-0.001922607421875,-0.0153350830078125
1761315832270774500,1.0897744140625,-0.98492431640625,-0.0022430419921875,-0.0155792236328125
1761315832280822800,1.09982275390625,-0.9847259521484375,-0.0030364990234375,-0.016265869140625
1761315832290869800,1.109869873046875,-0.984832763671875,-0.0027313232421875,-0.0155487060546875
1761315832300916700,1.119916748046875,-0.9854888916015625,-0.0026092529296875,-0.015777587890625
1761315832310963700,1.129963623046875,-0.9860687255859375,-0.0020294189453125,-0.0159912109375
1761315832321010700,1.1400107421875,-0.9854583740234375,-0.0013427734375,-0.01611328125
1761315832331057700,1.1500576171875,-0.9856109619140625,-0.00225830078125,-0.01507568359375
1761315832341104600,1.160104736328125,-0.985870361328125,-0.002288818359375,-0.0149383544921875
1761315832351151600,1.170151611328125,-0.985565185546875,-0.002838134765625,-0.0161590576171875
1761315832361198600,1.180198486328125,-0.9855499267578125,-0.0030364990234375,-0.0163726806640625
1761315832371245600,1.19024560546875,-0.9847869873046875,-0.00225830078125,-0.01507568359375
1761315832381292500,1.20029248046875,-0.98455810546875,-0.0019683837890625,-0.01531982421875
1761315832391339500,1.210339599609375,-0.9854736328125,-0.0025634765625,-0.0160980224609375
1761315832401386800,1.22038671875,-0.986572265625,-0.0025177001953125,-0.0148773193359375
1761315832411433700,1.230433837890625,-0.9862060546875,-0.002227783203125,-0.0149383544921875
1761315832421480700,1.240480712890625,-0.9859161376953125,-0.0025634765625,-0.015045166015625
1761315832431528400,1.250528564453125,-0.9859161376953125,-0.002685546875,-0.0162200927734375
1761315832441575700,1.26057568359375,-0.9851531982421875,-0.00274658203125,-0.0160675048828125
1761315832451622700,1.27062255859375,-0.9853973388671875,-0.0026092529296875,-0.01617431640625
1761315832461669600,1.280669677734375,-0.98681640625,-0.0015411376953125,-0.01556396484375
1761315832471716600,1.290716552734375,-0.9858856201171875,-0.0026397705078125,-0.01556396484375
1761315832481763600,1.300763671875,-0.9859771728515625,-0.0024871826171875,-0.0167388916015625
1761315832491810600,1.310810546875,-0.9863739013671875,-0.0030364990234375,-0.015838623046875
1761315832501857800,1.32085791015625,-0.9864044189453125,-0.0023651123046875,-0.0154876708984375
1761315832511904800,1.33090478515625,-0.9860382080078125,-0.00128173828125,-0.015716552734375
1761315832521951700,1.34095166015625,-0.9857940673828125,-0.0020294189453125,-0.016693115234375
1761315832531998700,1.350998779296875,-0.9857635498046875,-0.003326416015625,-0.016082763671875
1761315832542045700,1.361045654296875,-0.9849395751953125,-0.002105712890625,-0.016082763671875
1761315832552092700,1.3710927734375,-0.98504638671875,-0.0027618408203125,-0.0154571533203125
1761315832562140700,1.381140625,-0.98663330078125,-0.002471923828125,-0.0155792236328125
1761315832572187600,1.391187744140625,-0.9867401123046875,-0.002349853515625,-0.016265869140625
1761315832582234600,1.401234619140625,-0.9852447509765625,-0.00225830078125,-0.017181396484375
1761315832592281600,1.411281494140625,-0.98590087890625,-0.0034027099609375,-0.0169830322265625
1761315832602328600,1.42132861328125,-0.9860687255859375,-0.0026092529296875,-0.015716552734375
1761315832612375800,1.431375732421875,-0.9855499267578125,-0.0026397705078125,-0.015350341796875
1761315832622422800,1.4414228515625,-0.98541259765625,-0.002716064453125,-0.0157928466796875
1761315832632469800,1.4514697265625,-0.986175537109375,-0.003265380859375,-0.0157928466796875
1761315832642516700,1.461516845703125,-0.986175537109375,-0.0022735595703125,-0.0166015625
1761315832652563500,1.4715634765625,-0.985748291015625,-0.001617431640625,-0.0156097412109375
1761315832662610700,1.481610595703125,-0.9860992431640625,-0.0023651123046875,-0.0163116455078125
1761315832672657700,1.49165771484375,-0.986297607421875,-0.0033721923828125,-0.01641845703125
1761315832682704600,1.50170458984375,-0.98516845703125,-0.0027313232421875,-0.0158233642578125
1761315832692751600,1.511751708984375,-0.985748291015625,-0.0028076171875,-0.0155487060546875
1761315832702799600,1.521799560546875,-0.9849853515625,-0.0026092529296875,-0.0162353515625
1761315832712846800,1.531846923828125,-0.9856414794921875,-0.002349853515625,-0.0157470703125
1761315832722893800,1.541893798828125,-0.9854888916015625,-0.0021820068359375,-0.0152130126953125
1761315832732940800,1.55194091796875,-0.985626220703125,-0.002044677734375,-0.015411376953125
1761315832742987500,1.561987548828125,-0.9853973388671875,-0.0023040771484375,-0.01629638671875
1761315832753034500,1.572034423828125,-0.9856109619140625,-0.0029449462890625,-0.016693115234375
1761315832763081500,1.58208154296875,-0.98614501953125,-0.003387451171875,-0.0152130126953125
1761315832773128700,1.592128662109375,-0.9854278564453125,-0.0027008056640625,-0.0155181884765625
1761315832783175700,1.60217578125,-0.9866485595703125,-0.002288818359375,-0.016204833984375
1761315832793222700,1.61222265625,-0.9850921630859375,-0.0019683837890625,-0.015594482421875
1761315832803269600,1.62226953125,-0.9861907958984375,-0.00177001953125,-0.01568603515625
1761315832813316600,1.632316650390625,-0.9864349365234375,-0.0020599365234375,-0.0160675048828125
1761315832823363600,1.642363525390625,-0.986083984375,-0.0029449462890625,-0.0154571533203125
1761315832833411600,1.65241162109375,-0.985809326171875,-0.00347900390625,-0.016326904296875
1761315832843458600,1.66245849609375,-0.9857177734375,-0.00225830078125,-0.016448974609375
1761315832853505500,1.672505615234375,-0.9854278564453125,-0.002227783203125,-0.0160675048828125
1761315832863552500,1.682552490234375,-0.98602294921875,-0.0023040771484375,-0.0165863037109375
1761315832873599700,1.692599853515625,-0.986175537109375,-0.0016326904296875,-0.0167236328125
1761315832883646700,1.702646728515625,-0.98504638671875,-0.0021820068359375,-0.0164794921875
1761315832893693700,1.712693603515625,-0.986358642578125,-0.0032501220703125,-0.0161895751953125
1761315832903745000,1.7227451171875,-0.9857177734375,-0.003204345703125,-0.01544189453125
1761315832913792000,1.7327919921875,-0.98565673828125,-0.0026092529296875,-0.0156707763671875
1761315832923839000,1.7428388671875,-0.986419677734375,-0.0019989013671875,-0.0153656005859375
1761315832933885700,1.7528857421875,-0.9846649169921875,-0.002960205078125,-0.01605224609375
1761315832943933000,1.762932861328125,-0.9857330322265625,-0.0026397705078125,-0.015777587890625
1761315832953980000,1.77297998046875,-0.98504638671875,-0.00244140625,-0.0157623291015625
1761315832964027000,1.78302685546875,-0.98504638671875,-0.003173828125,-0.0156707763671875
1761315832974075000,1.793074951171875,-0.9861602783203125,-0.002593994140625,-0.015625
1761315832984121900,1.803121826171875,-0.9857330322265625,-0.0028533935546875,-0.0169525146484375
1761315832994169000,1.813169189453125,-0.98626708984375,-0.0026397705078125,-0.0160675048828125
1761315833004216000,1.823216064453125,-0.98468017578125,-0.0022430419921875,-0.0156402587890625
1761315833014263000,1.833262939453125,-0.9846343994140625,-0.0024261474609375,-0.0152130126953125
1761315833024309800,1.843309814453125,-0.9859771728515625,-0.0023193359375,-0.0154266357421875
1761315833034356700,1.853356689453125,-0.9847564697265625,-0.0023345947265625,-0.01495361328125
1761315833044403700,1.86340380859375,-0.98614501953125,-0.0014190673828125,-0.0159454345703125
1761315833054451000,1.873450927734375,-0.98590087890625,-0.001739501953125,-0.0159912109375
1761315833064498000,1.883497802734375,-0.98614501953125,-0.0015411376953125,-0.016571044921875
1761315833074545000,1.893544921875,-0.98614501953125,-0.0018310546875,-0.016082763671875
1761315833084591900,1.903591796875,-0.986358642578125,-0.0025482177734375,-0.0167388916015625
1761315833094638800,1.913638916015625,-0.9853668212890625,-0.00201416015625,-0.0163726806640625
1761315833104686800,1.923686767578125,-0.9853668212890625,-0.0027313232421875,-0.015838623046875
1761315833114733800,1.93373388671875,-0.9859771728515625,-0.002166748046875,-0.015472412109375
1761315833124780800,1.94378076171875,-0.985809326171875,-0.0017852783203125,-0.0155029296875
1761315833134827800,1.953827880859375,-0.986419677734375,-0.0021820068359375,-0.0164947509765625
1761315833144874800,1.963874755859375,-0.986419677734375,-0.0034332275390625,-0.015960693359375
1761315833154922000,1.973921875,-0.9853363037109375,-0.003326416015625,-0.0159912109375
1761315833164969000,1.983968994140625,-0.98583984375,-0.002532958984375,-0.016754150390625
1761315833175016000,1.994015869140625,-0.9861602783203125,-0.0032806396484375,-0.0159149169921875
1761315833185063000,2.00406298828125,-0.986114501953125,-0.0022125244140625,-0.0156402587890625
1761315833195110000,2.01410986328125,-0.9860382080078125,-0.001678466796875,-0.01641845703125
1761315833205156900,2.024156982421875,-0.9855804443359375,-0.002532958984375,-0.0157928466796875
1761315833215204000,2.0342041015625,-0.9859161376953125,-0.001617431640625,-0.01629638671875
1761315833225251000,2.0442509765625,-0.986358642578125,-0.001678466796875,-0.01617431640625
1761315833235297800,2.0542978515625,-0.986358642578125,-0.0030517578125,-0.0164642333984375
1761315833245345800,2.064345703125,-0.985198974609375,-0.002471923828125,-0.0154876708984375
1761315833255392800,2.074392822265625,-0.9851837158203125,-0.001861572265625,-0.0158233642578125
1761315833265440000,2.08443994140625,-0.98590087890625,-0.002349853515625,-0.014801025390625
1761315833275487000,2.094487060546875,-0.9856719970703125,-0.00262451171875,-0.015777587890625
1761315833285534000,2.104533935546875,-0.9853057861328125,-0.002532958984375,-0.01507568359375
1761315833295581000,2.114580810546875,-0.9855499267578125,-0.00189208984375,-0.0162811279296875
1761315833305628000,2.1246279296875,-0.9859771728515625,-0.0029449462890625,-0.01605224609375
1761315833315675100,2.134675048828125,-0.9860992431640625,-0.002593994140625,-0.0157012939453125
1761315833325721900,2.144721923828125,-0.985321044921875,-0.001861572265625,-0.0155792236328125
1761315833335768800,2.154768798828125,-0.9859466552734375,-0.001861572265625,-0.0159149169921875
1761315833345815800,2.16481591796875,-0.9864349365234375,-0.0021820068359375,-0.0169677734375
1761315833355862800,2.17486279296875,-0.98529052734375,-0.0018157958984375,-0.0159149169921875
1761315833365909800,2.18490966796875,-0.985992431640625,-0.001861572265625,-0.0160675048828125
1761315833375958000,2.1949580078125,-0.9857177734375,-0.0029144287109375,-0.015838623046875
1761315833386005000,2.2050048828125,-0.986053466796875,-0.0037841796875,-0.0173492431640625
1761315833396052000,2.215052001953125,-0.9852447509765625,-0.0022430419921875,-0.0159912109375
1761315833406099000,2.225098876953125,-0.98565673828125,-0.0022125244140625,-0.0149993896484375
1761315833416146000,2.23514599609375,-0.98602294921875,-0.0027313232421875,-0.0166015625
1761315833426193000,2.24519287109375,-0.9868927001953125,-0.003082275390625,-0.016448974609375
1761315833436240000,2.255239990234375,-0.9857025146484375,-0.0027008056640625,-0.0159454345703125
1761315833446286800,2.265286865234375,-0.9853057861328125,-0.0019989013671875,-0.0152435302734375
1761315833456333800,2.275333740234375,-0.9879302978515625,-0.001678466796875,-0.0150146484375
1761315833466380800,2.285380859375,-0.9869232177734375,-0.001953125,-0.0159149169921875
1761315833476427800,2.295427734375,-0.985321044921875,-0.0026702880859375,-0.0159454345703125
1761315833486475000,2.30547509765625,-0.985687255859375,-0.002197265625,-0.0159149169921875
1761315833496522000,2.31552197265625,-0.9862213134765625,-0.0025177001953125,-0.0157318115234375
1761315833506570000,2.325570068359375,-0.985931396484375,-0.0023956298828125,-0.015380859375
1761315833516616700,2.33561669921875,-0.9857940673828125,-0.0026397705078125,-0.0156707763671875
1761315833526664000,2.345663818359375,-0.985748291015625,-0.0025482177734375,-0.0164947509765625
1761315833536711000,2.3557109375,-0.9851837158203125,-0.001739501953125,-0.0164642333984375
1761315833546758000,2.3657578125,-0.9853363037109375,-0.0021514892578125,-0.0154876708984375
1761315833556804900,2.375804931640625,-0.9863433837890625,-0.00238037109375,-0.0152587890625
1761315833566851800,2.385851806640625,-0.98583984375,-0.0018768310546875,-0.01519775390625
1761315833576898800,2.39589892578125,-0.98541259765625,-0.001861572265625,-0.0159454345703125
1761315833586946000,2.405946044921875,-0.9862823486328125,-0.0016326904296875,-0.0167694091796875
1761315833596993000,2.415992919921875,-0.9857940673828125,-0.0022125244140625,-0.0160675048828125
1761315833607040000,2.4260400390625,-0.98638916015625,-0.001922607421875,-0.01434326171875
1761315833617087000,2.4360869140625,-0.9869232177734375,-0.0014801025390625,-0.0153961181640625
1761315833627134000,2.446134033203125,-0.98663330078125,-0.0024261474609375,-0.0174102783203125
1761315833637182000,2.456181884765625,-0.9861907958984375,-0.0031585693359375,-0.0159149169921875
1761315833647229000,2.46622900390625,-0.98583984375,-0.002777099609375,-0.01531982421875
1761315833657276000,2.47627587890625,-0.986083984375,-0.000701904296875,-0.0150299072265625
1761315833667323000,2.486322998046875,-0.9865264892578125,-0.00115966796875,-0.0158233642578125
1761315833677369900,2.496369873046875,-0.9857940673828125,-0.0019989013671875,-0.0164337158203125
1761315833687416800,2.506416748046875,-0.9863739013671875,-0.00244140625,-0.0162353515625
1761315833697464000,2.516464111328125,-0.985443115234375,-0.0026702880859375,-0.01531982421875
1761315833707511000,2.526510986328125,-0.9847564697265625,-0.002166748046875,-0.01513671875
1761315833717558000,2.53655810546875,-0.9871826171875,-0.00189208984375,-0.0158233642578125
1761315833727605000,2.54660498046875,-0.9859771728515625,-0.0029449462890625,-0.0164642333984375
1761315833737651700,2.556651611328125,-0.985565185546875,-0.0026397705078125,-0.01605224609375
1761315833747698700,2.56669873046875,-0.986053466796875,-0.0026702880859375,-0.01483154296875
1761315833757746000,2.576745849609375,-0.9857635498046875,-0.002471923828125,-0.015533447265625
1761315833767794000,2.5867939453125,-0.98681640625,-0.002410888671875,-0.015594482421875
1761315833777841000,2.5968408203125,-0.9855499267578125,-0.00164794921875,-0.016937255859375
1761315833787887900,2.606887939453125,-0.986419677734375,-0.001556396484375,-0.016876220703125
1761315833797935000,2.61693505859375,-0.98699951171875,-0.001922607421875,-0.0167999267578125
1761315833807982000,2.626982177734375,-0.98626708984375,-0.00225830078125,-0.015838623046875
1761315833818028800,2.63702880859375,-0.985626220703125,-0.0027618408203125,-0.0153045654296875
1761315833828075800,2.64707568359375,-0.9869842529296875,-0.0032196044921875,-0.0157470703125
1761315833838122800,2.657122802734375,-0.9859619140625,-0.003692626953125,-0.016387939453125
1761315833848169700,2.667169677734375,-0.9850616455078125,-0.002044677734375,-0.016357421875
1761315833858217000,2.677217041015625,-0.9864959716796875,-0.0017242431640625,-0.015380859375
1761315833868264000,2.687263916015625,-0.9852447509765625,-0.002227783203125,-0.015045166015625
1761315833878311000,2.697310791015625,-0.9857940673828125,-0.0024871826171875,-0.0157470703125
1761315833888358000,2.70735791015625,-0.985809326171875,-0.0028228759765625,-0.0164337158203125
1761315833898401300,2.7174013671875,-0.9857177734375,-0.00213623046875,-0.01593017578125
1761315833908448300,2.7274482421875,-0.9859466552734375,-0.0021820068359375,-0.015289306640625
1761315833918495200,2.7374951171875,-0.986053466796875,-0.0033416748046875,-0.01580810546875
1761315833928542500,2.74754248046875,-0.9857635498046875,-0.003387451171875,-0.015869140625
1761315833938589400,2.75758935546875,-0.985565185546875,-0.0021209716796875,-0.015960693359375
1761315833948636400,2.767636474609375,-0.98590087890625,-0.0018768310546875,-0.01556396484375
1761315833958683100,2.77768310546875,-0.9857025146484375,-0.0018310546875,-0.0159912109375
1761315833968730000,2.787730224609375,-0.98541259765625,-0.002685546875,-0.015472412109375
1761315833978777000,2.797777099609375,-0.9859771728515625,-0.0023956298828125,-0.0159149169921875
1761315833988824300,2.80782421875,-0.986053466796875,-0.002227783203125,-0.0156402587890625
1761315833998871300,2.817871337890625,-0.9862518310546875,-0.0029144287109375,-0.0164031982421875
1761315834008918300,2.827918212890625,-0.9857635498046875,-0.003143310546875,-0.0155181884765625
1761315834018965200,2.83796533203125,-0.986602783203125,-0.002716064453125,-0.016357421875
1761315834029012200,2.84801220703125,-0.98638916015625,-0.0023956298828125,-0.0145111083984375
1761315834039060500,2.858060546875,-0.9864959716796875,-0.0027008056640625,-0.0160675048828125
1761315834049107200,2.868107177734375,-0.9860992431640625,-0.0023193359375,-0.0158538818359375
1761315834059154200,2.878154296875,-0.98614501953125,-0.002227783203125,-0.0150909423828125
1761315834069201200,2.888201171875,-0.98602294921875,-0.00360107421875,-0.01605224609375
1761315834079248100,2.898248046875,-0.98565673828125,-0.0033721923828125,-0.015625
1761315834089295400,2.90829541015625,-0.9853668212890625,-0.003204345703125,-0.0164031982421875
1761315834099342300,2.91834228515625,-0.9863433837890625,-0.0014495849609375,-0.0150909423828125
1761315834109389300,2.928389404296875,-0.986541748046875,-0.0016326904296875,-0.0163726806640625
1761315834119436300,2.938436279296875,-0.9853363037109375,-0.0015106201171875,-0.01605224609375
1761315834129483300,2.948483154296875,-0.9866180419921875,-0.0023345947265625,-0.0160675048828125
1761315834139530200,2.9585302734375,-0.98614501953125,-0.0019073486328125,-0.015594482421875
1761315834149577500,2.968577392578125,-0.985198974609375,-0.0025787353515625,-0.0161285400390625
1761315834159624400,2.97862451171875,-0.9859466552734375,-0.0025177001953125,-0.0157928466796875
1761315834169672200,2.988672119140625,-0.9861297607421875,-0.0025177001953125,-0.0159454345703125
1761315834179719200,2.99871923828125,-0.9858856201171875,-0.0022125244140625,-0.016448974609375
1761315834189766100,3.00876611328125,-0.9868621826171875,-0.0022735595703125,-0.015106201171875
1761315834199813400,3.0188134765625,-0.9859771728515625,-0.0022430419921875,-0.01495361328125
1761315834209860400,3.0288603515625,-0.9864349365234375,-0.0021514892578125,-0.0162506103515625
1761315834219907300,3.0389072265625,-0.987030029296875,-0.00244140625,-0.015045166015625
1761315834229954300,3.048954345703125,-0.9863128662109375,-0.002044677734375,-0.0165252685546875
1761315834240001300,3.059001220703125,-0.985809326171875,-0.001708984375,-0.0160980224609375
1761315834250048300,3.06904833984375,-0.98553466796875,-0.0026092529296875,-0.0153656005859375
1761315834260095200,3.07909521484375,-0.985626220703125,-0.0022735595703125,-0.01580810546875
1761315834270142200,3.08914208984375,-0.985443115234375,-0.002685546875,-0.0158538818359375
1761315834280189200,3.099189208984375,-0.986602783203125,-0.001617431640625,-0.0157470703125
1761315834290236200,3.109236083984375,-0.986083984375,-0.002227783203125,-0.0166168212890625
1761315834300284400,3.119284423828125,-0.9868011474609375,-0.0023345947265625,-0.015838623046875
1761315834310331400,3.129331298828125,-0.9842529296875,-0.0021209716796875,-0.0159149169921875
1761315834320378400,3.13937841796875,-0.9860992431640625,-0.0028533935546875,-0.016326904296875
1761315834330425300,3.14942529296875,-0.9871826171875,-0.0018157958984375,-0.0158233642578125
1761315834340472300,3.159472412109375,-0.9869384765625,-0.0015106201171875,-0.0155181884765625
1761315834350519300,3.169519287109375,-0.9864349365234375,-0.0015869140625,-0.0150604248046875
1761315834360566300,3.179566162109375,-0.9863433837890625,-0.001953125,-0.0154571533203125
1761315834370613200,3.18961328125,-0.9868621826171875,-0.002685546875,-0.0161895751953125
1761315834380660200,3.19966015625,-0.986663818359375,-0.0031585693359375,-0.016021728515625
1761315834390707200,3.209707275390625,-0.9863433837890625,-0.0021514892578125,-0.0153961181640625
1761315834400754200,3.219754150390625,-0.9861907958984375,-0.0024566650390625,-0.016265869140625
1761315834410801200,3.22980126953125,-0.985504150390625,-0.0027313232421875,-0.017120361328125
1761315834420848400,3.239848388671875,-0.985809326171875,-0.0018768310546875,-0.016815185546875
1761315834430895400,3.249895263671875,-0.9860076904296875,-0.001953125,-0.01544189453125
1761315834440942300,3.2599423828125,-0.9857635498046875,-0.00238037109375,-0.0152587890625
1761315834450990000,3.269989990234375,-0.986236572265625,-0.0027008056640625,-0.0160064697265625
1761315834461037000,3.280037109375,-0.9859771728515625,-0.002593994140625,-0.016693115234375
1761315834471084300,3.290084228515625,-0.9857635498046875,-0.001708984375,-0.0166015625
1761315834481131300,3.30013134765625,-0.9865264892578125,-0.0018463134765625,-0.0151214599609375
1761315834491178200,3.31017822265625,-0.9863128662109375,-0.0023345947265625,-0.01617431640625
1761315834501225200,3.32022509765625,-0.9858551025390625,-0.002777099609375,-0.01544189453125
1761315834511272200,3.330272216796875,-0.9860687255859375,-0.0023040771484375,-0.0156707763671875
1761315834521319400,3.3403193359375,-0.986053466796875,-0.00274658203125,-0.0162506103515625
1761315834531366400,3.350366455078125,-0.986419677734375,-0.00201416015625,-0.0159454345703125
1761315834541413400,3.360413330078125,-0.986663818359375,-0.002227783203125,-0.0167694091796875
1761315834551460400,3.37046044921875,-0.9869842529296875,-0.00250244140625,-0.0160980224609375
1761315834561507300,3.38050732421875,-0.9853515625,-0.0029754638671875,-0.0160369873046875
1761315834571554300,3.39055419921875,-0.9860382080078125,-0.0024871826171875,-0.0162811279296875
1761315834581602300,3.400602294921875,-0.98590087890625,-0.0022430419921875,-0.0156707763671875
1761315834591649300,3.410649169921875,-0.9851837158203125,-0.002166748046875,-0.0153961181640625
1761315834601696300,3.4206962890625,-0.9858856201171875,-0.0018310546875,-0.0163116455078125
1761315834611743200,3.4307431640625,-0.9860382080078125,-0.002593994140625,-0.016082763671875
1761315834621790200,3.440790283203125,-0.9849395751953125,-0.0020599365234375,-0.015655517578125
1761315834631837400,3.45083740234375,-0.9862823486328125,-0.00225830078125,-0.01617431640625
1761315834641884400,3.460884521484375,-0.985443115234375,-0.0020599365234375,-0.0153656005859375
1761315834651931400,3.470931396484375,-0.986663818359375,-0.0020751953125,-0.0159149169921875
1761315834661978400,3.480978271484375,-0.9860687255859375,-0.0026397705078125,-0.015625
1761315834672025000,3.491025146484375,-0.985931396484375,-0.001800537109375,-0.0153350830078125
1761315834682072000,3.501072021484375,-0.98590087890625,-0.001922607421875,-0.01641845703125
1761315834692119300,3.511119384765625,-0.9864501953125,-0.0027313232421875,-0.0168304443359375
1761315834702166300,3.521166259765625,-0.9857177734375,-0.0022430419921875,-0.01593017578125
1761315834712213200,3.531213134765625,-0.985748291015625,-0.0022735595703125,-0.014801025390625
1761315834722260200,3.54126025390625,-0.9858856201171875,-0.0024566650390625,-0.0155792236328125
1761315834732308500,3.55130859375,-0.986053466796875,-0.003387451171875,-0.0157012939453125
1761315834742355500,3.56135546875,-0.985687255859375,-0.00201416015625,-0.0158843994140625
1761315834752402400,3.57140234375,-0.9855499267578125,-0.00115966796875,-0.0149383544921875
1761315834762449200,3.58144921875,-0.9865875244140625,-0.001983642578125,-0.0156402587890625
1761315834772496100,3.59149609375,-0.9865264892578125,-0.002166748046875,-0.016143798828125
1761315834782543000,3.601543212890625,-0.9859466552734375,-0.002685546875,-0.01641845703125
1761315834792590300,3.61159033203125,-0.9862518310546875,-0.0024261474609375,-0.0164794921875
1761315834802637300,3.62163720703125,-0.986480712890625,-0.0019378662109375,-0.015594482421875
1761315834812684300,3.631684326171875,-0.9865875244140625,-0.0021209716796875,-0.0161590576171875
1761315834822731300,3.641731201171875,-0.985931396484375,-0.0017547607421875,-0.0166778564453125
1761315834832778200,3.6517783203125,-0.9852752685546875,-0.00244140625,-0.01678466796875
1761315834842825200,3.6618251953125,-0.985748291015625,-0.0025482177734375,-0.01513671875
1761315834852872400,3.67187255859375,-0.986236572265625,-0.0020294189453125,-0.014190673828125
1761315834862920200,3.681920166015625,-0.9860382080078125,-0.00238037109375,-0.0153656005859375
1761315834872967200,3.69196728515625,-0.9868927001953125,-0.0022430419921875,-0.0162506103515625
1761315834883014100,3.70201416015625,-0.985260009765625,-0.002105712890625,-0.0161895751953125
1761315834893061000,3.71206103515625,-0.9859466552734375,-0.0022430419921875,-0.0162506103515625
1761315834903109400,3.722109375,-0.986419677734375,-0.0023193359375,-0.01556396484375
1761315834913156600,3.732156494140625,-0.9849395751953125,-0.00177001953125,-0.01495361328125
1761315834923203600,3.74220361328125,-0.9867401123046875,-0.002166748046875,-0.0157470703125
1761315834933250300,3.752250244140625,-0.98651123046875,-0.0016937255859375,-0.0157928466796875
1761315834943297300,3.76229736328125,-0.9862518310546875,-0.002044677734375,-0.0156402587890625
1761315834953344300,3.77234423828125,-0.9863433837890625,-0.0019989013671875,-0.0158538818359375
1761315834963391200,3.78239111328125,-0.985870361328125,-0.002410888671875,-0.0152587890625
1761315834973438500,3.7924384765625,-0.9853363037109375,-0.00213623046875,-0.016632080078125
1761315834983485400,3.8024853515625,-0.986083984375,-0.0032806396484375,-0.0160675048828125
1761315834993532400,3.812532470703125,-0.98468017578125,-0.002410888671875,-0.015960693359375
1761315835003579400,3.822579345703125,-0.9859771728515625,-0.0020599365234375,-0.0151824951171875
1761315835013627400,3.83262744140625,-0.985687255859375,-0.0020904541015625,-0.015960693359375
1761315835023674400,3.84267431640625,-0.9857330322265625,-0.001953125,-0.0158538818359375
1761315835033721300,3.852721435546875,-0.9863128662109375,-0.0019683837890625,-0.0153656005859375
1761315835043768300,3.862768310546875,-0.9864349365234375,-0.0016326904296875,-0.0162353515625
1761315835053815300,3.872815185546875,-0.9863128662109375,-0.00146484375,-0.0164794921875
1761315835063862300,3.8828623046875,-0.9858856201171875,-0.0025482177734375,-0.0157623291015625
1761315835073909500,3.892909423828125,-0.9856719970703125,-0.001953125,-0.0162353515625
1761315835083956500,3.90295654296875,-0.98712158203125,-0.0010833740234375,-0.016204833984375
1761315835094003500,3.91300341796875,-0.9861297607421875,-0.0019073486328125,-0.01556396484375
1761315835104050400,3.923050537109375,-0.9863128662109375,-0.0027618408203125,-0.016815185546875
1761315835114097400,3.933097412109375,-0.9868316650390625,-0.0024261474609375,-0.0157928466796875
1761315835124144400,3.943144287109375,-0.985595703125,-0.0023956298828125,-0.0155792236328125
1761315835134191600,3.953191650390625,-0.985748291015625,-0.0030364990234375,-0.0157318115234375
1761315835144238600,3.963238525390625,-0.9864349365234375,-0.0023651123046875,-0.0160980224609375
1761315835154285300,3.973285400390625,-0.985870361328125,-0.001861572265625,-0.016326904296875
1761315835164333300,3.983333251953125,-0.9866790771484375,-0.0018768310546875,-0.0150299072265625
1761315835174380300,3.99338037109375,-0.985931396484375,-0.0019073486328125,-0.016326904296875
1761315835184427500,4.003427490234375,-0.986175537109375,-0.001861572265625,-0.0163726806640625
1761315835194474500,4.013474609375,-0.986236572265625,-0.001708984375,-0.015289306640625
1761315835204521500,4.023521484375,-0.98529052734375,-0.00213623046875,-0.015777587890625
1761315835214568400,4.033568359375,-0.98565673828125,-0.002227783203125,-0.0162811279296875
1761315835224615400,4.043615478515625,-0.9862213134765625,-0.002960205078125,-0.015472412109375
1761315835234662400,4.053662353515625,-0.9854736328125,-0.0026702880859375,-0.0157623291015625
1761315835244709400,4.06370947265625,-0.9864501953125,-0.0016326904296875,-0.0156707763671875
1761315835254756400,4.07375634765625,-0.985931396484375,-0.0023956298828125,-0.0159759521484375
1761315835264803300,4.08380322265625,-0.9844512939453125,-0.002777099609375,-0.0158843994140625
1761315835274850300,4.093850341796875,-0.98590087890625,-0.0022125244140625,-0.015655517578125
1761315835284897300,4.103897216796875,-0.9859466552734375,-0.001678466796875,-0.0159759521484375
1761315835294944300,4.1139443359375,-0.9859771728515625,-0.0027313232421875,-0.0160980224609375
1761315835304991500,4.123991455078125,-0.9855499267578125,-0.002227783203125,-0.0166015625
1761315835315039500,4.13403955078125,-0.9860687255859375,-0.002166748046875,-0.016143798828125
1761315835325086500,4.14408642578125,-0.98602294921875,-0.001953125,-0.015625
1761315835335133400,4.154133544921875,-0.9854888916015625,-0.0032958984375,-0.0158538818359375
1761315835345180400,4.164180419921875,-0.986602783203125,-0.0029754638671875,-0.0160675048828125
1761315835355227400,4.174227294921875,-0.986114501953125,-0.00213623046875,-0.016357421875
1761315835365274400,4.1842744140625,-0.9866790771484375,-0.00238037109375,-0.0155792236328125
1761315835375321300,4.1943212890625,-0.98590087890625,-0.0016632080078125,-0.0158538818359375
1761315835385368300,4.204368408203125,-0.985443115234375,-0.0018768310546875,-0.0144195556640625
1761315835395415300,4.214415283203125,-0.9854736328125,-0.0020599365234375,-0.0158538818359375
1761315835405462500,4.224462646484375,-0.9863128662109375,-0.0015869140625,-0.0155029296875
1761315835415509500,4.234509521484375,-0.9855194091796875,-0.002166748046875,-0.0162811279296875
1761315835425556500,4.244556396484375,-0.9857330322265625,-0.0020599365234375,-0.0163726806640625
1761315835435603500,4.254603515625,-0.9859466552734375,-0.00140380859375,-0.01580810546875
1761315835445650400,4.264650390625,-0.986328125,-0.0033111572265625,-0.0162811279296875
1761315835455697400,4.274697509765625,-0.9858245849609375,-0.0029296875,-0.0165252685546875
1761315835465745400,4.284745361328125,-0.9854888916015625,-0.0025634765625,-0.0157470703125
1761315835475792400,4.29479248046875,-0.986663818359375,-0.00213623046875,-0.016448974609375
1761315835485839400,4.30483935546875,-0.985809326171875,-0.0024871826171875,-0.0154571533203125
1761315835495886300,4.31488623046875,-0.986297607421875,-0.002349853515625,-0.0157623291015625
1761315835505933300,4.324933349609375,-0.985260009765625,-0.0014495849609375,-0.0160064697265625
1761315835515980500,4.33498046875,-0.985931396484375,-0.0020599365234375,-0.01580810546875
1761315835526027500,4.345027587890625,-0.98541259765625,-0.0025787353515625,-0.0158843994140625
1761315835536074500,4.355074462890625,-0.9862213134765625,-0.001922607421875,-0.015777587890625
1761315835546121500,4.36512158203125,-0.9847259521484375,-0.0027923583984375,-0.0157928466796875
1761315835556168200,4.375168212890625,-0.9853668212890625,-0.0020904541015625,-0.0163726806640625
1761315835566215400,4.38521533203125,-0.985198974609375,-0.001678466796875,-0.0164031982421875
1761315835576262400,4.395262451171875,-0.9858245849609375,-0.0027618408203125,-0.0157470703125
1761315835586309400,4.405309326171875,-0.985137939453125,-0.0027008056640625,-0.0157318115234375
1761315835596356400,4.4153564453125,-0.98638916015625,-0.0023345947265625,-0.0163726806640625
1761315835606403300,4.4254033203125,-0.986541748046875,-0.0020904541015625,-0.0161285400390625
1761315835616450300,4.4354501953125,-0.9864501953125,-0.002471923828125,-0.0162200927734375
1761315835626498600,4.44549853515625,-0.9864044189453125,-0.0026092529296875,-0.0154266357421875
1761315835636545500,4.455545654296875,-0.986053466796875,-0.0025634765625,-0.0149993896484375
1761315835646592300,4.46559228515625,-0.98590087890625,-0.00244140625,-0.0153656005859375
1761315835656639200,4.47563916015625,-0.985687255859375,-0.002166748046875,-0.016204833984375
1761315835666686200,4.485686279296875,-0.986663818359375,-0.0032501220703125,-0.01556396484375
1761315835676733400,4.4957333984375,-0.9868316650390625,-0.0024566650390625,-0.0161895751953125
1761315835686780400,4.505780517578125,-0.986083984375,-0.00146484375,-0.0161590576171875
1761315835696827400,4.515827392578125,-0.9852447509765625,-0.0018463134765625,-0.0162200927734375
1761315835706874400,4.525874267578125,-0.9865264892578125,-0.002471923828125,-0.015960693359375
1761315835716921300,4.53592138671875,-0.9863128662109375,-0.003143310546875,-0.015899658203125
1761315835726968300,4.54596826171875,-0.9858245849609375,-0.002960205078125,-0.0157318115234375
1761315835737015600,4.556015625,-0.98590087890625,-0.0019073486328125,-0.0166168212890625
1761315835747062500,4.5660625,-0.9857025146484375,-0.0023956298828125,-0.0169219970703125
1761315835757109500,4.576109619140625,-0.9864654541015625,-0.0023040771484375,-0.0155792236328125
1761315835767156500,4.586156494140625,-0.9868011474609375,-0.0023651123046875,-0.015777587890625
1761315835777203200,4.596203125,-0.985809326171875,-0.0025787353515625,-0.016510009765625
1761315835787251500,4.60625146484375,-0.985931396484375,-0.0019989013671875,-0.015625
1761315835797298400,4.61629833984375,-0.9857025146484375,-0.001861572265625,-0.016357421875
1761315835807345400,4.626345458984375,-0.9856719970703125,-0.0026092529296875,-0.0155181884765625
1761315835817392400,4.636392333984375,-0.9871978759765625,-0.0026092529296875,-0.0154571533203125
1761315835827439400,4.646439453125,-0.9863433837890625,-0.0023651123046875,-0.01605224609375
1761315835837486600,4.656486572265625,-0.9864349365234375,-0.0020904541015625,-0.0153961181640625
1761315835847533600,4.666533447265625,-0.98626708984375,-0.00225830078125,-0.015411376953125
1761315835857580500,4.67658056640625,-0.9864959716796875,-0.0023040771484375,-0.0155181884765625
1761315835867627300,4.686627197265625,-0.9860687255859375,-0.0019073486328125,-0.0157470703125
1761315835877674200,4.69667431640625,-0.98638916015625,-0.00225830078125,-0.016204833984375
1761315835887721200,4.70672119140625,-0.9860382080078125,-0.002838134765625,-0.01593017578125
1761315835897768400,4.7167685546875,-0.98583984375,-0.0024261474609375,-0.0157318115234375
1761315835907814700,4.726814697265625,-0.9859771728515625,-0.002655029296875,-0.0153045654296875
1761315835917861600,4.736861572265625,-0.9860687255859375,-0.001922607421875,-0.01580810546875
1761315835927908600,4.74690869140625,-0.9863128662109375,-0.0026092529296875,-0.0152740478515625
1761315835937955600,4.75695556640625,-0.985015869140625,-0.0025634765625,-0.0155029296875
1761315835948003800,4.76700390625,-0.98602294921875,-0.001678466796875,-0.0155181884765625
1761315835958050800,4.77705078125,-0.987030029296875,-0.0020599365234375,-0.015594482421875
1761315835968097800,4.787097900390625,-0.9853363037109375,-0.0028228759765625,-0.015716552734375
1761315835978144800,4.797144775390625,-0.9857025146484375,-0.002166748046875,-0.0159912109375
1761315835988191500,4.80719140625,-0.98614501953125,-0.002899169921875,-0.01544189453125
1761315835998238700,4.81723876953125,-0.9862213134765625,-0.00238037109375,-0.0159149169921875
1761315836008285700,4.82728564453125,-0.986114501953125,-0.001739501953125,-0.0164031982421875
1761315836018332700,4.837332763671875,-0.985137939453125,-0.0023956298828125,-0.0153350830078125
1761315836028379600,4.847379638671875,-0.986297607421875,-0.0024261474609375,-0.016143798828125
1761315836038426600,4.857426513671875,-0.9861297607421875,-0.00238037109375,-0.01495361328125
1761315836048473600,4.8674736328125,-0.9860992431640625,-0.0019073486328125,-0.01495361328125
1761315836058520800,4.877520751953125,-0.9860076904296875,-0.00164794921875,-0.0157928466796875
1761315836068567800,4.88756787109375,-0.9869842529296875,-0.0015716552734375,-0.0162506103515625
1761315836078614800,4.89761474609375,-0.986053466796875,-0.00164794921875,-0.01605224609375
1761315836088661800,4.907661865234375,-0.986083984375,-0.0022125244140625,-0.01580810546875
1761315836098708700,4.917708740234375,-0.986236572265625,-0.0022125244140625,-0.0155181884765625
1761315836108755700,4.927755615234375,-0.9864959716796875,-0.0027618408203125,-0.0152740478515625
1761315836118803700,4.9378037109375,-0.985687255859375,-0.0022735595703125,-0.0154876708984375
1761315836128850700,4.9478505859375,-0.9868316650390625,-0.0011138916015625,-0.016357421875
1761315836138897700,4.957897705078125,-0.9855804443359375,-0.00128173828125,-0.016143798828125
1761315836148941800,4.96794189453125,-0.985809326171875,-0.0019683837890625,-0.0162506103515625
1761315836158988800,4.97798876953125,-0.985565185546875,-0.0023193359375,-0.0162200927734375
1761315836169035800,4.988035888671875,-0.98565673828125,-0.0026397705078125,-0.0155181884765625
1761315836179082800,4.998082763671875,-0.9857635498046875,-0.0017852783203125,-0.016021728515625
1761315836189129500,5.00812939453125,-0.985595703125,-0.0019683837890625,-0.0157470703125
1761315836199176700,5.0181767578125,-0.98602294921875,-0.00238037109375,-0.015167236328125
1761315836209223700,5.0282236328125,-0.9864959716796875,-0.0025482177734375,-0.015380859375
1761315836219270700,5.038270751953125,-0.9869842529296875,-0.0020751953125,-0.0151519775390625
1761315836229318700,5.048318603515625,-0.9854736328125,-0.00286865234375,-0.015106201171875
1761315836239365600,5.05836572265625,-0.9854736328125,-0.0024871826171875,-0.015960693359375
1761315836249412900,5.068412841796875,-0.986328125,-0.0026092529296875,-0.016143798828125
1761315836259459800,5.0784599609375,-0.98590087890625,-0.0028228759765625,-0.0160675048828125
1761315836269506800,5.0885068359375,-0.9863128662109375,-0.00152587890625,-0.015167236328125
1761315836279553500,5.098553466796875,-0.9861297607421875,-0.001190185546875,-0.0154571533203125
1761315836289600500,5.1086005859375,-0.986236572265625,-0.0016326904296875,-0.0160675048828125
1761315836299647700,5.118647705078125,-0.9861907958984375,-0.0028076171875,-0.0161590576171875
1761315836309694700,5.12869482421875,-0.9860687255859375,-0.00189208984375,-0.01495361328125
1761315836319741700,5.13874169921875,-0.9858245849609375,-0.002197265625,-0.0158233642578125
1761315836329788700,5.14878857421875,-0.9857940673828125,-0.002716064453125,-0.0157318115234375
1761315836339835600,5.158835693359375,-0.9857177734375,-0.0026397705078125,-0.0152740478515625
1761315836349882600,5.168882568359375,-0.986480712890625,-0.0019378662109375,-0.015716552734375
1761315836359929900,5.178929931640625,-0.986083984375,-0.00238037109375,-0.015533447265625
1761315836369976800,5.188976806640625,-0.9866943359375,-0.0021209716796875,-0.0159759521484375
1761315836380023800,5.19902392578125,-0.986358642578125,-0.0020904541015625,-0.0158233642578125
1761315836390070800,5.20907080078125,-0.9865570068359375,-0.002288818359375,-0.0169830322265625
1761315836400117800,5.21911767578125,-0.9865570068359375,-0.0026702880859375,-0.0165863037109375
1761315836410165800,5.229165771484375,-0.9859161376953125,-0.0021820068359375,-0.0167388916015625
1761315836420212700,5.239212646484375,-0.9859466552734375,-0.0022430419921875,-0.0156707763671875
1761315836430259700,5.249259765625,-0.98541259765625,-0.0033416748046875,-0.0160675048828125
1761315836440306700,5.259306640625,-0.986114501953125,-0.001953125,-0.0153656005859375
1761315836450353700,5.269353759765625,-0.9861907958984375,-0.0025634765625,-0.015380859375
1761315836460400600,5.279400634765625,-0.9866180419921875,-0.0022430419921875,-0.0167236328125
1761315836470447900,5.28944775390625,-0.9861907958984375,-0.002166748046875,-0.0157470703125
1761315836480494800,5.299494873046875,-0.985443115234375,-0.00201416015625,-0.0155181884765625
1761315836490541800,5.309541748046875,-0.985931396484375,-0.002471923828125,-0.01611328125
1761315836500588500,5.319588623046875,-0.98651123046875,-0.002716064453125,-0.015838623046875
1761315836510635500,5.329635498046875,-0.9858856201171875,-0.0018768310546875,-0.0160675048828125
1761315836520682800,5.339682861328125,-0.9853515625,-0.0020751953125,-0.0167236328125
1761315836530729700,5.349729736328125,-0.9852447509765625,-0.002685546875,-0.0166473388671875
1761315836540776700,5.359776611328125,-0.9859161376953125,-0.002166748046875,-0.0164031982421875
1761315836550823700,5.36982373046875,-0.9873046875,-0.0022430419921875,-0.0154266357421875
1761315836560870700,5.37987060546875,-0.986053466796875,-0.0019683837890625,-0.015777587890625
1761315836570917600,5.389917724609375,-0.9863128662109375,-0.0027618408203125,-0.0155181884765625
1761315836580964900,5.39996484375,-0.9864501953125,-0.00244140625,-0.0163421630859375
1761315836591012600,5.4100126953125,-0.986297607421875,-0.002410888671875,-0.0164794921875
1761315836601059600,5.4200595703125,-0.9862823486328125,-0.0019683837890625,-0.0153350830078125
1761315836611106600,5.4301064453125,-0.986419677734375,-0.002288818359375,-0.0162506103515625
1761315836621153500,5.440153564453125,-0.9856719970703125,-0.0021209716796875,-0.0156402587890625
1761315836631200800,5.45020068359375,-0.98602294921875,-0.00250244140625,-0.01654052734375
1761315836641247700,5.460247802734375,-0.9863433837890625,-0.0022125244140625,-0.0166168212890625
1761315836651294700,5.470294677734375,-0.986114501953125,-0.001983642578125,-0.0160064697265625
1761315836661341700,5.480341796875,-0.9856719970703125,-0.0027313232421875,-0.0162200927734375
1761315836671388700,5.490388671875,-0.9865264892578125,-0.00238037109375,-0.0162811279296875
1761315836681435600,5.500435546875,-0.986083984375,-0.0025482177734375,-0.0159454345703125
1761315836691483000,5.51048291015625,-0.9861907958984375,-0.0023956298828125,-0.0157623291015625
1761315836701529900,5.52052978515625,-0.9861907958984375,-0.00213623046875,-0.015167236328125
1761315836711576600,5.53057666015625,-0.98602294921875,-0.00177001953125,-0.0164642333984375
1761315836721623600,5.54062353515625,-0.9862213134765625,-0.002197265625,-0.0164031982421875
1761315836731670500,5.55067041015625,-0.9859619140625,-0.0023956298828125,-0.0156707763671875
1761315836741717500,5.560717529296875,-0.9865570068359375,-0.0020599365234375,-0.015228271484375
1761315836751764700,5.5707646484375,-0.986328125,-0.002593994140625,-0.0166473388671875
1761315836761811700,5.580811767578125,-0.9864654541015625,-0.001495361328125,-0.0164947509765625
1761315836771858700,5.590858642578125,-0.986236572265625,-0.002349853515625,-0.0160980224609375
1761315836781906700,5.60090673828125,-0.9859161376953125,-0.0024566650390625,-0.0167388916015625
1761315836791954700,5.61095458984375,-0.9860382080078125,-0.00213623046875,-0.015472412109375
1761315836802001700,5.621001708984375,-0.9861907958984375,-0.002593994140625,-0.015380859375
1761315836812048600,5.631048583984375,-0.98638916015625,-0.0021514892578125,-0.0157928466796875
1761315836822095600,5.641095703125,-0.986297607421875,-0.00238037109375,-0.0157470703125
1761315836832144000,5.651143798828125,-0.9864501953125,-0.0024566650390625,-0.0165252685546875
1761315836842190800,5.66119091796875,-0.98638916015625,-0.0020904541015625,-0.016448974609375
1761315836852237800,5.67123779296875,-0.9873199462890625,-0.001861572265625,-0.015533447265625
1761315836862284500,5.681284423828125,-0.986358642578125,-0.0032958984375,-0.0157318115234375
1761315836872331500,5.69133154296875,-0.9845123291015625,-0.0027618408203125,-0.016754150390625
1761315836882378500,5.70137841796875,-0.9860687255859375,-0.0021514892578125,-0.0158538818359375
1761315836892425700,5.71142578125,-0.9871063232421875,-0.0023040771484375,-0.0157318115234375
1761315836902472400,5.721472412109375,-0.9868316650390625,-0.002105712890625,-0.016357421875
1761315836912519400,5.73151953125,-0.986328125,-0.002288818359375,-0.016448974609375
1761315836922566400,5.74156640625,-0.9857635498046875,-0.0023956298828125,-0.0156097412109375
1761315836932613600,5.751613525390625,-0.9860076904296875,-0.002410888671875,-0.0160980224609375
1761315836942660600,5.76166064453125,-0.9869842529296875,-0.002044677734375,-0.0153045654296875
1761315836952707600,5.77170751953125,-0.9864959716796875,-0.0030517578125,-0.016510009765625
1761315836962754600,5.781754638671875,-0.985595703125,-0.0029449462890625,-0.0164947509765625
1761315836972801500,5.791801513671875,-0.9859771728515625,-0.001953125,-0.0157623291015625
1761315836982848800,5.801848876953125,-0.985748291015625,-0.0021209716796875,-0.0158538818359375
1761315836992895500,5.8118955078125,-0.9865264892578125,-0.0021514892578125,-0.0166778564453125
1761315837002942500,5.8219423828125,-0.9871368408203125,-0.0027923583984375,-0.015869140625
1761315837012989400,5.831989501953125,-0.9854278564453125,-0.00225830078125,-0.016021728515625
1761315837023037400,5.842037353515625,-0.986236572265625,-0.00238037109375,-0.01568603515625
1761315837033084700,5.852084716796875,-0.98553466796875,-0.0021209716796875,-0.015411376953125
1761315837043131600,5.862131591796875,-0.9864044189453125,-0.0020294189453125,-0.01544189453125
1761315837053178600,5.8721787109375,-0.986114501953125,-0.0024261474609375,-0.016937255859375
1761315837063225600,5.8822255859375,-0.98565673828125,-0.002197265625,-0.016021728515625
1761315837073272600,5.8922724609375,-0.9854736328125,-0.00225830078125,-0.015655517578125
1761315837083319600,5.902319580078125,-0.98614501953125,-0.0023956298828125,-0.015899658203125
1761315837093366500,5.912366455078125,-0.9858551025390625,-0.0025482177734375,-0.0158233642578125
1761315837103413500,5.92241357421875,-0.9864044189453125,-0.0021820068359375,-0.0157623291015625
1761315837113460500,5.93246044921875,-0.98583984375,-0.00225830078125,-0.0157928466796875
1761315837123507500,5.942507568359375,-0.9860076904296875,-0.0025482177734375,-0.016326904296875
1761315837133554400,5.952554443359375,-0.9857635498046875,-0.0030670166015625,-0.015167236328125
1761315837143601400,5.962601318359375,-0.9852294921875,-0.00286865234375,-0.014984130859375
1761315837153648600,5.972648681640625,-0.9866180419921875,-0.0022125244140625,-0.0159759521484375
1761315837163695600,5.982695556640625,-0.9867095947265625,-0.0026092529296875,-0.016204833984375
1761315837173742600,5.99274267578125,-0.9860992431640625,-0.0012359619140625,-0.0157318115234375
1761315837183789600,6.00278955078125,-0.985870361328125,-0.0013427734375,-0.015594482421875
1761315837193836500,6.01283642578125,-0.9865264892578125,-0.0024261474609375,-0.015777587890625
1761315837203883500,6.022883544921875,-0.9857025146484375,-0.0031890869140625,-0.0159454345703125
1761315837213930500,6.032930419921875,-0.9866485595703125,-0.0027008056640625,-0.016204833984375
1761315837223978500,6.042978515625,-0.9861907958984375,-0.002899169921875,-0.0160980224609375
1761315837234025500,6.053025390625,-0.98663330078125,-0.002593994140625,-0.015960693359375
1761315837244072400,6.063072509765625,-0.9870452880859375,-0.0017547607421875,-0.01715087890625
1761315837254119700,6.07311962890625,-0.9855804443359375,-0.001953125,-0.01568603515625
1761315837264166700,6.083166748046875,-0.986175537109375,-0.0016326904296875,-0.01593017578125
1761315837274213600,6.093213623046875,-0.9849853515625,-0.002899169921875,-0.0159759521484375
1761315837284260600,6.103260498046875,-0.986724853515625,-0.00213623046875,-0.0165557861328125
1761315837294307600,6.1133076171875,-0.98553466796875,-0.0018157958984375,-0.0164794921875
1761315837304354300,6.123354248046875,-0.98651123046875,-0.0020294189453125,-0.0164337158203125
1761315837314401500,6.133401611328125,-0.98614501953125,-0.001739501953125,-0.0157623291015625
1761315837324448500,6.143448486328125,-0.985748291015625,-0.0019073486328125,-0.015899658203125
1761315837334495500,6.15349560546875,-0.985382080078125,-0.0022430419921875,-0.0160064697265625
1761315837344542500,6.16354248046875,-0.9857177734375,-0.0025177001953125,-0.0154266357421875
1761315837354589400,6.17358935546875,-0.9864349365234375,-0.002227783203125,-0.0165557861328125
1761315837364636400,6.183636474609375,-0.9871673583984375,-0.002777099609375,-0.016265869140625
1761315837374683600,6.19368359375,-0.9859771728515625,-0.0028839111328125,-0.01580810546875
1761315837384730600,6.203730712890625,-0.985565185546875,-0.0023651123046875,-0.0157318115234375
1761315837394777600,6.213777587890625,-0.9869232177734375,-0.0021209716796875,-0.016082763671875
1761315837404824600,6.223824462890625,-0.98541259765625,-0.0016021728515625,-0.015289306640625
1761315837414871600,6.23387158203125,-0.986083984375,-0.0028076171875,-0.015289306640625
1761315837424918500,6.24391845703125,-0.98651123046875,-0.0020751953125,-0.0158843994140625
1761315837434966500,6.253966552734375,-0.985687255859375,-0.0018768310546875,-0.0158843994140625
1761315837445013500,6.264013427734375,-0.9862823486328125,-0.0019683837890625,-0.0155792236328125
1761315837455060500,6.274060546875,-0.9857635498046875,-0.0026397705078125,-0.0159759521484375
1761315837465107500,6.284107421875,-0.9854278564453125,-0.003326416015625,-0.0157470703125
1761315837475154700,6.29415478515625,-0.9853363037109375,-0.0031585693359375,-0.0163421630859375
1761315837485201700,6.30420166015625,-0.98516845703125,-0.001983642578125,-0.015045166015625
1761315837495248600,6.31424853515625,-0.9858551025390625,-0.0001068115234375,-0.0155792236328125
1761315837505295600,6.324295654296875,-0.9851226806640625,-0.0003814697265625,-0.015472412109375
1761315837515342600,6.334342529296875,-0.98736572265625,-0.00177001953125,-0.016571044921875
1761315837525389300,6.344389404296875,-0.9860687255859375,-0.0037689208984375,-0.0169219970703125
1761315837535436500,6.3544365234375,-0.9860992431640625,-0.00384521484375,-0.0149993896484375
1761315837545483500,6.3644833984375,-0.9857940673828125,-0.0019989013671875,-0.014801025390625
1761315837555530500,6.374530517578125,-0.985076904296875,-0.00201416015625,-0.01629638671875
1761315837565577500,6.384577392578125,-0.9856109619140625,-0.0022735595703125,-0.0178680419921875
1761315837575624400,6.39462451171875,-0.985626220703125,-0.0018768310546875,-0.01641845703125
1761315837585671400,6.40467138671875,-0.9863433837890625,-0.0009613037109375,-0.0156707763671875
1761315837595718700,6.41471875,-0.9857330322265625,-0.0022125244140625,-0.0152740478515625
1761315837605765600,6.424765625,-0.98602294921875,-0.0042266845703125,-0.0166778564453125
1761315837615812600,6.4348125,-0.9868621826171875,-0.0037078857421875,-0.01702880859375
1761315837625859600,6.444859619140625,-0.98577880859375,-0.0017242431640625,-0.015869140625
1761315837635906600,6.454906494140625,-0.986419677734375,-0.00140380859375,-0.015899658203125
1761315837645953500,6.46495361328125,-0.9866485595703125,-0.0015106201171875,-0.0167083740234375
1761315837656001500,6.47500146484375,-0.9867401123046875,-0.0023040771484375,-0.0159759521484375
1761315837666048500,6.485048583984375,-0.986297607421875,-0.00274658203125,-0.015472412109375
1761315837676095500,6.495095458984375,-0.9855194091796875,-0.0024261474609375,-0.0157470703125
1761315837686142500,6.505142578125,-0.98602294921875,-0.002044677734375,-0.0160980224609375
1761315837696189700,6.515189697265625,-0.986419677734375,-0.0026397705078125,-0.016448974609375
1761315837706236700,6.525236572265625,-0.98541259765625,-0.002593994140625,-0.0177001953125
1761315837716283600,6.53528369140625,-0.9865570068359375,-0.00286865234375,-0.0167236328125
1761315837726330600,6.54533056640625,-0.986236572265625,-0.001953125,-0.0155487060546875
1761315837736377600,6.555377685546875,-0.98675537109375,-0.001678466796875,-0.0142822265625
1761315837746424300,6.56542431640625,-0.9871673583984375,-0.0027008056640625,-0.0148773193359375
1761315837756471600,6.575471435546875,-0.985870361328125,-0.0025482177734375,-0.016448974609375
1761315837766518500,6.5855185546875,-0.9857025146484375,-0.0022735595703125,-0.0167999267578125
1761315837776565500,6.5955654296875,-0.9863433837890625,-0.001007080078125,-0.0164031982421875
1761315837786612500,6.605612548828125,-0.984893798828125,-0.002166748046875,-0.0159454345703125
1761315837796659500,6.615659423828125,-0.9853363037109375,-0.0029144287109375,-0.0158538818359375
1761315837806706400,6.62570654296875,-0.9863433837890625,-0.003326416015625,-0.0159759521484375
1761315837816753700,6.635753662109375,-0.9866943359375,-0.00250244140625,-0.0148468017578125
1761315837826800600,6.645800537109375,-0.9867706298828125,-0.0009613037109375,-0.0152587890625
1761315837836847600,6.65584765625,-0.9855499267578125,-0.00140380859375,-0.0160675048828125
1761315837846894600,6.66589453125,-0.9862060546875,-0.0022430419921875,-0.017578125
1761315837856941600,6.675941650390625,-0.9862060546875,-0.002838134765625,-0.01702880859375
1761315837866988500,6.685988525390625,-0.98583984375,-0.0023956298828125,-0.01568603515625
1761315837877036500,6.69603662109375,-0.98651123046875,-0.0032806396484375,-0.0159912109375
1761315837887083500,6.70608349609375,-0.98529052734375,-0.0029296875,-0.0146484375
1761315837897130500,6.716130615234375,-0.9847564697265625,-0.0022125244140625,-0.01507568359375
1761315837907178200,6.72617822265625,-0.9860076904296875,-0.000946044921875,-0.0164031982421875
1761315837917225500,6.7362255859375,-0.9857635498046875,-0.0016632080078125,-0.0156097412109375
1761315837927272200,6.746272216796875,-0.985748291015625,-0.001953125,-0.016815185546875
1761315837937319200,6.756319091796875,-0.9856719970703125,-0.0030059814453125,-0.0168609619140625
1761315837947366100,6.7663662109375,-0.986175537109375,-0.0030517578125,-0.0150604248046875
1761315837957413000,6.7764130859375,-0.98626708984375,-0.002410888671875,-0.015838623046875
1761315837967460400,6.78646044921875,-0.9853668212890625,-0.0021209716796875,-0.016082763671875
1761315837977507300,6.79650732421875,-0.986602783203125,-0.0015411376953125,-0.016143798828125
1761315837987554300,6.80655419921875,-0.985626220703125,-0.00189208984375,-0.0164337158203125
1761315837997601300,6.816601318359375,-0.9853057861328125,-0.0022430419921875,-0.0167236328125
1761315838007648300,6.826648193359375,-0.9858551025390625,-0.002349853515625,-0.01568603515625
1761315838017695200,6.8366953125,-0.9868011474609375,-0.00225830078125,-0.0161895751953125
1761315838027742500,6.846742431640625,-0.9860382080078125,-0.0022430419921875,-0.016448974609375
1761315838037789400,6.85678955078125,-0.9856414794921875,-0.0019378662109375,-0.0167236328125
1761315838047836400,6.86683642578125,-0.9864654541015625,-0.00128173828125,-0.015625
1761315838057883100,6.876883056640625,-0.9859466552734375,-0.0018310546875,-0.0157623291015625
1761315838067930000,6.88693017578125,-0.9852142333984375,-0.00262451171875,-0.0155487060546875
1761315838077977000,6.89697705078125,-0.9854888916015625,-0.0038299560546875,-0.0152435302734375
1761315838088024300,6.9070244140625,-0.9861907958984375,-0.0029449462890625,-0.0155487060546875
1761315838098071300,6.9170712890625,-0.9859466552734375,-0.0023345947265625,-0.0158843994140625
1761315838108118300,6.9271181640625,-0.986663818359375,-0.001983642578125,-0.0160675048828125
1761315838118165200,6.937165283203125,-0.985321044921875,-0.001861572265625,-0.0169219970703125
1761315838128213200,6.947213134765625,-0.9862060546875,-0.002532958984375,-0.0159454345703125
1761315838138260500,6.957260498046875,-0.9866943359375,-0.0025482177734375,-0.0157928466796875
1761315838148307200,6.96730712890625,-0.9855499267578125,-0.0031890869140625,-0.0154266357421875
1761315838158354200,6.977354248046875,-0.9866485595703125,-0.00299072265625,-0.0157012939453125
1761315838168401200,6.987401123046875,-0.9867706298828125,-0.0021820068359375,-0.01611328125
1761315838178448100,6.9974482421875,-0.985931396484375,-0.002410888671875,-0.015899658203125
1761315838188495000,7.0074951171875,-0.98651123046875,-0.0023956298828125,-0.01629638671875
1761315838198542300,7.017542236328125,-0.98638916015625,-0.00238037109375,-0.0165863037109375
1761315838208589300,7.02758935546875,-0.9861602783203125,-0.0034027099609375,-0.015655517578125
1761315838218636300,7.03763623046875,-0.9862213134765625,-0.0019683837890625,-0.01513671875
1761315838228683300,7.047683349609375,-0.98602294921875,-0.001678466796875,-0.0162811279296875
1761315838238730200,7.057730224609375,-0.98583984375,-0.0017852783203125,-0.016021728515625
1761315838248777500,7.067777587890625,-0.9862213134765625,-0.0015411376953125,-0.015625
1761315838258824400,7.077824462890625,-0.98614501953125,-0.0020904541015625,-0.0160675048828125
1761315838268871400,7.087871337890625,-0.9856109619140625,-0.0024566650390625,-0.01556396484375
1761315838278918100,7.097918212890625,-0.9855194091796875,-0.0020751953125,-0.0164947509765625
1761315838288965000,7.107965087890625,-0.986968994140625,-0.002471923828125,-0.016021728515625
1761315838299012000,7.11801220703125,-0.987030029296875,-0.003082275390625,-0.016021728515625
1761315838309059300,7.128059326171875,-0.9850616455078125,-0.002899169921875,-0.0157470703125
1761315838319106300,7.138106201171875,-0.9859619140625,-0.0020751953125,-0.0162353515625
1761315838329153300,7.1481533203125,-0.9863739013671875,-0.00225830078125,-0.0158843994140625
1761315838339200300,7.1582001953125,-0.9857940673828125,-0.002044677734375,-0.0163726806640625
1761315838349247200,7.168247314453125,-0.987457275390625,-0.0028076171875,-0.015655517578125
1761315838359294200,7.178294189453125,-0.98651123046875,-0.00274658203125,-0.015472412109375
1761315838369342200,7.18834228515625,-0.985504150390625,-0.002471923828125,-0.0163726806640625
1761315838379389200,7.19838916015625,-0.9858551025390625,-0.001678466796875,-0.0160064697265625
1761315838389436200,7.208436279296875,-0.985748291015625,-0.00079345703125,-0.0158233642578125
1761315838399483100,7.218483154296875,-0.9863739013671875,-0.0014801025390625,-0.016387939453125
1761315838409530000,7.228530029296875,-0.98602294921875,-0.0030364990234375,-0.0170135498046875
1761315838419577300,7.238577392578125,-0.9863128662109375,-0.00274658203125,-0.016357421875
1761315838429624300,7.248624267578125,-0.986663818359375,-0.00250244140625,-0.0152435302734375
1761315838439671300,7.25867138671875,-0.9864959716796875,-0.0027923583984375,-0.015472412109375
1761315838449718300,7.26871826171875,-0.985809326171875,-0.0020599365234375,-0.016448974609375
1761315838459765200,7.27876513671875,-0.9860687255859375,-0.002349853515625,-0.016326904296875
1761315838469812500,7.2888125,-0.98651123046875,-0.001953125,-0.0154876708984375
1761315838479859500,7.298859375,-0.986083984375,-0.001800537109375,-0.015838623046875
1761315838489906400,7.308906494140625,-0.986785888671875,-0.002777099609375,-0.015594482421875
1761315838499953200,7.318953125,-0.986358642578125,-0.003143310546875,-0.01556396484375
1761315838510000000,7.329000244140625,-0.9863739013671875,-0.002410888671875,-0.0162506103515625
1761315838520047000,7.339047119140625,-0.986572265625,-0.00225830078125,-0.016204833984375
1761315838530094300,7.34909423828125,-0.9859161376953125,-0.001922607421875,-0.0168914794921875
1761315838540141300,7.359141357421875,-0.987152099609375,-0.001800537109375,-0.0166168212890625
1761315838550188300,7.369188232421875,-0.9871826171875,-0.001708984375,-0.015777587890625
1761315838560235300,7.3792353515625,-0.9863433837890625,-0.00177001953125,-0.015106201171875
1761315838570282200,7.3892822265625,-0.9859619140625,-0.0025177001953125,-0.01531982421875
1761315838580329200,7.3993291015625,-0.9868011474609375,-0.0029296875,-0.016876220703125
1761315838590376400,7.40937646484375,-0.9860687255859375,-0.0028076171875,-0.015167236328125
1761315838600423400,7.41942333984375,-0.985687255859375,-0.0032196044921875,-0.015594482421875
1761315838610470400,7.429470458984375,-0.986907958984375,-0.00299072265625,-0.0156707763671875
1761315838620517400,7.439517333984375,-0.986175537109375,-0.0025634765625,-0.0154876708984375
1761315838630564000,7.449564208984375,-0.98565673828125,-0.0027313232421875,-0.015899658203125
1761315838640612400,7.4596123046875,-0.9869537353515625,-0.0023956298828125,-0.015899658203125
1761315838650659300,7.469659423828125,-0.98583984375,-0.0022430419921875,-0.016387939453125
1761315838660706300,7.479706298828125,-0.98626708984375,-0.0025482177734375,-0.0158843994140625
1761315838670753300,7.489753173828125,-0.9862518310546875,-0.002288818359375,-0.0155487060546875
1761315838680800300,7.49980029296875,-0.9863739013671875,-0.00250244140625,-0.01629638671875
1761315838690847200,7.50984716796875,-0.9862060546875,-0.0030517578125,-0.0167388916015625
1761315838700894500,7.51989453125,-0.9854736328125,-0.001983642578125,-0.0166168212890625
1761315838710941400,7.52994140625,-0.9857635498046875,-0.00152587890625,-0.0150604248046875
1761315838720988200,7.53998828125,-0.9859466552734375,-0.0023040771484375,-0.0155487060546875
1761315838731035100,7.55003515625,-0.9859466552734375,-0.0019683837890625,-0.0159454345703125
1761315838741082000,7.56008203125,-0.985015869140625,-0.0026092529296875,-0.0162353515625
1761315838751129300,7.57012939453125,-0.9850006103515625,-0.0023193359375,-0.01641845703125
1761315838761176300,7.58017626953125,-0.9853057861328125,-0.002471923828125,-0.015716552734375
1761315838771223300,7.590223388671875,-0.9860382080078125,-0.00274658203125,-0.0158843994140625
1761315838781270300,7.600270263671875,-0.986358642578125,-0.0022735595703125,-0.01654052734375
1761315838791317200,7.610317138671875,-0.986114501953125,-0.00286865234375,-0.0160980224609375
1761315838801364200,7.6203642578125,-0.985626220703125,-0.0028839111328125,-0.015899658203125
1761315838811411500,7.630411376953125,-0.9864959716796875,-0.00238037109375,-0.015594482421875
1761315838821458400,7.64045849609375,-0.9856109619140625,-0.0028076171875,-0.0159149169921875
1761315838831505400,7.65050537109375,-0.98565673828125,-0.00274658203125,-0.0159454345703125
1761315838841552400,7.660552490234375,-0.9861297607421875,-0.0022430419921875,-0.0161895751953125
1761315838851599000,7.67059912109375,-0.9860076904296875,-0.002471923828125,-0.016143798828125
1761315838861646000,7.68064599609375,-0.9861602783203125,-0.00262451171875,-0.017303466796875
1761315838871693300,7.690693359375,-0.9867095947265625,-0.00140380859375,-0.0167999267578125
1761315838881740300,7.700740234375,-0.985382080078125,-0.0029144287109375,-0.015960693359375
1761315838891787300,7.710787353515625,-0.985931396484375,-0.0030975341796875,-0.0163726806640625
1761315838901834200,7.720834228515625,-0.9872894287109375,-0.002105712890625,-0.0157012939453125
1761315838911884300,7.73088427734375,-0.9870452880859375,-0.00225830078125,-0.0158538818359375
1761315838921932500,7.7409326171875,-0.986572265625,-0.0025482177734375,-0.01580810546875
1761315838931979500,7.7509794921875,-0.9860382080078125,-0.0023651123046875,-0.0161895751953125
1761315838942026500,7.761026611328125,-0.98681640625,-0.0023956298828125,-0.01666259765625
1761315838952073200,7.7710732421875,-0.9858856201171875,-0.00274658203125,-0.0160980224609375
1761315838962120200,7.7811201171875,-0.986236572265625,-0.002349853515625,-0.0153656005859375
1761315838972167400,7.79116748046875,-0.9866943359375,-0.0016937255859375,-0.0155029296875
1761315838982214400,7.80121435546875,-0.9858856201171875,-0.00201416015625,-0.0161285400390625
1761315838992261400,7.811261474609375,-0.9859619140625,-0.0023193359375,-0.01605224609375
1761315839002308400,7.821308349609375,-0.98565673828125,-0.002166748046875,-0.016571044921875
1761315839012355300,7.831355224609375,-0.9858856201171875,-0.0019683837890625,-0.0166778564453125
1761315839022402300,7.84140234375,-0.9862213134765625,-0.002197265625,-0.01593017578125
1761315839032449500,7.851449462890625,-0.98736572265625,-0.001861572265625,-0.0152587890625
1761315839042496500,7.86149658203125,-0.985260009765625,-0.002166748046875,-0.0163726806640625
1761315839052543500,7.87154345703125,-0.9855194091796875,-0.0026397705078125,-0.016021728515625
1761315839062590500,7.881590576171875,-0.986358642578125,-0.0027313232421875,-0.0157470703125
1761315839072637400,7.891637451171875,-0.9864349365234375,-0.0020599365234375,-0.015289306640625
1761315839082684400,7.901684326171875,-0.9866790771484375,-0.0018463134765625,-0.015594482421875
1761315839092731400,7.9117314453125,-0.9864654541015625,-0.00238037109375,-0.0149993896484375
1761315839102778400,7.9217783203125,-0.9844818115234375,-0.0024871826171875,-0.0157470703125
1761315839112825300,7.931825439453125,-0.9856414794921875,-0.0018463134765625,-0.0155487060546875
1761315839122872300,7.941872314453125,-0.98602294921875,-0.0022125244140625,-0.0151824951171875
1761315839132919300,7.951919189453125,-0.9871826171875,-0.0020294189453125,-0.015655517578125
1761315839142966500,7.961966552734375,-0.9856719970703125,-0.003082275390625,-0.0157928466796875
1761315839153013500,7.972013427734375,-0.987030029296875,-0.002227783203125,-0.0164337158203125
1761315839163060500,7.982060546875,-0.9868011474609375,-0.0023040771484375,-0.0164031982421875
1761315839173107500,7.992107421875,-0.9857177734375,-0.0025482177734375,-0.0159759521484375
1761315839183154400,8.002154541015624,-0.985748291015625,-0.0018310546875,-0.015655517578125
1761315839193201400,8.012201416015625,-0.985015869140625,-0.0023040771484375,-0.0155487060546875
1761315839203248400,8.022248291015625,-0.986358642578125,-0.0021820068359375,-0.0159912109375
1761315839213295400,8.03229541015625,-0.987060546875,-0.002410888671875,-0.0153045654296875
1761315839223342300,8.04234228515625,-0.98590087890625,-0.0024566650390625,-0.01556396484375
1761315839233389300,8.052389404296875,-0.9850616455078125,-0.002227783203125,-0.0158843994140625
1761315839243437300,8.062437255859376,-0.9864501953125,-0.00274658203125,-0.014739990234375
1761315839253484500,8.072484619140624,-0.985809326171875,-0.002716064453125,-0.0153350830078125
1761315839263531500,8.082531494140625,-0.9864044189453125,-0.0020904541015625,-0.016510009765625
1761315839273578500,8.09257861328125,-0.986083984375,-0.0025634765625,-0.0153350830078125
1761315839283625500,8.10262548828125,-0.9868316650390625,-0.0023193359375,-0.0159912109375
1761315839293672400,8.11267236328125,-0.985626220703125,-0.0025482177734375,-0.01641845703125
1761315839303719400,8.122719482421875,-0.985260009765625,-0.0024566650390625,-0.0173492431640625
1761315839313766400,8.132766357421875,-0.9858551025390625,-0.0018310546875,-0.01519775390625
1761315839323813400,8.1428134765625,-0.9857025146484375,-0.00238037109375,-0.016387939453125
1761315839333860400,8.1528603515625,-0.98590087890625,-0.002166748046875,-0.0156097412109375
1761315839343907300,8.1629072265625,-0.9857330322265625,-0.00201416015625,-0.0154876708984375
1761315839353954300,8.172954345703126,-0.9853515625,-0.00250244140625,-0.0154571533203125
1761315839364001500,8.18300146484375,-0.985443115234375,-0.002197265625,-0.0160675048828125
1761315839374048500,8.193048583984375,-0.9854888916015625,-0.0022430419921875,-0.015716552734375
1761315839384095500,8.203095458984375,-0.9865264892578125,-0.0029144287109375,-0.0153350830078125
1761315839394142500,8.213142578125,-0.9860076904296875,-0.002899169921875,-0.0163116455078125
1761315839404189400,8.223189453125,-0.9861602783203125,-0.0031585693359375,-0.016082763671875
1761315839414236400,8.233236328125,-0.986785888671875,-0.0021514892578125,-0.0157470703125
1761315839424283400,8.243283447265625,-0.98638916015625,-0.0027008056640625,-0.016357421875
1761315839434330400,8.253330322265626,-0.986785888671875,-0.0023193359375,-0.016357421875
1761315839444377300,8.26337744140625,-0.986053466796875,-0.0032196044921875,-0.015838623046875
1761315839454424300,8.27342431640625,-0.986083984375,-0.002655029296875,-0.0166473388671875
1761315839464471300,8.28347119140625,-0.9855499267578125,-0.00225830078125,-0.0154266357421875
1761315839474518300,8.293518310546874,-0.986358642578125,-0.0020599365234375,-0.0156707763671875
1761315839484565500,8.3035654296875,-0.9849700927734375,-0.0026702880859375,-0.016204833984375
1761315839494612500,8.313612548828125,-0.9864501953125,-0.0025177001953125,-0.0167999267578125
1761315839504659500,8.323659423828126,-0.986328125,-0.002471923828125,-0.016571044921875
1761315839514706400,8.33370654296875,-0.986328125,-0.002288818359375,-0.01531982421875
1761315839524753400,8.34375341796875,-0.986724853515625,-0.0023193359375,-0.0154876708984375
1761315839534800400,8.35380029296875,-0.98583984375,-0.002166748046875,-0.0160369873046875
1761315839544847600,8.36384765625,-0.986297607421875,-0.0026397705078125,-0.0157318115234375
1761315839554894300,8.373894287109374,-0.9869232177734375,-0.0022735595703125,-0.0150909423828125
1761315839564941300,8.38394140625,-0.9854888916015625,-0.00244140625,-0.016021728515625
1761315839574988300,8.39398828125,-0.9861602783203125,-0.0020904541015625,-0.015411376953125
1761315839585035300,8.40403515625,-0.9859619140625,-0.0027923583984375,-0.0157012939453125
1761315839595083500,8.41408349609375,-0.986236572265625,-0.002593994140625,-0.0163116455078125
1761315839605130500,8.424130615234375,-0.9864349365234375,-0.00286865234375,-0.0157623291015625
1761315839615177500,8.434177490234376,-0.985626220703125,-0.0022430419921875,-0.0160369873046875
1761315839625224400,8.444224365234374,-0.986175537109375,-0.0028228759765625,-0.015960693359375
1761315839635271400,8.454271484375,-0.986083984375,-0.0024871826171875,-0.015167236328125
1761315839645318400,8.464318359375,-0.9862060546875,-0.0030059814453125,-0.016143798828125
1761315839655365400,8.474365478515624,-0.986907958984375,-0.0028533935546875,-0.0156402587890625
1761315839665412400,8.484412353515625,-0.9874267578125,-0.0027923583984375,-0.0164794921875
1761315839675459300,8.494459228515625,-0.9870452880859375,-0.0018463134765625,-0.01513671875
1761315839685506300,8.50450634765625,-0.9862823486328125,-0.0020599365234375,-0.0161285400390625
1761315839695553300,8.51455322265625,-0.9861297607421875,-0.0022125244140625,-0.015167236328125
1761315839705600500,8.5246005859375,-0.986236572265625,-0.0018768310546875,-0.0160369873046875
1761315839715647500,8.5346474609375,-0.9854583740234375,-0.0018157958984375,-0.0157012939453125
1761315839725694500,8.544694580078126,-0.98565673828125,-0.002044677734375,-0.0160369873046875
1761315839735741400,8.554741455078124,-0.9852752685546875,-0.002960205078125,-0.015869140625
1761315839745788400,8.564788330078125,-0.98651123046875,-0.0023651123046875,-0.0164947509765625
1761315839755835400,8.57483544921875,-0.986297607421875,-0.0023345947265625,-0.016632080078125
1761315839765882400,8.58488232421875,-0.9873199462890625,-0.00238037109375,-0.01690673828125
1761315839775929300,8.594929443359375,-0.98681640625,-0.0021514892578125,-0.0159759521484375
1761315839785976300,8.604976318359375,-0.9865570068359375,-0.00189208984375,-0.015350341796875
1761315839796023300,8.615023193359375,-0.986297607421875,-0.0023651123046875,-0.0160064697265625
1761315839806070300,8.6250703125,-0.98590087890625,-0.0027313232421875,-0.014862060546875
1761315839816117200,8.6351171875,-0.98541259765625,-0.002838134765625,-0.0162506103515625
1761315839826164500,8.64516455078125,-0.985137939453125,-0.0026702880859375,-0.016265869140625
1761315839836211500,8.65521142578125,-0.9856109619140625,-0.0026702880859375,-0.016265869140625
1761315839846258400,8.665258544921874,-0.986968994140625,-0.0025482177734375,-0.0164642333984375
1761315839856305400,8.675305419921875,-0.9866790771484375,-0.00262451171875,-0.016510009765625
1761315839866352400,8.685352294921875,-0.98638916015625,-0.0017547607421875,-0.0155487060546875
1761315839876399600,8.695399658203126,-0.98687744140625,-0.0024566650390625,-0.0152130126953125
1761315839886446600,8.705446533203125,-0.9862213134765625,-0.002899169921875,-0.01580810546875
1761315839896493300,8.715493408203125,-0.9859771728515625,-0.0020904541015625,-0.01580810546875
1761315839906536700,8.72553662109375,-0.9857940673828125,-0.00238037109375,-0.0158843994140625
1761315839916583400,8.73558349609375,-0.98583984375,-0.0020751953125,-0.015960693359375
1761315839926630700,8.745630615234376,-0.9856414794921875,-0.002288818359375,-0.0164337158203125
1761315839936677600,8.755677734375,-0.9866943359375,-0.0024871826171875,-0.01666259765625
1761315839946724600,8.765724609375,-0.9863128662109375,-0.0025634765625,-0.01690673828125
1761315839956771600,8.775771484375,-0.9857635498046875,-0.001922607421875,-0.0160064697265625
1761315839966818600,8.785818603515626,-0.9862213134765625,-0.002410888671875,-0.0155181884765625
1761315839976865800,8.79586572265625,-0.985687255859375,-0.0029296875,-0.01611328125
1761315839986912800,8.805912841796875,-0.9859161376953125,-0.002471923828125,-0.01593017578125
1761315839996959700,8.815959716796876,-0.986572265625,-0.001953125,-0.0165557861328125
1761315840007006700,8.8260068359375,-0.985504150390625,-0.001556396484375,-0.01617431640625
1761315840017054500,8.836054443359375,-0.9860076904296875,-0.0017242431640625,-0.0163421630859375
1761315840027101700,8.846101806640625,-0.9858245849609375,-0.002166748046875,-0.015899658203125
1761315840037148700,8.856148681640626,-0.985626220703125,-0.003082275390625,-0.01593017578125
1761315840047195600,8.866195556640625,-0.986053466796875,-0.002410888671875,-0.0152587890625
1761315840057242600,8.87624267578125,-0.9863128662109375,-0.0024261474609375,-0.0157928466796875
1761315840067289600,8.88628955078125,-0.9854583740234375,-0.002105712890625,-0.015716552734375
1761315840077336600,8.896336669921874,-0.9865264892578125,-0.00262451171875,-0.0163421630859375
1761315840087383800,8.9063837890625,-0.9868927001953125,-0.002777099609375,-0.0166778564453125
1761315840097430800,8.9164306640625,-0.9866485595703125,-0.0021514892578125,-0.01556396484375
1761315840107477800,8.926477783203126,-0.98602294921875,-0.0027008056640625,-0.0154266357421875
1761315840117524700,8.936524658203124,-0.9860076904296875,-0.002471923828125,-0.016510009765625
1761315840127571500,8.946571533203125,-0.986114501953125,-0.0019683837890625,-0.015167236328125
1761315840137618400,8.956618408203125,-0.9849395751953125,-0.00213623046875,-0.015350341796875
1761315840147665700,8.966665771484376,-0.985870361328125,-0.002044677734375,-0.015838623046875
1761315840157710600,8.976710693359376,-0.9870452880859375,-0.00213623046875,-0.0159759521484375
1761315840167757800,8.9867578125,-0.986480712890625,-0.00250244140625,-0.016357421875
1761315840177804800,8.9968046875,-0.9856719970703125,-0.0017242431640625,-0.0159759521484375
1761315840187851800,9.006851806640626,-0.9865875244140625,-0.001953125,-0.0156097412109375
1761315840197898800,9.016898681640624,-0.985687255859375,-0.0023040771484375,-0.015777587890625
1761315840207945500,9.026945556640625,-0.986114501953125,-0.002227783203125,-0.015106201171875
1761315840217992400,9.036992431640625,-0.9858856201171875,-0.0024566650390625,-0.0166168212890625
1761315840228039700,9.047039794921876,-0.9863739013671875,-0.0025634765625,-0.015716552734375
1761315840238086700,9.057086669921874,-0.985443115234375,-0.002288818359375,-0.015472412109375
1761315840248133600,9.067133544921875,-0.98602294921875,-0.002655029296875,-0.017120361328125
1761315840258180600,9.0771806640625,-0.9863128662109375,-0.0026092529296875,-0.0168609619140625
1761315840268227600,9.0872275390625,-0.9858551025390625,-0.0023651123046875,-0.015106201171875
1761315840278274600,9.097274658203125,-0.9857940673828125,-0.0020904541015625,-0.015380859375
1761315840288321800,9.10732177734375,-0.986358642578125,-0.0018768310546875,-0.0166778564453125
1761315840298368800,9.11736865234375,-0.9864349365234375,-0.002655029296875,-0.0164031982421875
1761315840308415700,9.127415771484374,-0.986968994140625,-0.00213623046875,-0.0154876708984375
1761315840318462700,9.137462646484375,-0.985870361328125,-0.00189208984375,-0.0160064697265625
1761315840328509700,9.147509765625,-0.9871673583984375,-0.0028228759765625,-0.0164642333984375
1761315840338556700,9.157556640625,-0.9857177734375,-0.0024566650390625,-0.0161590576171875
1761315840348604700,9.167604736328125,-0.9854278564453125,-0.0023651123046875,-0.01654052734375
1761315840358650600,9.177650634765625,-0.98699951171875,-0.0023956298828125,-0.0154571533203125
1761315840368698600,9.18769873046875,-0.986114501953125,-0.0025482177734375,-0.0159912109375
1761315840378745600,9.19774560546875,-0.985931396484375,-0.002410888671875,-0.0160980224609375
1761315840388792800,9.207792724609375,-0.9859161376953125,-0.0026702880859375,-0.0154876708984375
1761315840398839800,9.21783984375,-0.9863433837890625,-0.0024566650390625,-0.01611328125
1761315840408886800,9.22788671875,-0.9864654541015625,-0.002899169921875,-0.0155487060546875
1761315840418933500,9.23793359375,-0.9858856201171875,-0.002349853515625,-0.0152435302734375
1761315840428980500,9.24798046875,-0.987274169921875,-0.00225830078125,-0.0159759521484375
1761315840439027500,9.25802734375,-0.986358642578125,-0.0019683837890625,-0.01519775390625
1761315840449074700,9.26807470703125,-0.9862823486328125,-0.00177001953125,-0.0160675048828125
1761315840459121700,9.27812158203125,-0.9856414794921875,-0.00213623046875,-0.016357421875
1761315840469168600,9.288168701171875,-0.986358642578125,-0.001953125,-0.016387939453125
1761315840479215600,9.298215576171875,-0.986541748046875,-0.0018310546875,-0.016143798828125
1761315840489262600,9.3082626953125,-0.98663330078125,-0.0021209716796875,-0.0152435302734375
1761315840499309600,9.3183095703125,-0.9866790771484375,-0.00189208984375,-0.0162200927734375
1761315840509356800,9.328356689453125,-0.9862213134765625,-0.0029754638671875,-0.01611328125
1761315840519403800,9.33840380859375,-0.98583984375,-0.0027618408203125,-0.0166015625
1761315840529450800,9.34845068359375,-0.98712158203125,-0.0014190673828125,-0.01568603515625
1761315840539497700,9.358497802734375,-0.9861907958984375,-0.0020751953125,-0.015594482421875
1761315840549544400,9.36854443359375,-0.986175537109375,-0.0029449462890625,-0.015960693359375
1761315840559591700,9.378591796875,-0.98602294921875,-0.002716064453125,-0.01593017578125
1761315840569638700,9.388638671875,-0.9862823486328125,-0.001983642578125,-0.015716552734375
1761315840579685600,9.398685546875,-0.9858856201171875,-0.002655029296875,-0.014801025390625
1761315840589732600,9.408732666015625,-0.98724365234375,-0.0019683837890625,-0.015380859375
1761315840599779600,9.418779541015626,-0.98602294921875,-0.0030670166015625,-0.0149688720703125
1761315840609826600,9.42882666015625,-0.9864654541015625,-0.001708984375,-0.01519775390625
1761315840619873800,9.438873779296875,-0.9859466552734375,-0.0030517578125,-0.0152435302734375
1761315840629920800,9.448920654296876,-0.986328125,-0.001800537109375,-0.016204833984375
1761315840639967700,9.4589677734375,-0.9866790771484375,-0.001708984375,-0.0164031982421875
1761315840650014700,9.4690146484375,-0.986358642578125,-0.0019378662109375,-0.0156402587890625
1761315840660061700,9.479061767578125,-0.9857635498046875,-0.00213623046875,-0.0162353515625
1761315840670108700,9.489108642578126,-0.9854583740234375,-0.0023651123046875,-0.0165557861328125
1761315840680155600,9.49915576171875,-0.9863128662109375,-0.0029449462890625,-0.0157623291015625
1761315840690202600,9.50920263671875,-0.98626708984375,-0.0030975341796875,-0.0157318115234375
1761315840700249600,9.51924951171875,-0.986358642578125,-0.0027008056640625,-0.0158233642578125
1761315840710296600,9.529296630859376,-0.986236572265625,-0.0020599365234375,-0.016082763671875
1761315840720343600,9.539343505859375,-0.985992431640625,-0.0020294189453125,-0.0152130126953125
1761315840730390500,9.549390625,-0.986419677734375,-0.002105712890625,-0.0164031982421875
1761315840740437800,9.559437744140626,-0.9864959716796875,-0.0018768310546875,-0.015228271484375
1761315840750484700,9.569484619140624,-0.9858856201171875,-0.0027008056640625,-0.015625
1761315840760533500,9.579533447265625,-0.9860076904296875,-0.002197265625,-0.0164947509765625
1761315840770580700,9.589580810546876,-0.9861602783203125,-0.00244140625,-0.01544189453125
1761315840780627700,9.599627685546874,-0.985626220703125,-0.002227783203125,-0.0159759521484375
1761315840790674700,9.6096748046875,-0.986175537109375,-0.001739501953125,-0.01544189453125
1761315840800721700,9.6197216796875,-0.9858856201171875,-0.0014495849609375,-0.0167694091796875
1761315840810768600,9.6297685546875,-0.9857635498046875,-0.0018768310546875,-0.0160675048828125
1761315840820815600,9.639815673828124,-0.985565185546875,-0.0022125244140625,-0.0152130126953125
1761315840830862800,9.64986279296875,-0.985321044921875,-0.0020751953125,-0.0148162841796875
1761315840840909800,9.659909912109375,-0.9846649169921875,-0.0020751953125,-0.016357421875
1761315840850956800,9.669956787109374,-0.985931396484375,-0.002197265625,-0.015899658203125
1761315840861003500,9.68000341796875,-0.986419677734375,-0.002166748046875,-0.01708984375
1761315840871050500,9.690050537109375,-0.98712158203125,-0.00250244140625,-0.015777587890625
1761315840881097500,9.700097412109375,-0.9864959716796875,-0.002655029296875,-0.0149688720703125
1761315840891144700,9.710144775390624,-0.986053466796875,-0.002044677734375,-0.015289306640625
1761315840901191700,9.720191650390625,-0.9860076904296875,-0.001861572265625,-0.0157012939453125
1761315840911242500,9.730242431640624,-0.98675537109375,-0.0021820068359375,-0.0161895751953125
1761315840921289500,9.74028955078125,-0.986419677734375,-0.0023040771484375,-0.015869140625
1761315840931336400,9.75033642578125,-0.9862213134765625,-0.0025634765625,-0.016082763671875
1761315840941383400,9.760383544921876,-0.9861297607421875,-0.0023956298828125,-0.01568603515625
1761315840951430700,9.7704306640625,-0.98602294921875,-0.0021514892578125,-0.0160064697265625
1761315840961477600,9.7804775390625,-0.986572265625,-0.002593994140625,-0.01568603515625
1761315840971524400,9.7905244140625,-0.9862823486328125,-0.0027008056640625,-0.0156097412109375
1761315840981571300,9.8005712890625,-0.986236572265625,-0.0022430419921875,-0.0153350830078125
1761315840991618300,9.810618408203124,-0.98516845703125,-0.0016326904296875,-0.0155487060546875
1761315841001665300,9.820665283203125,-0.9858551025390625,-0.0015716552734375,-0.016082763671875
1761315841011712500,9.83071240234375,-0.98638916015625,-0.001983642578125,-0.015716552734375
1761315841021759500,9.840759521484374,-0.98565673828125,-0.0025177001953125,-0.0159759521484375
1761315841031806500,9.850806396484375,-0.9866943359375,-0.0020904541015625,-0.015045166015625
1761315841041853400,9.860853515625,-0.9856109619140625,-0.002288818359375,-0.0166015625
1761315841051900400,9.870900390625,-0.9857330322265625,-0.001922607421875,-0.014862060546875
1761315841061947400,9.880947509765624,-0.986541748046875,-0.0024566650390625,-0.01641845703125
1761315841071994600,9.89099462890625,-0.986083984375,-0.0024261474609375,-0.0158233642578125
1761315841082041600,9.90104150390625,-0.9861907958984375,-0.0023651123046875,-0.015472412109375
1761315841092088600,9.911088623046876,-0.98748779296875,-0.002838134765625,-0.015655517578125
1761315841102135300,9.92113525390625,-0.985443115234375,-0.002044677734375,-0.016693115234375
1761315841112182300,9.931182373046875,-0.9859619140625,-0.0016021728515625,-0.0159912109375
1761315841122229200,9.941229248046875,-0.98675537109375,-0.001983642578125,-0.016754150390625
1761315841132276500,9.9512763671875,-0.98529052734375,-0.0025634765625,-0.0159759521484375
1761315841142324500,9.961324462890625,-0.98590087890625,-0.0027618408203125,-0.016387939453125
1761315841152371500,9.971371337890625,-0.9865875244140625,-0.001861572265625,-0.0158233642578125
1761315841162418400,9.98141845703125,-0.9866943359375,-0.0025634765625,-0.0153045654296875
1761315841172465400,9.99146533203125,-0.9867706298828125,-0.0021820068359375,-0.015380859375
1761315841182512600,10.0015126953125,-0.985443115234375,-0.0023040771484375,-0.016143798828125
1761315841192559400,10.011559326171875,-0.9860382080078125,-0.003021240234375,-0.017547607421875
1761315841202606300,10.0216064453125,-0.986053466796875,-0.0017242431640625,-0.0158233642578125
1761315841212653300,10.0316533203125,-0.9864959716796875,-0.0025482177734375,-0.015167236328125
1761315841222700300,10.0417001953125,-0.9863433837890625,-0.0018157958984375,-0.015045166015625
1761315841232747500,10.05174755859375,-0.986053466796875,-0.0023651123046875,-0.015594482421875
1761315841242794500,10.06179443359375,-0.986297607421875,-0.002899169921875,-0.015899658203125
1761315841252841500,10.071841552734375,-0.986236572265625,-0.0020294189453125,-0.0155792236328125
1761315841262888400,10.081888427734375,-0.9859771728515625,-0.0019683837890625,-0.015594482421875
1761315841272935400,10.091935302734376,-0.9858856201171875,-0.0019683837890625,-0.0160369873046875
1761315841282982400,10.101982421875,-0.9863128662109375,-0.0024261474609375,-0.0154571533203125
1761315841293029600,10.112029541015625,-0.9874420166015625,-0.002166748046875,-0.0158843994140625
1761315841303076600,10.12207666015625,-0.9864654541015625,-0.003326416015625,-0.0154266357421875
1761315841313123600,10.13212353515625,-0.9857177734375,-0.0023651123046875,-0.0145416259765625
1761315841323170300,10.14217041015625,-0.987060546875,-0.0017547607421875,-0.0150909423828125
1761315841333217300,10.15221728515625,-0.98602294921875,-0.0016326904296875,-0.015777587890625
1761315841343264300,10.16226416015625,-0.986297607421875,-0.0019989013671875,-0.016387939453125
1761315841353311500,10.1723115234375,-0.98712158203125,-0.00213623046875,-0.01593017578125
1761315841363358500,10.1823583984375,-0.9862518310546875,-0.0019683837890625,-0.015838623046875
1761315841373405400,10.192405517578125,-0.98681640625,-0.00201416015625,-0.015960693359375
1761315841383452400,10.202452392578126,-0.9856719970703125,-0.00262451171875,-0.0162200927734375
1761315841393499400,10.21249951171875,-0.9858551025390625,-0.0025634765625,-0.016387939453125
1761315841403546400,10.22254638671875,-0.9852752685546875,-0.0023345947265625,-0.016448974609375
1761315841413593600,10.232593505859375,-0.9857635498046875,-0.00177001953125,-0.0162353515625
1761315841423640600,10.242640625,-0.986907958984375,-0.00238037109375,-0.01568603515625
1761315841433687600,10.2526875,-0.9869384765625,-0.00152587890625,-0.0164947509765625
1761315841443734500,10.262734619140625,-0.9866485595703125,-0.0023040771484375,-0.0158233642578125
1761315841453781200,10.27278125,-0.9867401123046875,-0.0019378662109375,-0.0157623291015625
1761315841463828200,10.282828125,-0.9863433837890625,-0.0021209716796875,-0.01654052734375
1761315841473875500,10.29287548828125,-0.9858245849609375,-0.0017242431640625,-0.015380859375
1761315841483922400,10.30292236328125,-0.9875030517578125,-0.0022430419921875,-0.0156402587890625
1761315841493969400,10.312969482421876,-0.9865875244140625,-0.0028076171875,-0.01629638671875
1761315841504016400,10.323016357421874,-0.98651123046875,-0.0023345947265625,-0.0159454345703125
1761315841514063400,10.3330634765625,-0.9858245849609375,-0.002288818359375,-0.0159912109375
1761315841524110600,10.343110595703125,-0.986480712890625,-0.002288818359375,-0.016021728515625
1761315841534157600,10.353157470703126,-0.9854888916015625,-0.0026092529296875,-0.01544189453125
1761315841544204500,10.36320458984375,-0.9862518310546875,-0.0025177001953125,-0.0153656005859375
1761315841554251500,10.37325146484375,-0.9862060546875,-0.0026397705078125,-0.0161895751953125
1761315841564298500,10.383298583984375,-0.985565185546875,-0.002197265625,-0.0159149169921875
1761315841574345500,10.393345458984374,-0.9855499267578125,-0.0025634765625,-0.01641845703125
1761315841584392400,10.403392333984375,-0.987091064453125,-0.002471923828125,-0.015411376953125
1761315841594439400,10.413439453125,-0.9875030517578125,-0.00244140625,-0.0149078369140625
1761315841604486400,10.423486328125,-0.9862213134765625,-0.0023651123046875,-0.0159454345703125
1761315841614533400,10.433533447265624,-0.985504150390625,-0.0021820068359375,-0.0163726806640625
1761315841624580400,10.443580322265625,-0.986114501953125,-0.0019378662109375,-0.0159149169921875
1761315841634627300,10.45362744140625,-0.9861907958984375,-0.0019683837890625,-0.0160064697265625
1761315841644674600,10.463674560546876,-0.986083984375,-0.00177001953125,-0.0158538818359375
1761315841654721500,10.473721435546874,-0.986083984375,-0.0018768310546875,-0.015533447265625
1761315841664768500,10.4837685546875,-0.9858856201171875,-0.0024871826171875,-0.015777587890625
1761315841674815500,10.4938154296875,-0.9858856201171875,-0.0015716552734375,-0.01708984375
1761315841684862500,10.503862548828126,-0.986602783203125,-0.00201416015625,-0.015838623046875
1761315841694909400,10.513909423828125,-0.9864501953125,-0.00244140625,-0.0155487060546875
1761315841704956400,10.523956298828125,-0.9862518310546875,-0.0030517578125,-0.015472412109375
1761315841715003400,10.53400341796875,-0.9862213134765625,-0.002227783203125,-0.01568603515625
1761315841725050400,10.54405029296875,-0.9863128662109375,-0.0023651123046875,-0.01513671875
1761315841735097300,10.554097412109375,-0.98638916015625,-0.0013275146484375,-0.017242431640625
1761315841745144300,10.564144287109375,-0.985748291015625,-0.0023956298828125,-0.0167694091796875
1761315841755191300,10.57419140625,-0.98565673828125,-0.0026092529296875,-0.0158843994140625
1761315841765238500,10.584238525390624,-0.9860687255859375,-0.001739501953125,-0.0159149169921875
1761315841775285500,10.594285400390625,-0.98651123046875,-0.0024261474609375,-0.0152435302734375
1761315841785332500,10.60433251953125,-0.986328125,-0.00244140625,-0.0154266357421875
1761315841795379500,10.61437939453125,-0.9863433837890625,-0.0023345947265625,-0.0158538818359375
1761315841805426400,10.624426513671875,-0.9862823486328125,-0.001861572265625,-0.0157470703125
1761315841815473700,10.6344736328125,-0.9855499267578125,-0.00238037109375,-0.01593017578125
1761315841825520600,10.644520751953126,-0.9862060546875,-0.0023040771484375,-0.01531982421875
1761315841835567400,10.6545673828125,-0.986236572265625,-0.002166748046875,-0.015594482421875
1761315841845614300,10.6646142578125,-0.9857635498046875,-0.0025787353515625,-0.016357421875
1761315841855661300,10.674661376953125,-0.9864501953125,-0.0017242431640625,-0.0167999267578125
1761315841865708300,10.684708251953126,-0.9875030517578125,-0.0016937255859375,-0.01507568359375
1761315841875755500,10.694755615234374,-0.986297607421875,-0.0022430419921875,-0.0154571533203125
1761315841885802500,10.704802490234375,-0.9867095947265625,-0.0019378662109375,-0.0155181884765625
1761315841895849500,10.714849365234375,-0.986846923828125,-0.0029144287109375,-0.01605224609375
1761315841905896400,10.724896484375,-0.9862823486328125,-0.002197265625,-0.0155792236328125
1761315841915939800,10.73493994140625,-0.9871368408203125,-0.001708984375,-0.0153961181640625
1761315841925986800,10.74498681640625,-0.986083984375,-0.00213623046875,-0.0164947509765625
1761315841936033800,10.75503369140625,-0.9854736328125,-0.002899169921875,-0.0163116455078125
1761315841946080800,10.765080810546875,-0.9857330322265625,-0.00238037109375,-0.0157928466796875
1761315841956128000,10.7751279296875,-0.9865875244140625,-0.0020294189453125,-0.01593017578125
1761315841966174700,10.7851748046875,-0.98583984375,-0.0017852783203125,-0.0158233642578125
1761315841976221700,10.7952216796875,-0.986785888671875,-0.0021820068359375,-0.0157470703125
1761315841986268700,10.8052685546875,-0.98699951171875,-0.002105712890625,-0.015594482421875
1761315841996315600,10.815315673828126,-0.9876556396484375,-0.0021514892578125,-0.0158843994140625
1761315842006362600,10.825362548828124,-0.987152099609375,-0.003509521484375,-0.0162353515625
1761315842016409900,10.835409912109375,-0.985504150390625,-0.0028076171875,-0.0172119140625
1761315842026456800,10.845456787109375,-0.9860382080078125,-0.001708984375,-0.0150299072265625
1761315842036503800,10.85550390625,-0.98565673828125,-0.002044677734375,-0.015472412109375
1761315842046550800,10.86555078125,-0.9852294921875,-0.0029144287109375,-0.015777587890625
1761315842056598800,10.875598876953125,-0.9867706298828125,-0.0030975341796875,-0.015533447265625
