time,seconds_elapsed,z,y,x
1761315831287422500,0.10642236328125,0.00666402792558074,-0.007527957204729319,0.0011036139912903309
1761315831297469700,0.1164697265625,0.008747951127588749,-0.008869391866028309,0.00036458674003370106
1761315831307516700,0.1265166015625,0.00917565543204546,-0.007743140682578087,-0.0004796353168785572
1761315831317563600,0.136563720703125,0.008288289420306683,-0.00797536876052618,-0.00009028115891851485
1761315831327610400,0.1466103515625,0.006228867452591658,-0.007545001804828644,0.0011707255616784096
1761315831337657300,0.1566572265625,0.007791344076395035,-0.0089993542060256,0.002427471335977316
1761315831347704300,0.166704345703125,0.009623865596950054,-0.00663446681573987,0.0014852449530735612
1761315831357751600,0.17675146484375,0.008627843111753464,-0.006141782272607088,-0.00008149272616719827
1761315831367798500,0.186798583984375,0.007785751484334469,-0.006111954804509878,0.00037470675306394696
1761315831377845500,0.196845458984375,0.006012884899973869,-0.007449926808476448,0.0016074840677902102
1761315831387892500,0.206892578125,0.009797769598662853,-0.007272027432918549,0.0014298511669039726
1761315831397939500,0.216939453125,0.006268016062676907,-0.009612413123250008,-0.002020274056121707
1761315831407986700,0.226986572265625,0.00797243881970644,-0.009397496469318867,0.0011238539591431618
1761315831418033700,0.23703369140625,0.010219880379736423,-0.009824400767683983,-0.0014439659425988793
1761315831428080600,0.24708056640625,0.008624114096164703,-0.008466188795864582,0.0013438310706987977
1761315831438127600,0.257127685546875,0.004052532371133566,-0.004780640359967947,0.002835201332345605
1761315831448174600,0.267174560546875,0.005889846943318844,-0.00649731419980526,-0.0013662016717717052
1761315831458221300,0.27722119140625,0.00618172949180007,-0.006873618811368942,0.0008221178431995213
1761315831468268500,0.2872685546875,0.00762782571837306,-0.009372462518513203,0.0034906051587313414
1761315831478316500,0.297316650390625,0.006529538426548243,-0.009700563736259937,0.0018548916559666395
1761315831488363500,0.307363525390625,0.007151918951421976,-0.010026535019278526,0.0006058691651560366
1761315831498410500,0.317410400390625,0.005241899751126766,-0.006224073935300112,0.0015912387752905488
1761315831508457500,0.32745751953125,0.006054163910448551,-0.005248025059700012,-0.0003270361921750009
1761315831518504700,0.337504638671875,0.006072806194424629,-0.008231031708419323,0.0022421153262257576
1761315831528551700,0.3475517578125,0.006891462020576,-0.008254467509686947,-0.001592037733644247
1761315831538598700,0.3575986328125,0.007222226355224848,-0.006037652492523193,-0.0003989415417890996
1761315831548645400,0.367645263671875,0.007138337008655071,-0.009542372077703476,0.005318332463502884
1761315831558692400,0.3776923828125,0.009186574257910252,-0.008994027972221375,0.0014618091518059373
1761315831568739300,0.3877392578125,0.007966846227645874,-0.011156780645251274,0.002037850907072425
1761315831578786600,0.39778662109375,0.008462727069854736,-0.00941906776279211,0.002290851203724742
1761315831588833500,0.40783349609375,0.009343700483441353,-0.008231830783188343,0.0014391721924766898
1761315831598880500,0.417880615234375,0.00814847368746996,-0.007281348574906588,0.0026202842127531767
1761315831608927500,0.427927490234375,0.009636115282773972,-0.007024087477475405,0.0019379822770133615
1761315831618974500,0.437974365234375,0.008353004232048988,-0.00851599033921957,0.0011877698125317693
1761315831629021700,0.448021728515625,0.008323975838720798,-0.006589192897081375,0.0016397082945331931
1761315831639068700,0.458068603515625,0.0076299565844237804,-0.008777778595685959,-0.0009933591354638338
1761315831649116400,0.468116455078125,0.008414257317781448,-0.007538077421486378,0.002159557305276394
1761315831659163400,0.478163330078125,0.00762782571837306,-0.006813431158661842,0.00023915186466183513
1761315831669210400,0.48821044921875,0.006073338910937309,-0.007989482954144478,0.0016580841038376093
1761315831679257600,0.498257568359375,0.009034507907927036,-0.0068062408827245235,0.00427171029150486
1761315831689304600,0.5083046875,0.006719421595335007,-0.007211573887616396,0.004772384651005268
1761315831699351600,0.5183515625,0.005135107319802046,-0.00868909526616335,0.0010351707460358739
1761315831709398500,0.5283984375,0.007814513519406319,-0.00885074958205223,0.004060788080096245
1761315831719445500,0.538445556640625,0.007576959673315287,-0.008235027082264423,0.0009395632077939808
1761315831729492500,0.548492431640625,0.006166016682982445,-0.008609733544290066,0.0038213697262108326
1761315831739539700,0.558539794921875,0.004997155629098415,-0.0073623089119791985,0.003605387406423688
1761315831749586700,0.568586669921875,0.004827511962503195,-0.008068579249083996,0.0036250948905944824
1761315831759633700,0.578633544921875,0.003893807763233781,-0.008375908248126507,0.0009651295840740204
1761315831769680400,0.588680419921875,0.0057164751924574375,-0.00965529028326273,0.004283428192138672
1761315831779727400,0.598727294921875,0.007421963382512331,-0.005825931206345558,0.0015494271647185087
1761315831789774300,0.6087744140625,0.006589192897081375,-0.0051654670387506485,-0.000008788431841821875
1761315831799821600,0.618821533203125,0.00857351440936327,-0.007994809187948704,0.0015552861150354147
1761315831809868500,0.62886865234375,0.0054549528285861015,-0.0064776064828038216,0.000827177835162729
1761315831819916500,0.63891650390625,0.006974020041525364,-0.008551144041121006,0.001234641415067017
1761315831829963500,0.648963623046875,0.00914183259010315,-0.007567904889583588,0.001520132296718657
1761315831840010800,0.6590107421875,0.009140768088400364,-0.00860041193664074,0.00192200334277004
1761315831850057700,0.6690576171875,0.010568488389253616,-0.007479221560060978,0.0028043086640536785
1761315831860104400,0.6791044921875,0.007428621407598257,-0.007340470794588327,0.001454884884878993
1761315831870151400,0.6891513671875,0.006432599388062954,-0.006804376374930143,0.003500725142657757
1761315831880198400,0.699198486328125,0.007447263691574335,-0.00768801337108016,0.000952080066781491
1761315831890245400,0.709245361328125,0.005020058713853359,-0.012912336736917496,0.004308728501200676
1761315831900288500,0.71928857421875,0.010120810940861702,-0.008784170262515545,0.0014950985787436366
1761315831910335500,0.72933544921875,0.010313623584806919,-0.005915413144975901,0.003609115956351161
1761315831920382700,0.7393828125,0.0075697689317166805,-0.006931409239768982,0.0020628846250474453
1761315831930429700,0.7494296875,0.008832373656332493,-0.006612362805753946,0.0015622102655470371
1761315831940476700,0.7594765625,0.008734103292226791,-0.007472030818462372,0.0018024274613708258
1761315831950523600,0.769523681640625,0.005821669939905405,-0.009999371133744717,0.0013065468519926071
1761315831960570600,0.779570556640625,0.008286425843834877,-0.008753810077905655,0.0026999127585440874
1761315831970617900,0.789617919921875,0.006283462047576904,-0.007214237004518509,0.003007774008437991
1761315831980665600,0.79966552734375,0.006650712341070175,-0.009002549573779106,0.002043709857389331
1761315831990712600,0.809712646484375,0.006729541812092066,-0.007680024020373821,0.00344533147290349
1761315832000759600,0.819759521484375,0.0057066213339567184,-0.008380435407161713,0.0033017871901392937
1761315832010806500,0.829806640625,0.005197425372898579,-0.008028365671634674,0.0014407701091840863
1761315832020853800,0.839853759765625,0.007163903210312128,-0.009740778245031834,0.0006934871198609471
1761315832030900700,0.849900634765625,0.007385478354990482,-0.005854160524904728,-0.00018908442871179432
1761315832040947700,0.85994775390625,0.007237140089273453,-0.007163903210312128,-0.00005699164830730297
1761315832050994700,0.86999462890625,0.007901598699390888,-0.007366036996245384,0.001094559207558632
1761315832061041700,0.880041748046875,0.0072957295924425125,-0.007221161387860775,0.0012905678013339639
1761315832071088600,0.890088623046875,0.004305532667785883,-0.008806274272501469,0.002895388752222061
1761315832081135900,0.900135986328125,0.008389223366975784,-0.006725014187395573,0.0015454323729500175
1761315832091182600,0.9101826171875,0.008615059778094292,-0.007301056291908026,0.0020120181143283844
1761315832101229600,0.9202294921875,0.007867244072258472,-0.008623315952718258,0.0019981698133051395
1761315832111276500,0.930276611328125,0.008111988194286823,-0.008260592818260193,0.0014530207263305783
1761315832121323500,0.940323486328125,0.00532552320510149,-0.008534366264939308,0.0015315839555114508
1761315832131371800,0.950371826171875,0.007305583450943232,-0.007211307529360056,0.0012173309223726392
1761315832141418800,0.960418701171875,0.007281881291419268,-0.008765527978539467,0.002813629573211074
1761315832151465700,0.9704658203125,0.008626244962215424,-0.006367351859807968,0.002654372714459896
1761315832161512700,0.9805126953125,0.008859803900122643,-0.0059753344394266605,0.0017816547770053148
1761315832171559700,0.9905595703125,0.004625644534826279,-0.008857141248881817,0.002444781828671694
1761315832181606700,1.000606689453125,0.00933011807501316,-0.0075788237154483795,0.0015893745003268123
1761315832191653600,1.010653564453125,0.006941529456526041,-0.007651794236153364,0.0014833806781098247
1761315832201700600,1.02070068359375,0.00672155199572444,-0.006051234435290098,0.0029816750902682543
1761315832211747600,1.03074755859375,0.008920257911086082,-0.008294414728879929,0.00344533147290349
1761315832221794600,1.040794677734375,0.0073045180179178715,-0.008795621804893017,0.001469798618927598
1761315832231841500,1.050841552734375,0.0067662931978702545,-0.006794256623834372,0.0009925601771101356
1761315832241888800,1.060888671875,0.00717642018571496,-0.00820999313145876,0.001928128651343286
1761315832251935700,1.070935791015625,0.004221376497298479,-0.007416104432195425,-0.00012969593808520585
1761315832261982700,1.080982666015625,0.007409180514514446,-0.00902518630027771,0.0023992417845875025
1761315832272029700,1.09102978515625,0.006610498297959566,-0.009870207868516445,0.001740642124786973
1761315832282077400,1.101077392578125,0.003144660498946905,-0.006362558342516422,0.0018490327056497335
1761315832292124700,1.111124755859375,0.006779076531529427,-0.007802795618772507,0.002516420790925622
1761315832302171600,1.121171630859375,0.007386543322354555,-0.008036887273192406,0.0006892260862514377
1761315832312218600,1.131218505859375,0.004687163513153791,-0.006171875633299351,0.0019294602097943425
1761315832322265600,1.141265625,0.003969707991927862,-0.008214253932237625,0.0014956312952563167
1761315832332312600,1.1513125,0.006677876226603985,-0.00646562222391367,0.002969424705952406
1761315832342359600,1.161359619140625,0.009251022711396217,-0.006594519596546888,0.0014271880500018597
1761315832352406800,1.17140673828125,0.009196427650749683,-0.008008657954633236,0.0022450448013842106
1761315832362453800,1.181453857421875,0.007222226355224848,-0.007562045939266682,0.00177899154368788
1761315832372500700,1.191500732421875,0.007211573887616396,-0.005846437532454729,0.0004308994684834033
1761315832382547700,1.201547607421875,0.00612234091386199,-0.009355684742331505,0.0037787591572850943
1761315832392594700,1.2115947265625,0.009518137201666832,-0.007871238514780998,0.0018221348291262984
1761315832402641400,1.221641357421875,0.006174006499350071,-0.005409146659076214,0.003230414353311062
1761315832412688600,1.231688720703125,0.0071127708069980145,-0.009467803873121738,0.0009888317435979843
1761315832422735600,1.241735595703125,0.005535114090889692,-0.0086054727435112,0.002514290390536189
1761315832432783600,1.25178369140625,0.007908789440989494,-0.006912234704941511,0.0021291973534971476
1761315832442830600,1.26183056640625,0.00628932099789381,-0.006558034103363752,0.0023361248895525932
1761315832452877800,1.2718779296875,0.007513842545449734,-0.007907990366220474,0.0020277309231460094
1761315832462924800,1.2819248046875,0.00890907272696495,-0.007728226948529482,-0.00022077605535741895
1761315832472971800,1.2919716796875,0.008465123362839222,-0.007979363203048706,0.00180908537004143
1761315832483018800,1.302018798828125,0.006932208314538002,-0.006937268190085888,0.0023971113841980696
1761315832493065500,1.3120654296875,0.0070523167960345745,-0.007451524492353201,0.004086087923496962
1761315832503112400,1.322112548828125,0.008371113799512386,-0.008081096224486828,-0.0007366303470917046
1761315832513159700,1.33215966796875,0.005437375977635384,-0.009456618689000607,0.0014410364674404263
1761315832523206700,1.34220654296875,0.008350874297320843,-0.007766842842102051,-0.0004966795677319169
1761315832533253600,1.352253662109375,0.005543103441596031,-0.007452856283634901,0.0027830032631754875
1761315832543300600,1.362300537109375,0.0065140919759869576,-0.006894924212247133,0.0021113541442900896
1761315832553347600,1.37234765625,0.006082393694669008,-0.0075633772648870945,0.003817641409114003
1761315832563395800,1.382395751953125,0.004168113227933645,-0.009981261566281319,0.0023845944087952375
1761315832573442800,1.39244287109375,0.007393201347440481,-0.007908523082733154,0.000844754686113447
1761315832583489500,1.402489501953125,0.006489058490842581,-0.009324791841208935,0.0012487561907619238
1761315832593536500,1.41253662109375,0.00404507527127862,-0.007017163094133139,0.0021438447292894125
1761315832603583500,1.42258349609375,0.004959338344633579,-0.008044610731303692,0.0009574064170010388
1761315832613630500,1.43263037109375,0.00794127956032753,-0.007336209993809462,0.0023060310631990433
1761315832623677700,1.442677734375,0.00923104863613844,-0.007931426167488098,0.002126534003764391
1761315832633724700,1.452724609375,0.006331132724881172,-0.00956634059548378,-0.0013986921403557062
1761315832643771600,1.462771728515625,0.00968831405043602,-0.007959389127790928,0.0034908715169876814
1761315832653818600,1.472818603515625,0.0075820195488631725,-0.006862965878099203,0.002377670258283615
1761315832663865600,1.482865478515625,0.008236357942223549,-0.008595884777605534,0.002372077666223049
1761315832673912800,1.492912841796875,0.009673666208982468,-0.006996656768023968,0.0021856562234461308
1761315832683959800,1.502959716796875,0.010210026986896992,-0.009044361300766468,0.0022327941842377186
1761315832694006800,1.5130068359375,0.007772701792418957,-0.007865912280976772,0.0022855247370898724
1761315832704054500,1.523054443359375,0.007846205495297909,-0.008992429822683334,0.0030421288684010506
1761315832714101500,1.5331015625,0.006311425473541021,-0.0049398974515497684,0.0030626351945102215
1761315832724148700,1.543148681640625,0.008928247727453709,-0.008027033880352974,0.0022173479665070772
1761315832734195700,1.55319580078125,0.004505269695073366,-0.008668056689202785,-0.00019574233738239855
1761315832744242700,1.56324267578125,0.008433432318270206,-0.007936486043035984,0.003391801845282316
1761315832754289700,1.57328955078125,0.00657481187954545,-0.009040899574756622,0.003054911969229579
1761315832764336600,1.583336669921875,0.006190251559019089,-0.007755391299724579,0.0037023264449089766
1761315832774383600,1.593383544921875,0.008129299618303776,-0.009040899574756622,0.0005874933558516204
1761315832784430800,1.603430908203125,0.008304801769554615,-0.007476824801415205,0.002314020646736026
1761315832794477800,1.613477783203125,0.008625978603959084,-0.007793740835040808,0.0036823528353124857
1761315832804524500,1.623524658203125,0.006256298162043095,-0.006228867452591658,-0.0004876247840002179
1761315832814571500,1.633571533203125,0.009198558516800404,-0.01002333965152502,0.001275920425541699
1761315832824618500,1.643618408203125,0.00774820102378726,-0.008677643723785877,0.002668487373739481
1761315832834666800,1.653666748046875,0.008870989084243774,-0.007103449665009975,0.005951632279902697
1761315832844713700,1.663713623046875,0.005408613942563534,-0.0067692226730287075,0.0019052254501730204
1761315832854760700,1.6737607421875,0.006828078534454107,-0.007891745306551456,0.0032320122700184584
1761315832864807700,1.6838076171875,0.006237655878067017,-0.0071010529063642025,0.00561101408675313
1761315832874854700,1.693854736328125,0.00780519237741828,-0.007780425250530243,0.0016831178218126297
1761315832884902000,1.70390185546875,0.008145544677972794,-0.004139084834605455,0.004467452876269817
1761315832894948600,1.713948486328125,0.0072896042838692665,-0.007977765053510666,0.0007337008719332516
1761315832905000000,1.724,0.008950884453952312,-0.005921006202697754,0.0024887239560484886
1761315832915047000,1.734046875,0.007142065558582544,-0.008557269349694252,0.0021321268286556005
1761315832925094000,1.744093994140625,0.009195628575980663,-0.00782569870352745,0.0019566244445741177
1761315832935140900,1.754140869140625,0.008639294654130936,-0.00732395937666297,0.0018024274613708258
1761315832945187800,1.764187744140625,0.008197476156055927,-0.008383364416658878,-0.0003270361921750009
1761315832955235000,1.774235107421875,0.01002174150198698,-0.00809174869209528,0.0036597158759832382
1761315832965282000,1.784281982421875,0.011952000670135021,-0.009386311285197735,0.0005829659639857709
1761315832975329800,1.794329833984375,0.008563128300011158,-0.005830192007124424,0.0020844561513513327
1761315832985376800,1.804376708984375,0.008741027675569057,-0.0065263425931334496,0.0006844323943369091
1761315832995423700,1.814423828125,0.008950884453952312,-0.006223541218787432,0.000040746363083599135
1761315833005471000,1.824470947265625,0.007845140062272549,-0.007391603663563728,0.0022325278259813786
1761315833015518000,1.83451806640625,0.007505054119974375,-0.007427023723721504,0.003881557146087289
1761315833025565000,1.84456494140625,0.009512544609606266,-0.008036887273192406,0.002513491315767169
1761315833035612000,1.85461181640625,0.007759652566164732,-0.006132993847131729,0.002073537092655897
1761315833045659000,1.864658935546875,0.005736448802053928,-0.008702144958078861,0.002380067016929388
1761315833055705900,1.874705810546875,0.005453887395560741,-0.0067998492158949375,0.002570483135059476
1761315833065753000,1.884753173828125,0.009006810374557972,-0.006759635638445616,0.002272208919748664
1761315833075800000,1.894800048828125,0.006703442893922329,-0.007635815534740686,-0.0006538060260936618
1761315833085846800,1.9048466796875,0.006458964664489031,-0.007664044853299856,0.004006193019449711
1761315833095893800,1.914893798828125,0.00845393817871809,-0.008583367802202702,0.0018551580142229795
1761315833105942000,1.92494189453125,0.007991347461938858,-0.005166266113519669,0.0035451999865472317
1761315833115989000,1.934989013671875,0.007897604256868362,-0.007185208611190319,0.0021675468888133764
1761315833126036000,1.945035888671875,0.00603472301736474,-0.00797110702842474,0.003035471076145768
1761315833136083000,1.9550830078125,0.006499444600194693,-0.006460562348365784,0.0027566379867494106
1761315833146130000,1.9651298828125,0.008698150515556335,-0.006898918654769659,-0.00023196132679004222
1761315833156177000,1.975177001953125,0.006680007092654705,-0.007582818623632193,0.0025859293527901173
1761315833166224100,1.98522412109375,0.008533833548426628,-0.005425125360488892,0.0020652813836932182
1761315833176270800,1.995270751953125,0.007509315386414528,-0.0076882797293365,0.003373159794136882
1761315833186317800,2.00531787109375,0.010154899209737778,-0.007811850402504206,0.0015954998089000583
1761315833196364800,2.01536474609375,0.006103166379034519,-0.009000685065984726,0.0006889597862027586
1761315833206411800,2.025411865234375,0.008156197145581245,-0.00806325301527977,0.0007352987886406481
1761315833216458800,2.035458740234375,0.00902518630027771,-0.009519468992948532,0.00004820321555598639
1761315833226506000,2.045506103515625,0.006687463726848364,-0.006595318205654621,0.0013129384024068713
1761315833236553000,2.055552978515625,0.007110639940947294,-0.005293565336614847,0.0012484899489209056
1761315833246601000,2.06560107421875,0.00875194650143385,-0.008270712569355965,0.0028421254828572273
1761315833256648000,2.07564794921875,0.00857404712587595,-0.007683219853788614,0.0022916500456631184
1761315833266695000,2.08569482421875,0.007753260899335146,-0.008567655459046364,0.0020668793004006147
1761315833276742000,2.095741943359375,0.010250506922602654,-0.006041114684194326,0.0028876655269414186
1761315833286788900,2.105788818359375,0.007360178045928478,-0.007154049351811409,0.002627208363264799
1761315833296835800,2.1158359375,0.00717748561874032,-0.006608367897570133,-0.00045380264054983854
1761315833306882800,2.1258828125,0.008553008548915386,-0.009630522690713406,0.0005755090969614685
1761315833316929800,2.1359296875,0.009870207868516445,-0.005696235224604607,0.0036903421860188246
1761315833326977000,2.14597705078125,0.004387291613966227,-0.009709885343909264,0.0008801747462712228
1761315833337024000,2.15602392578125,0.008246212266385555,-0.006874151527881622,0.001148088718764484
1761315833347071000,2.166071044921875,0.005856025032699108,-0.005849100649356842,-0.00008415588672505692
1761315833357118000,2.176117919921875,0.00703900121152401,-0.007468835450708866,0.002323608146980405
1761315833367165000,2.1861650390625,0.006175071466714144,-0.007838215678930283,0.0024253407027572393
1761315833377213000,2.196212890625,0.005370264407247305,-0.007574030198156834,0.0006085322820581496
1761315833387260000,2.206260009765625,0.007379086688160896,-0.009199890308082104,0.003528422210365534
1761315833397307000,2.216306884765625,0.007875500246882439,-0.00920228660106659,0.001255946815945208
1761315833407353900,2.226353759765625,0.004318581894040108,-0.005253617651760578,0.002831739140674472
1761315833417400800,2.23640087890625,0.007966846227645874,-0.007929828017950058,0.002226136391982436
1761315833427447800,2.24644775390625,0.007678958587348461,-0.007705323863774538,0.0036458675749599934
1761315833437495000,2.2564951171875,0.007164435926824808,-0.009917079471051693,0.002525475574657321
1761315833447542000,2.2665419921875,0.0059897154569625854,-0.005568403284996748,-0.0008697884040884674
1761315833457589000,2.276589111328125,0.0067899953573942184,-0.00794287770986557,0.0006596649764105678
1761315833467636000,2.286635986328125,0.008203068748116493,-0.007375358138233423,0.002264219569042325
1761315833477683000,2.296682861328125,0.007684018462896347,-0.006213953718543053,0.0006386260502040386
1761315833487729700,2.306729736328125,0.008294148370623589,-0.007384146563708782,0.0030602384358644485
1761315833497777000,2.31677685546875,0.007708519697189331,-0.00788269005715847,0.0030192257836461067
1761315833507825000,2.326824951171875,0.008668855763971806,-0.006923686247318983,-0.000291616132017225
1761315833517871900,2.336871826171875,0.00902784988284111,-0.008652610704302788,0.0015417039394378662
1761315833527918800,2.3469189453125,0.006277869455516338,-0.005964681971818209,0.0029470541048794985
1761315833537966000,2.356966064453125,0.00866086594760418,-0.007984689436852932,0.0002508697798475623
1761315833548013000,2.367012939453125,0.00857244897633791,-0.011055846698582172,0.0028245486319065094
1761315833558060000,2.37706005859375,0.008258729241788387,-0.007795604877173901,0.0008050735923461616
1761315833568107000,2.38710693359375,0.0073745595291256905,-0.007511978503316641,0.003955060616135597
1761315833578153700,2.39715380859375,0.007811584044247866,-0.006986536551266909,0.0024205471854656935
1761315833588200700,2.40720068359375,0.008382565341889858,-0.006195045076310635,0.0007701861904934049
1761315833598248000,2.417248046875,0.007141799200326204,-0.007188670802861452,0.0021587584633380175
1761315833608295000,2.427294921875,0.007121825125068426,-0.006179599091410637,0.002516687149181962
1761315833618342000,2.437341796875,0.005245361942797899,-0.007561513222754002,-0.00040320257539860904
1761315833628388900,2.447388916015625,0.008896822109818459,-0.007196393795311451,-0.00007909588020993397
1761315833638436900,2.457436767578125,0.005064000841230154,-0.005021922755986452,0.0055803875438869
1761315833648484000,2.467484130859375,0.006420881487429142,-0.009000685065984726,0.0026607641484588385
1761315833658531000,2.477531005859375,0.00657507823780179,-0.006747118663042784,0.0008013451588340104
1761315833668577800,2.487577880859375,0.007928763516247272,-0.0075969332829117775,0.0020967067684978247
1761315833678624800,2.497624755859375,0.00592606607824564,-0.007691741921007633,0.0035657063126564026
1761315833688671700,2.507671630859375,0.008445416577160358,-0.007354319095611572,0.00166607357095927
1761315833698718700,2.51771875,0.008085889741778374,-0.009417470544576645,0.003677292726933956
1761315833708766000,2.527765869140625,0.005170527379959822,-0.005937783978879452,0.005428587552160025
1761315833718813000,2.53781298828125,0.008975652046501637,-0.008350607939064503,-0.0021459751296788454
1761315833728860000,2.54785986328125,0.008450742810964584,-0.007774033583700657,-0.0015869776252657175
1761315833738907000,2.557906982421875,0.006738862954080105,-0.0067780110985040665,0.0020154803059995174
1761315833748953900,2.567953857421875,0.007899735122919083,-0.004786499310284853,0.002276203827932477
1761315833759001000,2.5780009765625,0.008800149895250797,-0.0067689563147723675,0.002445048186928034
1761315833769048800,2.588048828125,0.007230748422443867,-0.009416937828063965,0.004211523104459047
1761315833779095800,2.598095703125,0.00782436691224575,-0.007613178342580795,-0.000355532014509663
1761315833789142800,2.608142822265625,0.006855509243905544,-0.008260060101747513,0.0013187973527237773
1761315833799189800,2.618189697265625,0.01004783995449543,-0.0073298183269798756,0.0023339942563325167
1761315833809237000,2.628237060546875,0.005243764258921146,-0.008027300238609314,0.0014660701854154468
1761315833819284000,2.638283935546875,0.008288822136819363,-0.009984989650547504,0.002656503114849329
1761315833829331000,2.6483310546875,0.0065345983020961285,-0.007654457353055477,0.0010255833622068167
1761315833839378000,2.6583779296875,0.007291468791663647,-0.00740358792245388,0.002740392694249749
1761315833849425000,2.6684248046875,0.00746271014213562,-0.0065252771601080894,0.0024048343766480684
1761315833859472000,2.678471923828125,0.006485596299171448,-0.006262955721467733,0.0014434333425015211
1761315833869519000,2.68851904296875,0.008594021201133728,-0.0062275356613099575,0.0007683219737373292
1761315833879566000,2.698566162109375,0.009770339354872704,-0.005864547099918127,0.001228516222909093
1761315833889612800,2.70861279296875,0.006505836267024279,-0.00888110976666212,0.001710814656689763
1761315833899656200,2.71865625,0.006113286130130291,-0.007726629264652729,0.003403519745916128
1761315833909703200,2.728703125,0.00552126532420516,-0.0054640076123178005,0.0037891454994678497
1761315833919750100,2.738750244140625,0.007698133587837219,-0.009517339058220387,0.001745968358591199
1761315833929797000,2.748797119140625,0.00640703272074461,-0.006173207424581051,0.0010514160385355353
1761315833939844400,2.75884423828125,0.008771919645369053,-0.00818043202161789,0.0026282735634595156
1761315833949891300,2.768891357421875,0.008841162547469139,-0.00993305817246437,0.001967010786756873
1761315833959938300,2.778938232421875,0.007110906299203634,-0.010489125736057758,0.0009976201690733433
1761315833969985300,2.7889853515625,0.00714579364284873,-0.004595017991960049,0.0010042780777439475
1761315833980032300,2.7990322265625,0.00908271037042141,-0.008668855763971806,0.0018232000293210149
1761315833990079200,2.809079345703125,0.0082483422011137,-0.007933557033538818,0.00037044569035060704
1761315834000126500,2.81912646484375,0.007882158271968365,-0.007107710465788841,-0.0003424825263209641
1761315834010173400,2.82917333984375,0.009809753857553005,-0.008461395278573036,0.0007621967233717442
1761315834020220200,2.83922021484375,0.008047007024288177,-0.005655488930642605,0.002005360322073102
1761315834030267100,2.84926708984375,0.006205964367836714,-0.00737376045435667,0.0009893643436953425
1761315834040315400,2.8593154296875,0.007720503956079483,-0.008727977983653545,0.0016911072889342904
1761315834050362400,2.8693623046875,0.008331166580319405,-0.0067841364070773125,0.0019430422689765692
1761315834060409300,2.879409423828125,0.01010962575674057,-0.009486179798841476,-0.0004021373169962317
1761315834070456300,2.889456298828125,0.011176222003996372,-0.007288272958248854,0.0018580874893814325
1761315834080503300,2.89950341796875,0.008315986953675747,-0.006445914972573519,0.0016639430541545153
1761315834090550300,2.90955029296875,0.007594802882522345,-0.009585249237716198,0.000711064029019326
1761315834100597500,2.919597412109375,0.007457383442670107,-0.008684301748871803,0.001749164192005992
1761315834110644200,2.929644287109375,0.00765951769426465,-0.007120493799448013,-0.0004953479510731995
1761315834120691200,2.939691162109375,0.008171643130481243,-0.006229133810847998,0.002156894188374281
1761315834130738200,2.94973828125,0.008259793743491173,-0.007525826804339886,0.002675145398825407
1761315834140785200,2.95978515625,0.006560430862009525,-0.0046538738533854485,0.0026256104465574026
1761315834150832000,2.96983203125,0.007958324626088142,-0.007244863547384739,0.0014764565275982022
1761315834160879400,2.97987939453125,0.008682969957590103,-0.005537777207791805,0.0021526331547647715
1761315834170927400,2.98992724609375,0.006804110016673803,-0.009820672683417797,0.0003603257064241916
1761315834180974300,2.999974365234375,0.007742607966065407,-0.007284544408321381,0.003233610186725855
1761315834191021300,3.010021240234375,0.00660463934764266,-0.009312807582318783,0.0012484899489209056
1761315834201068300,3.020068359375,0.006989732384681702,-0.007948203943669796,0.0009970874525606632
1761315834211115300,3.030115234375,0.0077471355907619,-0.007276821415871382,-0.002496447181329131
1761315834221162200,3.040162353515625,0.00686056911945343,-0.00891146995127201,0.0006050702068023384
1761315834231209200,3.050209228515625,0.007191600278019905,-0.008437426760792732,0.0019257317762821913
1761315834241256200,3.060256103515625,0.007184143178164959,-0.007996407337486744,0.0029827402904629707
1761315834251303200,3.07030322265625,0.007774299941956997,-0.008493886329233646,0.0031590417493134737
1761315834261350400,3.080350341796875,0.011773568578064442,-0.00683074165135622,0.00045087316539138556
1761315834271397400,3.0903974609375,0.006184392608702183,-0.007063235621899366,-0.0010080065112560987
1761315834281444400,3.1004443359375,0.006332464516162872,-0.006984139792621136,0.003890878288075328
1761315834291491300,3.1104912109375,0.006915164180099964,-0.00755086075514555,-0.00025300029665231705
1761315834301539000,3.1205390625,0.010877149179577827,-0.01067900937050581,0.0014048174489289522
1761315834311586300,3.13058642578125,0.0079146483913064,-0.007907191291451454,0.0020815266761928797
1761315834321633300,3.14063330078125,0.0041401502676308155,-0.007525826804339886,0.0007145261042751372
1761315834331680300,3.15068017578125,0.010765030048787594,-0.007979096844792366,0.003691940102726221
1761315834341727200,3.160727294921875,0.007787881884723902,-0.006352970842272043,0.0007637945818714797
1761315834351774200,3.170774169921875,0.009668339975178242,-0.008444084785878658,0.0006029396899975836
1761315834361821200,3.1808212890625,0.009643039666116238,-0.007996673695743084,-0.0010772485984489322
1761315834371868400,3.190868408203125,0.0070397998206317425,-0.00869069341570139,0.0016160061350092292
1761315834381915400,3.200915283203125,0.006849916651844978,-0.007760717533528805,0.0022530341520905495
1761315834391962400,3.21096240234375,0.00495188171043992,-0.007096525281667709,0.0022426480427384377
1761315834402009300,3.22100927734375,0.005633917171508074,-0.005216599907726049,0.0006559365428984165
1761315834412056300,3.231056396484375,0.009551960043609142,-0.007783088367432356,0.003479952458292246
1761315834422103000,3.24110302734375,0.006626477465033531,-0.007542870938777924,0.0009472863748669624
1761315834432150300,3.251150390625,0.006365221459418535,-0.008331432938575745,0.0017845842521637678
1761315834442197200,3.261197265625,0.005084773525595665,-0.0071007865481078625,-0.0004814995336346328
1761315834452245200,3.271245361328125,0.007182279136031866,-0.0067814732901751995,0.002526541007682681
1761315834462292200,3.281292236328125,0.005872802808880806,-0.007111705373972654,0.003635747591033578
1761315834472339500,3.29133935546875,0.007450992241501808,-0.009794839657843113,0.000857005245052278
1761315834482386400,3.301386474609375,0.005589708685874939,-0.008081895299255848,0.0034296188969165087
1761315834492433400,3.311433349609375,0.007880293764173985,-0.01005263440310955,0.002394980750977993
1761315834502480400,3.32148046875,0.006265352945774794,-0.0068022459745407104,0.0017086841398850083
1761315834512527000,3.331527099609375,0.008843292482197285,-0.007551925722509623,0.0017478326335549355
1761315834522574000,3.341573974609375,0.0076094502583146095,-0.006314354948699474,0.002305764937773347
1761315834532621300,3.351621337890625,0.008948487229645252,-0.005834453273564577,0.0020532971248030663
1761315834542668300,3.361668212890625,0.007211573887616396,-0.008560731075704098,0.0006985471700318158
1761315834552715300,3.37171533203125,0.0091719264164567,-0.007947404868900776,0.002523345174267888
1761315834562762200,3.38176220703125,0.007380684372037649,-0.00800173357129097,0.002067412016913295
1761315834572809200,3.391809326171875,0.008838232606649399,-0.009699499234557152,0.0024117587599903345
1761315834582857500,3.401857421875,0.006650712341070175,-0.007794539909809828,0.0013156015193089843
1761315834592904400,3.411904541015625,0.007333014160394669,-0.00743101816624403,0.0012447615154087543
1761315834602951200,3.421951171875,0.006325007416307926,-0.006198773626238108,0.0024865935556590557
1761315834612998100,3.431998046875,0.009767143055796623,-0.008462460711598396,0.004808071069419384
1761315834623045000,3.442045166015625,0.006042978726327419,-0.006439789664000273,0.0036434705834835768
1761315834633092000,3.452092041015625,0.00857537891715765,-0.007836617529392242,0.0007518103811889887
1761315834643139300,3.462139404296875,0.007772169075906277,-0.00774686923250556,0.003288205014541745
1761315834653186300,3.472186279296875,0.011120028793811798,-0.008438225835561752,0.002600576728582382
1761315834663233300,3.4822333984375,0.008841960690915585,-0.009102950803935528,0.003366768127307296
1761315834673280300,3.4922802734375,0.00628985371440649,-0.0072991917841136456,0.0035843485966324806
1761315834683327200,3.5023271484375,0.0067481836304068565,-0.007474428042769432,-0.0010668623726814985
1761315834693374500,3.51237451171875,0.008586297743022442,-0.006405435036867857,0.0007837683078832924
1761315834703421400,3.52242138671875,0.007526892237365246,-0.007281614933162928,0.0015355786308646202
1761315834713468400,3.532468505859375,0.007547931279987097,-0.0065194182097911835,0.0012426309986039996
1761315834723515400,3.542515380859375,0.006524212192744017,-0.007321828510612249,0.001969673903658986
1761315834733563100,3.552563232421875,0.00817936658859253,-0.008290153928101063,0.0013877731980755925
1761315834743610400,3.5626103515625,0.006141782272607088,-0.008549545891582966,0.0016439693281427026
1761315834753657300,3.5726572265625,0.0062850601971149445,-0.0072837453335523605,0.0009811085183173418
1761315834763704300,3.582704345703125,0.0049649314023554325,-0.00905741099268198,0.0006716492353007197
1761315834773751300,3.592751220703125,0.005653624422848225,-0.006456035189330578,0.0014644722687080503
1761315834783798300,3.60279833984375,0.009121859446167946,-0.007780957501381636,0.00022370553051587194
1761315834793845200,3.61284521484375,0.007669104728847742,-0.008792426437139511,0.0006250438746064901
1761315834803892500,3.622892578125,0.006102367304265499,-0.008560731075704098,0.0003014698449987918
1761315834813939500,3.632939453125,0.008376440964639187,-0.006993727292865515,0.0028578380588442087
1761315834823986200,3.642986083984375,0.007683219853788614,-0.007286142557859421,0.00001944107498275116
1761315834834033200,3.653033203125,0.008599081076681614,-0.008235293440520763,0.0012988236267119646
1761315834844080000,3.663080078125,0.007339139468967915,-0.0048799761570990086,0.0035241609439253807
1761315834854127000,3.673127197265625,0.006630738265812397,-0.005878661759197712,0.00045566685730591416
1761315834864175400,3.68317529296875,0.007254450581967831,-0.006006759591400623,0.0011094729416072369
1761315834874222300,3.693222412109375,0.006877613253891468,-0.00939243659377098,0.0021965752821415663
1761315834884269300,3.703269287109375,0.009044894017279148,-0.009726396761834621,0.0007387608638964593
1761315834894316300,3.71331640625,0.007515707053244114,-0.007529555354267359,0.0018152105621993542
1761315834904364300,3.7233642578125,0.007632086984813213,-0.008345015347003937,0.0004623247659765184
1761315834914411300,3.733411376953125,0.008065649308264256,-0.006859237793833017,0.0010066748363897204
1761315834924458500,3.74345849609375,0.007705323863774538,-0.009911753237247467,-0.002032258315011859
1761315834934505500,3.75350537109375,0.007571367081254721,-0.006068811286240816,0.0006916229031048715
1761315834944552400,3.763552490234375,0.006065615452826023,-0.00899828877300024,0.0002990729990415275
1761315834954599400,3.773599365234375,0.006043777801096439,-0.008077100850641727,0.0025422535836696625
1761315834964646400,3.783646484375,0.004699414130300283,-0.00595509447157383,0.00307675008662045
1761315834974693400,3.793693359375,0.007097057998180389,-0.008068046532571316,0.0019446401856839657
1761315834984740600,3.80374072265625,0.005313272587954998,-0.009009740315377712,-0.00014088122406974435
1761315834994787300,3.813787353515625,0.007891478948295116,-0.00845873262733221,0.0007235808880068362
1761315835004834300,3.823834228515625,0.007837416604161263,-0.007148723118007183,0.0007219829712994397
1761315835014882300,3.83388232421875,0.007814247161149979,-0.00824061967432499,-0.0005049353349022567
1761315835024929300,3.84392919921875,0.007186539936810732,-0.00752129964530468,0.0021901836153119802
1761315835034976500,3.8539765625,0.008726113475859165,-0.006994792725890875,0.0010050770360976458
1761315835045023500,3.8640234375,0.008203335106372833,-0.00821771565824747,0.0001627191377338022
1761315835055070500,3.874070556640625,0.007939682342112064,-0.008856608532369137,-0.00049108691746369
1761315835065117400,3.884117431640625,0.005166532471776009,-0.006473612040281296,0.0030013825744390488
1761315835075164400,3.894164306640625,0.005931658670306206,-0.006323143374174833,0.0009614011505618691
1761315835085211400,3.90421142578125,0.007701595313847065,-0.007213970646262169,-0.0030807447619736195
1761315835095258400,3.91425830078125,0.009367136284708977,-0.00948138628154993,0.001312139444053173
1761315835105305300,3.924305419921875,0.006882140878587961,-0.008559932000935078,0.002525475574657321
1761315835115352300,3.934352294921875,0.007065100129693747,-0.006734601687639952,0.001677791471593082
1761315835125399300,3.9443994140625,0.0065412563271820545,-0.007114368490874767,0.0024106933269649744
1761315835135446300,3.9544462890625,0.0073114424012601376,-0.007830225862562656,0.0027545075863599777
1761315835145493500,3.964493408203125,0.01001881156116724,-0.00899615790694952,0.00038056570338085294
1761315835155540500,3.97454052734375,0.008563661016523838,-0.008842227049171925,0.002073803450912237
1761315835165588500,3.98458837890625,0.007216367404907942,-0.009645170532166958,0.0018998990999534726
1761315835175635500,3.994635498046875,0.009098157286643982,-0.008898952975869179,-0.0006972155533730984
1761315835185682200,4.00468212890625,0.007511445786803961,-0.008570052683353424,0.002435727044939995
1761315835195729400,4.0147294921875,0.006595051847398281,-0.00815193634480238,0.002546514617279172
1761315835205776400,4.0247763671875,0.005834719631820917,-0.007895207032561302,0.002972087822854519
1761315835215823400,4.0348232421875,0.007591607049107552,-0.008954612538218498,0.003936951048672199
1761315835225870300,4.044870361328125,0.005602758377790451,-0.00754979532212019,0.004626177251338959
1761315835235917300,4.054917236328125,0.005780657287687063,-0.005888781975954771,0.002897519152611494
1761315835245964300,4.06496435546875,0.007457916159182787,-0.010040383785963058,0.0007584682898595929
1761315835256011500,4.075011474609375,0.00993066094815731,-0.0067686899565160275,0.002127865795046091
1761315835266058500,4.08505859375,0.007595069240778685,-0.008844091556966305,0.0032831449061632156
1761315835276105500,4.09510546875,0.008387359790503979,-0.00839961040765047,0.0018213358707726002
1761315835286152400,4.10515234375,0.007005977910012007,-0.008437693119049072,0.0017355820164084435
1761315835296199400,4.115199462890625,0.008962868712842464,-0.006147108506411314,0.0016021577175706625
1761315835306246400,4.125246337890625,0.007610515225678682,-0.006482666824012995,0.004324973560869694
1761315835316294400,4.13529443359375,0.00809308048337698,-0.007701063062995672,0.0036216326989233494
1761315835326341400,4.14534130859375,0.007419033907353878,-0.008350874297320843,0.00290444353595376
1761315835336388400,4.155388427734375,0.008294681087136269,-0.007018228527158499,0.002266616327688098
1761315835346435300,4.165435302734375,0.007759918924421072,-0.006147374864667654,0.001781921018846333
1761315835356482600,4.175482666015625,0.007393201347440481,-0.0059779975563287735,0.0028418591246008873
1761315835366529500,4.185529541015625,0.008481635712087154,-0.00830826349556446,0.0010538127971813083
1761315835376576500,4.195576416015625,0.007978564128279686,-0.009530121460556984,0.001350488979369402
1761315835386623500,4.20562353515625,0.005419000051915646,-0.00723394425585866,0.003385144053027034
1761315835396670500,4.21567041015625,0.0051710596308112144,-0.0073564499616622925,0.0008815063047222793
1761315835406717200,4.22571728515625,0.009008674882352352,-0.004922853317111731,0.0025308020412921906
1761315835416764400,4.235764404296875,0.008081096224486828,-0.006409695837646723,0.001976065570488572
1761315835426811400,4.245811279296875,0.007637146860361099,-0.009369799867272377,-0.0009616674506105483
1761315835436858400,4.2558583984375,0.007071757689118385,-0.006589459255337715,0.004790760576725006
1761315835446905300,4.2659052734375,0.007881092838943005,-0.00814953912049532,0.002401106059551239
1761315835456952300,4.275952392578125,0.008154865354299545,-0.00723580876365304,0.0021046961192041636
1761315835467000600,4.28600048828125,0.006046174559742212,-0.00839827861636877,0.002837864449247718
1761315835477047600,4.296047607421875,0.007305583450943232,-0.00791651289910078,0.002501773415133357
1761315835487094500,4.306094482421875,0.007692806888371706,-0.008411061950027943,0.0033630398102104664
1761315835497141200,4.316141357421875,0.005544967483729124,-0.006937268190085888,0.0019891150295734406
1761315835507188200,4.326188232421875,0.006167881190776825,-0.009489375166594982,0.003783819265663624
1761315835517235500,4.3362353515625,0.00782862864434719,-0.010215885937213898,0.0035052525345236063
1761315835527282400,4.346282470703125,0.007509848102927208,-0.009038768708705902,0.00043329631444066763
1761315835537329400,4.356329345703125,0.008083492517471313,-0.008676844649016857,0.0011310444679111242
1761315835547376400,4.36637646484375,0.0051622712053358555,-0.008387892507016659,0.0033041839487850666
1761315835557423400,4.37642333984375,0.008383630774915218,-0.007587079424411058,0.0016082830261439085
1761315835567470300,4.38647021484375,0.006509032100439072,-0.008860336616635323,0.0024743429385125637
1761315835577517600,4.396517578125,0.005303685087710619,-0.008701878599822521,0.002255164785310626
1761315835587564500,4.406564453125,0.00785632524639368,-0.007727694697678089,-0.0005707154050469398
1761315835597611500,4.416611572265625,0.008318649604916573,-0.008626244962215424,0.004927380476146936
1761315835607658500,4.426658447265625,0.0062645538710057735,-0.008146077394485474,0.00224903947673738
1761315835617705500,4.43670556640625,0.006402771919965744,-0.006071474403142929,0.00205249828286469
1761315835627753500,4.44675341796875,0.008547947742044926,-0.007904794998466969,0.0025395904667675495
1761315835637800400,4.456800537109375,0.009178318083286285,-0.006834736559540033,0.003099120454862714
1761315835647847400,4.466847412109375,0.006364156026393175,-0.006638994440436363,0.0031041805632412434
1761315835657894400,4.476894287109375,0.006706372369080782,-0.006914897821843624,0.0036732980515807867
1761315835667941400,4.48694140625,0.006141782272607088,-0.008992429822683334,0.0014452975010499358
1761315835677988400,4.49698828125,0.009708287194371223,-0.006184658966958523,0.001008539111353457
1761315835688035600,4.50703564453125,0.006907440721988678,-0.005851497408002615,0.0019089538836851716
1761315835698082600,4.51708251953125,0.006745520513504744,-0.005879993550479412,0.0014274542918428779
1761315835708129300,4.52712939453125,0.010877680964767933,-0.005313805304467678,0.00039867521263659
1761315835718176300,4.53717626953125,0.008994294330477715,-0.008823851123452187,-0.00046818371629342437
1761315835728223200,4.54722314453125,0.005358280148357153,-0.007190268486738205,0.00177925790194422
1761315835738270200,4.557270263671875,0.005435245577245951,-0.0062216767109930515,0.00009374327055411413
1761315835748317400,4.5673173828125,0.0075601814314723015,-0.007314904592931271,0.002273007994517684
1761315835758364400,4.577364501953125,0.007963917218148708,-0.008560731075704098,0.0019385149935260415
1761315835768411400,4.587411376953125,0.006552441511303186,-0.00833542738109827,-0.00015286543930415064
1761315835778458400,4.597458251953125,0.006095975637435913,-0.007447530049830675,0.0005203816690482199
1761315835788506600,4.607506591796875,0.00686216726899147,-0.008773251436650753,0.002653307281434536
1761315835798553300,4.61755322265625,0.008581770583987236,-0.006512227933853865,0.0014106763992458582
1761315835808600300,4.627600341796875,0.004862665664404631,-0.0077471355907619,0.00034194986801594496
1761315835818647300,4.637647216796875,0.00672208471223712,-0.008919458836317062,0.0022501046769320965
1761315835828694300,4.6476943359375,0.007847536355257034,-0.006043511442840099,0.0011467571603134274
1761315835838741200,4.6577412109375,0.005852296482771635,-0.008739429526031017,0.0008431567694060504
1761315835848788500,4.66778857421875,0.007531685754656792,-0.007860053330659866,-0.00009267800487577915
1761315835858835500,4.67783544921875,0.007439806591719389,-0.006884271278977394,0.0019092201255261898
1761315835868882400,4.68788232421875,0.00845713447779417,-0.0054331147111952305,0.0007584682898595929
1761315835878929400,4.697929443359375,0.007361776195466518,-0.007720503956079483,0.0011656655697152019
1761315835888976400,4.707976318359375,0.007475759368389845,-0.009044627659022808,0.0017659420846030116
1761315835899023400,4.7180234375,0.006477872841060162,-0.008508533239364624,0.0013020194601267576
1761315835909069800,4.72806982421875,0.009462211281061172,-0.008806008845567703,0.0012961605098098516
1761315835919116800,4.73811669921875,0.00768774701282382,-0.006487993057817221,0.0034133736044168472
1761315835929163800,4.748163818359375,0.0054357778280973434,-0.008707737550139427,0.0017960357945412397
1761315835939210800,4.758210693359375,0.007542072329670191,-0.00478516798466444,0.004582235123962164
1761315835949258800,4.7682587890625,0.007960987277328968,-0.0068331388756632805,0.002267149044200778
1761315835959305700,4.7783056640625,0.009944509714841843,-0.005898369010537863,0.003584614722058177
1761315835969352700,4.788352783203125,0.005406217183917761,-0.007273092865943909,0.003876763628795743
1761315835979399700,4.798399658203125,0.009953564032912254,-0.007019559852778912,0.000358461489668116
1761315835989446700,4.80844677734375,0.006600644905120134,-0.007939149625599384,0.0008993495139293373
1761315835999493600,4.81849365234375,0.005554554983973503,-0.008718922734260559,0.002659166231751442
1761315836009540900,4.828540771484375,0.007954861968755722,-0.007155913859605789,0.002591255819424987
1761315836019587800,4.838587890625,0.007203850895166397,-0.006037652492523193,0.0008527441532351077
1761315836029634800,4.848634765625,0.005969741847366095,-0.006908506155014038,0.00027616979787126184
1761315836039681800,4.858681884765625,0.006915164180099964,-0.008405469357967377,0.003281546989455819
1761315836049728500,4.868728515625,0.004249073565006256,-0.006163886282593012,-0.0016144082183018327
1761315836059775500,4.878775390625,0.008466987870633602,-0.006565757095813751,0.0021172130946069956
1761315836069822700,4.88882275390625,0.008125836960971355,-0.008760734461247921,0.004721784498542547
1761315836079869700,4.89886962890625,0.009469402022659779,-0.008282696828246117,-0.0005171858938410878
1761315836089916700,4.908916748046875,0.006647516507655382,-0.006136721931397915,0.0022631543688476086
1761315836099963600,4.918963623046875,0.007445133291184902,-0.008041680790483952,-0.00040772996726445854
1761315836110010600,4.9290107421875,0.005739644635468721,-0.006395847536623478,0.0035864789970219135
1761315836120059000,4.939058837890625,0.00418515782803297,-0.005332979839295149,0.0007989483419805765
1761315836130105900,4.94910595703125,0.009049687534570694,-0.008100270293653011,0.0005637911963276565
1761315836140152600,4.959152587890625,0.009045959450304508,-0.005784119479358196,0.003930026665329933
1761315836150197800,4.96919775390625,0.006881874520331621,-0.006983607076108456,0.0014716627774760127
1761315836160244700,4.97924462890625,0.01125025749206543,-0.00788615271449089,-0.0005701828049495816
1761315836170291700,4.989291748046875,0.00631941482424736,-0.007723167072981596,0.0022628880105912685
1761315836180338700,4.999338623046875,0.007105580065399408,-0.010028932243585587,0.0012796488590538502
1761315836190385700,5.0093857421875,0.008370847441256046,-0.008302138186991215,0.00036724991514347494
1761315836200433000,5.019432861328125,0.009099222719669342,-0.006343649700284004,0.00012596751912496984
1761315836210479600,5.029479736328125,0.007216101046651602,-0.008316786028444767,0.0011968245962634683
1761315836220526600,5.039526611328125,0.007334079127758741,-0.00782596506178379,0.0011238539591431618
1761315836230573600,5.049573486328125,0.006462959107011557,-0.00615136930719018,0.0030059099663048983
1761315836240620500,5.05962060546875,0.00860307551920414,-0.007380684372037649,0.0041033984161913395
1761315836250668800,5.069668701171875,0.009192699566483498,-0.007726629264652729,0.0031963258516043425
1761315836260715800,5.0797158203125,0.007197725586593151,-0.009119462221860886,0.0037417414132505655
1761315836270762800,5.0897626953125,0.006476008798927069,-0.007669903803616762,0.0041281660087406635
1761315836280809700,5.099809814453125,0.006024869158864021,-0.008475510403513908,0.0037388119380921125
1761315836290856700,5.109856689453125,0.006761766038835049,-0.00808935146778822,0.001041295938193798
1761315836300903700,5.119903564453125,0.006344981025904417,-0.00628932099789381,0.0014082795241847634
1761315836310950700,5.12995068359375,0.0091157341375947,-0.007265902124345303,0.0015401060227304697
1761315836320997600,5.13999755859375,0.006928746122866869,-0.0089365029707551,0.0011121360585093498
1761315836331044600,5.150044677734375,0.007106379140168428,-0.009366337209939957,0.00336197461001575
1761315836341091600,5.160091552734375,0.0065290057100355625,-0.007165235001593828,0.0006644586683250964
1761315836351138600,5.170138671875,0.009156214073300362,-0.007819307036697865,0.005346029531210661
1761315836361185800,5.180185791015625,0.005510879214853048,-0.006737797521054745,0.001704955706372857
1761315836371232800,5.190232666015625,0.006623281631618738,-0.008794556371867657,0.000788561999797821
1761315836381279700,5.20027978515625,0.009140235371887684,-0.00821052584797144,0.0018674085149541497
1761315836391326700,5.21032666015625,0.007950334809720516,-0.007168164476752281,0.0035276231355965137
1761315836401373700,5.220373779296875,0.008323975838720798,-0.007474428042769432,0.0034133736044168472
1761315836411420700,5.230420654296875,0.007387875113636255,-0.00538357999175787,0.004337756894528866
1761315836421468000,5.240468017578125,0.008020109497010708,-0.006171609275043011,-0.0010077401529997587
1761315836431515600,5.250515625,0.010091249831020832,-0.007136206608265638,0.0011406318517401814
1761315836441562600,5.260562744140625,0.007719971239566803,-0.00646801944822073,0.0015358449891209602
1761315836451609600,5.270609619140625,0.007786550559103489,-0.008644887246191502,0.0036184368655085564
1761315836461656800,5.28065673828125,0.007879761047661304,-0.0070701600052416325,0.004303401801735163
1761315836471703800,5.290703857421875,0.006908772513270378,-0.008290953002870083,0.0007880293414928019
1761315836481750800,5.300750732421875,0.00905900914222002,-0.005910619627684355,0.0015121428295969963
1761315836491797800,5.3107978515625,0.008026767522096634,-0.006107693538069725,0.001189900329336524
1761315836501844700,5.3208447265625,0.008323709480464458,-0.00752129964530468,0.002635996788740158
1761315836511891700,5.3308916015625,0.006391853094100952,-0.005028580781072378,0.0024596955627202988
1761315836521938700,5.340938720703125,0.007217699196189642,-0.0065681543201208115,0.0031342741567641497
1761315836531985700,5.350985595703125,0.007647799793630838,-0.008621717803180218,0.002653573639690876
1761315836542032600,5.36103271484375,0.005495699122548103,-0.0059809270314872265,0.0006221143994480371
1761315836552079600,5.37107958984375,0.008747951127588749,-0.008820123039186,0.002257561543956399
1761315836562126600,5.381126708984375,0.008481635712087154,-0.005910353269428015,0.0033246902748942375
1761315836572173600,5.391173583984375,0.007907724007964134,-0.00618093041703105,-0.00048602689639665186
1761315836582220800,5.401220703125,0.008256864733994007,-0.007780158892273903,0.002425074577331543
1761315836592267800,5.411267822265625,0.009304019622504711,-0.007930094376206398,0.0017265273490920663
1761315836602314800,5.421314697265625,0.006232862360775471,-0.007425159215927124,0.0011883024126291275
1761315836612361700,5.43136181640625,0.006448311731219292,-0.00759853096678853,0.0007209177128970623
1761315836622409500,5.441409423828125,0.006027265917509794,-0.006366819143295288,0.002653839997947216
1761315836632456700,5.451456787109375,0.007181480061262846,-0.0076115806587040424,0.00013076121103949845
1761315836642503700,5.461503662109375,0.006935137789696455,-0.008705074898898602,0.002019474981352687
1761315836652550700,5.471550537109375,0.007954595610499382,-0.006868026219308376,0.0021491709630936384
1761315836662597600,5.48159765625,0.0064922538585960865,-0.007523696403950453,0.003686613868921995
1761315836672644600,5.49164453125,0.006491188891232014,-0.007020891644060612,0.001811482128687203
1761315836682691800,5.50169189453125,0.007677360903471708,-0.0067697553895413876,0.0005632585380226374
1761315836692738800,5.51173876953125,0.00749200489372015,-0.0087205208837986,0.0015227955300360918
1761315836702785800,5.521785888671875,0.007647799793630838,-0.00803129468113184,0.00019494339358061552
1761315836712832800,5.531832763671875,0.009926133789122105,-0.006420348770916462,0.000761664065066725
1761315836722879700,5.541879638671875,0.007667240686714649,-0.008805742487311363,0.0012002866715192795
1761315836732926700,5.5519267578125,0.008678442798554897,-0.007504255045205355,-0.0010266485624015331
1761315836742973700,5.5619736328125,0.008255532942712307,-0.008266185410320759,-0.0006737797521054745
1761315836753020700,5.572020751953125,0.0072717610746622086,-0.006149238906800747,0.00376011710613966
1761315836763067600,5.582067626953125,0.0062427157536149025,-0.008685100823640823,-0.000493750034365803
1761315836773114600,5.592114501953125,0.005256014876067638,-0.00808881875127554,0.00023089606838766485
1761315836783161600,5.60216162109375,0.005885053426027298,-0.0070760189555585384,0.0017526262672618032
1761315836793209900,5.6122099609375,0.006910103838890791,-0.0065140919759869576,0.0010373012628406286
1761315836803256800,5.6222568359375,0.007559649180620909,-0.00697881355881691,-0.00036964676110073924
1761315836813303800,5.6323037109375,0.008245146833360195,-0.00484322477132082,0.002624811604619026
1761315836823350800,5.642350830078125,0.006865096744149923,-0.005888781975954771,0.0002961435238830745
1761315836833398500,5.6523984375,0.007508782669901848,-0.010894992388784885,0.0027531760279089212
1761315836843445800,5.66244580078125,0.007413441315293312,-0.0073175677098333836,0.00008735168376006186
1761315836853492700,5.67249267578125,0.006405435036867857,-0.008099205791950226,0.0032623722217977047
1761315836863539700,5.682539794921875,0.008320247754454613,-0.007650995627045631,0.0012479572324082255
1761315836873586700,5.692586669921875,0.0051625375635921955,-0.006934605073183775,0.0011837751371785998
1761315836883633700,5.702633544921875,0.006819290108978748,-0.00848456472158432,0.0007510114228352904
1761315836893681000,5.712680908203125,0.004983306862413883,-0.008549279533326626,0.0016607472207397223
1761315836903727600,5.7227275390625,0.007734085898846388,-0.0070371367037296295,0.0037699707318097353
1761315836913774600,5.732774658203125,0.006779342889785767,-0.00774553744122386,-0.0009206547983922064
1761315836923821600,5.742821533203125,0.005928462836891413,-0.0068326061591506,0.00047883635852485895
1761315836933868300,5.752868408203125,0.007035006303340197,-0.007765245158225298,0.0020690099336206913
1761315836943915500,5.76291552734375,0.0068118334747850895,-0.007453921716660261,0.0017688715597614646
1761315836953962500,5.77296240234375,0.007768973242491484,-0.0062850601971149445,0.0037862160243093967
1761315836964009500,5.783009521484375,0.006272010505199432,-0.007702128030359745,0.0003885551996063441
1761315836974056400,5.793056396484375,0.006114884279668331,-0.00595589354634285,0.0004953479510731995
1761315836984103400,5.803103515625,0.008196144364774227,-0.006709301844239235,0.0013438310706987977
1761315836994150700,5.813150634765625,0.007160973735153675,-0.0059449742548167706,0.00022556974727194756
1761315837004197600,5.82319775390625,0.006736998446285725,-0.0067686899565160275,0.0017571536591276526
1761315837014244600,5.83324462890625,0.006624879315495491,-0.006943127140402794,0.00387303507886827
1761315837024292400,5.843292236328125,0.006158826407045126,-0.008215053007006645,-0.0002372876479057595
1761315837034339300,5.85333935546875,0.009882990270853043,-0.007093595806509256,0.0011060107499361038
1761315837044386600,5.863386474609375,0.00905847642570734,-0.007532484829425812,-0.0005723133217543364
1761315837054433500,5.87343359375,0.00959776621311903,-0.0070366039872169495,0.003756654914468527
1761315837064480500,5.88348046875,0.007152718026190996,-0.010028665885329247,0.005875998642295599
1761315837074527500,5.893527587890625,0.008868592791259289,-0.007447530049830675,0.0011025486746802926
1761315837084574500,5.903574462890625,0.008322378620505333,-0.010702445171773434,-0.00031185615807771683
1761315837094621400,5.913621337890625,0.0073074474930763245,-0.008791893720626831,0.0030370689928531647
1761315837104668700,5.923668701171875,0.009696569293737411,-0.008435296826064587,0.0017158746486529708
1761315837114715600,5.933715576171875,0.006157760974019766,-0.007478688843548298,0.0013622068800032139
1761315837124762600,5.9437626953125,0.0073021212592720985,-0.006641391199082136,0.003424558788537979
1761315837134809600,5.9538095703125,0.005453088786453009,-0.005118062719702721,0.0009017463307827711
1761315837144856600,5.963856689453125,0.009017995558679104,-0.00700730923563242,0.0022327941842377186
1761315837154903300,5.9739033203125,0.007505320478230715,-0.008856874890625477,0.0036535905674099922
1761315837164950500,5.983950439453125,0.007876032963395119,-0.007989482954144478,0.0034647725988179445
1761315837174997500,5.99399755859375,0.0084262415766716,-0.008124771527945995,0.000060986389144090936
1761315837185044500,6.00404443359375,0.008359129540622234,-0.008202003315091133,0.0024173513520509005
1761315837195091500,6.014091552734375,0.006076268386095762,-0.007918909192085266,0.004406998865306377
1761315837205138400,6.024138427734375,0.006667756475508213,-0.0073295519687235355,0.0026075011119246483
1761315837215185700,6.034185546875,0.007157511543482542,-0.007910920307040215,0.0010277138790115714
1761315837225233700,6.044233642578125,0.00387330143712461,-0.008620119653642178,0.0022748722694814205
1761315837235280600,6.05428076171875,0.0070885359309613705,-0.006295979022979736,0.0057380469515919685
1761315837245327400,6.064327392578125,0.010014018043875694,-0.005923136603087187,0.002127333078533411
1761315837255374300,6.074374267578125,0.00908457487821579,-0.0070613715797662735,0.0018245317041873932
1761315837265421600,6.084421630859375,0.006330866366624832,-0.007993478327989578,0.002576342085376382
1761315837275468500,6.094468505859375,0.008262723684310913,-0.0081487400457263,0.002436526119709015
1761315837285515500,6.104515625,0.009762882255017757,-0.009251289069652557,0.0005512743373401463
1761315837295562500,6.1145625,0.008264853619039059,-0.008100003935396671,0.003245860803872347
1761315837305609500,6.124609375,0.010151437483727932,-0.008022506721317768,0.00381444557569921
1761315837315656400,6.134656494140625,0.009691243059933186,-0.006939398590475321,0.004796353168785572
1761315837325703700,6.14470361328125,0.007647799793630838,-0.007517038378864527,0.004321777727454901
1761315837335750700,6.154750732421875,0.010814564302563667,-0.006081061903387308,0.0008327704854309559
1761315837345797600,6.164797607421875,0.007376689929515123,-0.005643504671752453,0.004456533584743738
1761315837355844600,6.1748447265625,0.006973220966756344,-0.00791491474956274,0.002513491315767169
1761315837365891600,6.1848916015625,0.005301021970808506,-0.0077458037994802,0.0025031049735844135
1761315837375938300,6.194938232421875,0.006791593506932259,-0.007534881588071585,0.0010042780777439475
1761315837385985500,6.204985595703125,0.008012386038899422,-0.007923170924186707,0.0005906891310587525
1761315837396032500,6.215032470703125,0.008349808864295483,-0.007926632650196552,0.0023845944087952375
1761315837406079500,6.22507958984375,0.003959587775170803,-0.008295213803648949,0.0008295746520161629
1761315837416126500,6.23512646484375,0.005870406050235033,-0.009983125142753124,0.0006378270918503404
1761315837426173400,6.24517333984375,0.006780141964554787,-0.0073141055181622505,0.0008873652550391853
1761315837436221700,6.2552216796875,0.008521582931280136,-0.006227003410458565,0.0007009439868852496
1761315837446268700,6.2652685546875,0.007764179725199938,-0.009156214073300362,0.005819805897772312
1761315837456315400,6.2753154296875,0.006874417886137962,-0.008139419369399548,0.0025001754984259605
1761315837466362400,6.2853623046875,0.007083475589752197,-0.006302370689809322,0.003412308171391487
1761315837476409300,6.295409423828125,0.00806192122399807,-0.009644904173910618,0.0015712650492787361
1761315837486456600,6.30545654296875,0.007894940674304962,-0.00863157119601965,0.0010823087068274617
1761315837496503600,6.315503662109375,0.00911466870456934,-0.0073479278944432735,0.0008364989189431071
1761315837506550500,6.325550537109375,0.007017962168902159,-0.008744223043322563,-0.001103880233131349
1761315837516597500,6.335597412109375,0.005623264703899622,-0.006268016062676907,0.002438656520098448
1761315837526644500,6.34564453125,0.006329268682748079,-0.007182545494288206,0.0021065603941679
1761315837536691500,6.35569140625,0.008048871532082558,-0.006946056615561247,0.0005970807396806777
1761315837546738700,6.36573876953125,0.00899908784776926,-0.0074030552059412,0.001219727797433734
1761315837556785700,6.37578564453125,0.008479771204292774,-0.006102367304265499,0.0006082659820094705
1761315837566832600,6.38583251953125,0.007472829893231392,-0.007730624172836542,0.0022269352339208126
1761315837576879600,6.395879638671875,0.0062584285624325275,-0.006712231319397688,0.0021552962716668844
1761315837586926300,6.40592626953125,0.008844624273478985,-0.008141282945871353,0.003406449221074581
1761315837596973300,6.415973388671875,0.0062552327290177345,-0.008745821192860603,0.0021233384031802416
1761315837607020500,6.4260205078125,0.005482915788888931,-0.00697907991707325,0.0025427863001823425
1761315837617067500,6.436067626953125,0.0073319487273693085,-0.00869229156523943,0.0022024342324584723
1761315837627114500,6.446114501953125,0.007574828807264566,-0.006411560345441103,0.002445048186928034
1761315837637161500,6.456161376953125,0.008037686347961426,-0.00957060232758522,0.002832271857187152
1761315837647208400,6.46620849609375,0.00836578756570816,-0.006659500766545534,0.001609348226338625
1761315837657256700,6.476256591796875,0.007443268783390522,-0.005859486758708954,0.0025632926262915134
1761315837667303700,6.4863037109375,0.009152219630777836,-0.005381449591368437,0.0017949705943465233
1761315837677350400,6.496350341796875,0.008643555454909801,-0.007651794236153364,0.0033662356436252594
1761315837687397400,6.5063974609375,0.007299458142369986,-0.007504521403461695,0.0002868224401026964
1761315837697444400,6.5164443359375,0.00743208359926939,-0.006684534251689911,0.0013110742438584566
1761315837707491600,6.52649169921875,0.006742058787494898,-0.008914665319025517,0.002767557045444846
1761315837717538600,6.53653857421875,0.007738347165286541,-0.009916813112795353,0.003603257006034255
1761315837727585500,6.54658544921875,0.006869357544928789,-0.008822520263493061,0.0009989517275243998
1761315837737632500,6.556632568359375,0.006046440917998552,-0.0068059745244681835,0.0014775217277929187
1761315837747679500,6.566679443359375,0.0057156761176884174,-0.007390538230538368,0.001862082164734602
1761315837757726500,6.5767265625,0.007889880798757076,-0.007504255045205355,0.0036637107841670513
1761315837767773700,6.586773681640625,0.00752050057053566,-0.006717823911458254,-0.00013528858835343271
1761315837777820700,6.596820556640625,0.006399309728294611,-0.00492098880931735,0.0018362496048212051
1761315837787867600,6.60686767578125,0.007786816451698542,-0.0060208747163414955,0.0041068606078624725
1761315837797914600,6.61691455078125,0.007779892534017563,-0.006886668037623167,-0.002680471632629633
1761315837807961300,6.62696142578125,0.007135407533496618,-0.007809453643858433,0.0015417039394378662
1761315837818008300,6.63700830078125,0.0068328725174069405,-0.007652593310922384,0.00008468852320220321
1761315837828055600,6.6470556640625,0.008922388777136803,-0.00624085171148181,0.0022295983508229256
1761315837838102500,6.6571025390625,0.008827580139040947,-0.008959672413766384,0.003138801548629999
1761315837848149500,6.6671494140625,0.00902758352458477,-0.007690143771469593,0.001814677962101996
1761315837858196500,6.677196533203125,0.008955677971243858,-0.007555920630693436,0.0014106763992458582
1761315837868243500,6.687243408203125,0.00729413190856576,-0.008988435380160809,0.001719603082165122
1761315837878291700,6.697291748046875,0.010631338693201542,-0.006505303550511599,0.002448510378599167
1761315837888338700,6.707338623046875,0.007994809187948704,-0.006363623309880495,0.001187503570690751
1761315837898385400,6.717385498046875,0.008539426140487194,-0.010056096129119396,0.0010729875648394227
1761315837908433200,6.72743310546875,0.006909038871526718,-0.008734103292226791,0.0019166769925504923
1761315837918480100,6.737480224609375,0.007833688519895077,-0.007938616909086704,-0.00014061490946915
1761315837928527400,6.74752734375,0.00720598129555583,-0.009678726084530354,-0.00016431703988928348
1761315837938574300,6.75757421875,0.007268299348652363,-0.0070334081538021564,0.00358834327198565
1761315837948621300,6.767621337890625,0.005274390336126089,-0.009723467752337456,0.0009345032158307731
1761315837958668300,6.777668212890625,0.00842917151749134,-0.0073625752702355385,0.0007957525085657835
1761315837968715300,6.78771533203125,0.0068057081662118435,-0.007409979589283466,0.0014285196084529161
1761315837978762500,6.797762451171875,0.0067599015310406685,-0.008611864410340786,0.0018375811632722616
1761315837988809500,6.8078095703125,0.006907440721988678,-0.00911679957062006,0.0006245112745091319
1761315837998856200,6.817856201171875,0.004122839774936438,-0.0075998627580702305,0.0038599856197834015
1761315838008903200,6.827903076171875,0.005118595436215401,-0.005464806687086821,0.0024383901618421078
1761315838018950100,6.8379501953125,0.008809736929833889,-0.005646167788654566,0.0019057580502703786
1761315838028997000,6.8479970703125,0.005382515024393797,-0.008041947148740292,0.0005587312043644488
1761315838039044400,6.85804443359375,0.008175638504326344,-0.005373992491513491,-0.00010626012954162434
1761315838049091300,6.86809130859375,0.005514607764780521,-0.007871238514780998,0.0021912488155066967
1761315838059138300,6.87813818359375,0.007443002425134182,-0.004090082831680775,-0.0016636766958981752
1761315838069185300,6.888185302734375,0.008856608532369137,-0.007650462910532951,0.004416320007294416
1761315838079232300,6.898232177734375,0.007095992565155029,-0.007932225242257118,0.001568069215863943
1761315838089279200,6.908279296875,0.007701595313847065,-0.007978297770023346,0.003290601773187518
1761315838099326500,6.918326416015625,0.008219846524298191,-0.007540740538388491,0.001535312389023602
1761315838109373400,6.92837353515625,0.009183111600577831,-0.008636364713311195,0.00019334549142513424
1761315838119420400,6.93842041015625,0.008213987573981285,-0.007422229740768671,0.0018761969404295087
1761315838129468200,6.94846826171875,0.010717093013226986,-0.00900015328079462,0.0013137373607605696
1761315838139515100,6.95851513671875,0.011151720769703388,-0.008007592521607876,0.0016791230300441384
1761315838149562400,6.968562255859375,0.006189985200762749,-0.008131695911288261,0.001383512164466083
1761315838159609300,6.978609375,0.009425193071365356,-0.00672155199572444,0.0016578177455812693
1761315838169656300,6.98865625,0.006968959700316191,-0.0073591130785644054,0.0028666264843195677
1761315838179703300,6.998703369140625,0.007126086391508579,-0.0070371367037296295,0.003748931922018528
1761315838189750300,7.008750244140625,0.009832923300564289,-0.006959639023989439,0.0017060210229828954
1761315838199797500,7.018797607421875,0.008963667787611485,-0.007801197934895754,0.004372910596430302
1761315838209844200,7.02884423828125,0.007547398563474417,-0.008268316276371479,0.0016740630380809307
1761315838219891200,7.03889111328125,0.00546294217929244,-0.006768157705664635,0.0010958907660096884
1761315838229938200,7.048938232421875,0.005828061606734991,-0.008372179232537746,0.0014642059104517102
1761315838239985200,7.058985107421875,0.007330351043492556,-0.007714112289249897,0.0018365158466622233
1761315838250032000,7.0690322265625,0.007613977417349815,-0.005820338614284992,0.0023877902422100306
1761315838260079400,7.079079345703125,0.006150570698082447,-0.008687764406204224,0.0014450311427935958
1761315838270126300,7.089126220703125,0.009018261916935444,-0.00507092522457242,0.0037491980474442244
1761315838280173300,7.09917333984375,0.007799866143614054,-0.009925068356096745,0.0009004147723317146
1761315838290220300,7.10922021484375,0.00743341539055109,-0.008280566893517971,0.0036400086246430874
1761315838300267300,7.119267333984375,0.007121026515960693,-0.007501858286559582,0.003703924361616373
1761315838310314200,7.129314208984375,0.007567904889583588,-0.008742891252040863,0.0010817759903147817
1761315838320361500,7.139361572265625,0.006571616046130657,-0.008695220574736595,0.0008207862265408039
1761315838330408400,7.149408447265625,0.008550611324608326,-0.008832640014588833,-0.0003304982965346426
1761315838340455200,7.159455078125,0.009230515919625759,-0.005546565633267164,0.0012114719720557332
1761315838350502100,7.169502197265625,0.007138869725167751,-0.0076003954745829105,0.002240783767774701
1761315838360549000,7.179549072265625,0.007118895649909973,-0.00595562718808651,0.0018700717482715845
1761315838370597400,7.189597412109375,0.008481902070343494,-0.007990282028913498,0.00352868833579123
1761315838380644400,7.199644287109375,0.006882939953356981,-0.0075639099813997746,0.0020634171087294817
1761315838390691300,7.20969140625,0.009136506356298923,-0.006071740761399269,0.0003909520455636084
1761315838400738300,7.21973828125,0.005770271178334951,-0.005929794628173113,0.0035270904190838337
1761315838410785300,7.229785400390625,0.006651777308434248,-0.0057015614584088326,0.004506601020693779
1761315838420832500,7.23983251953125,0.00638013519346714,-0.009660350158810616,0.0033044503070414066
1761315838430879200,7.249879150390625,0.01019671093672514,-0.007754592224955559,-0.0007305050967261195
1761315838440926200,7.25992626953125,0.007165501359850168,-0.008531169965863228,0.0029459886718541384
1761315838450973200,7.26997314453125,0.007219296880066395,-0.0070981234312057495,-0.0006588660762645304
1761315838461020200,7.280020263671875,0.007778560742735863,-0.00899882148951292,0.0011590076610445976
1761315838471067100,7.290067138671875,0.006695186719298363,-0.010744789615273476,-0.0004266384057700634
1761315838481114400,7.3001142578125,0.0076126460917294025,-0.008136223070323467,0.0009494169498793781
1761315838491161300,7.310161376953125,0.007791077718138695,-0.009243032895028591,0.0019094864837825298
1761315838501208300,7.320208251953125,0.008887235075235367,-0.006850981619209051,0.0017957695527002215
1761315838511255300,7.33025537109375,0.004995024763047695,-0.007513309828937054,0.0010005496442317963
1761315838521302300,7.34030224609375,0.006965763866901398,-0.004787298385053873,0.0007664577569812536
1761315838531349200,7.350349365234375,0.006588394287973642,-0.006083458662033081,0.0002764361270237714
1761315838541396500,7.360396484375,0.007429420482367277,-0.007096258923411369,0.0020301276817917824
1761315838551443500,7.370443359375,0.009104548953473568,-0.0062219430692493916,0.001318264752626419
1761315838561490200,7.380490234375,0.007926899008452892,-0.006844057701528072,0.00017896443023346364
1761315838571537200,7.390537109375,0.006583333946764469,-0.006839263718575239,0.0009379653492942452
1761315838581584100,7.400584228515625,0.008250206708908081,-0.007012635935097933,-0.0003145193331874907
1761315838591631000,7.410631103515625,0.0070733558386564255,-0.00771784083917737,0.0013571468880400062
1761315838601678300,7.42067822265625,0.005832589231431484,-0.008041148073971272,0.0035806200467050076
1761315838611725300,7.430725341796875,0.007368167862296104,-0.009918943047523499,0.001332912128418684
1761315838621772300,7.440772216796875,0.010071808472275734,-0.005820604972541332,0.0018242653459310532
1761315838631819300,7.4508193359375,0.010130930691957474,-0.00726483715698123,0.0026229473296552896
1761315838641867300,7.4608671875,0.009513610042631626,-0.005858155433088541,0.0029728866647928953
1761315838651914200,7.470914306640625,0.010041182860732079,-0.00800466351211071,0.0037499971222132444
1761315838661961200,7.480961181640625,0.008935438469052315,-0.007160973735153675,-0.0000250337143370416
1761315838672008200,7.49100830078125,0.0067686899565160275,-0.007527158595621586,0.0021347899455577135
1761315838682055200,7.50105517578125,0.008026767522096634,-0.006307164207100868,0.0015723302494734526
1761315838692102100,7.51110205078125,0.010057694278657436,-0.009396431036293507,0.0007808388327248394
1761315838702149400,7.5211494140625,0.006819290108978748,-0.007122091483324766,0.0006644586683250964
1761315838712196400,7.5311962890625,0.006584665738046169,-0.007546865846961737,0.001190166687592864
1761315838722243300,7.541243408203125,0.007682420779019594,-0.00824115239083767,0.0013046825770288706
1761315838732290300,7.551290283203125,0.00800013542175293,-0.007278419099748135,0.0019065570086240768
1761315838742337300,7.561337158203125,0.0067660268396139145,-0.00945289060473442,-0.0012926984345540404
1761315838752384300,7.57138427734375,0.009124255739152431,-0.009016664698719978,0.0018937737913802266
1761315838762431500,7.581431396484375,0.00669278996065259,-0.008165251463651657,0.0011177286505699158
1761315838772478500,7.591478515625,0.006683202926069498,-0.009474461898207664,0.0024144218768924475
1761315838782525200,7.601525146484375,0.004715126473456621,-0.006257096771150827,0.001975266495719552
1761315838792572200,7.611572265625,0.006636863574385643,-0.007121292874217033,0.004995024763047695
1761315838802619100,7.621619140625,0.00797243881970644,-0.004325772635638714,0.004391552414745092
1761315838812666000,7.631666015625,0.007249923422932625,-0.0070129018276929855,0.0012191950809210539
1761315838822713300,7.64171337890625,0.005078914575278759,-0.008537561632692814,-0.00020346550445538014
1761315838832760300,7.65176025390625,0.007939415983855724,-0.008084025233983994,0.003187004942446947
1761315838842807300,7.661807373046875,0.006886934395879507,-0.006183859892189503,0.0004958806093782187
1761315838852854300,7.671854248046875,0.007787615526467562,-0.007257380057126284,0.002912965603172779
1761315838862901200,7.6819013671875,0.007222759071737528,-0.00860520638525486,0.0008138620178215206
1761315838872948200,7.6919482421875,0.008800681680440903,-0.00600462919101119,0.00018029600323643535
1761315838882995500,7.701995361328125,0.010106430388987064,-0.008440356701612473,0.0007850998663343489
1761315838893042400,7.71204248046875,0.007449926808476448,-0.006286924239248037,0.001445830101147294
1761315838903089400,7.72208935546875,0.005090632475912571,-0.005342034623026848,0.0009238505735993385
1761315838913139500,7.732139404296875,0.007400392089039087,-0.008292284794151783,0.003102849004790187
1761315838923187500,7.7421875,0.005562012083828449,-0.008855543099343777,0.0011315771844238043
1761315838933234400,7.752234375,0.008081362582743168,-0.00971334706991911,0.0023246733471751213
1761315838943281400,7.762281494140625,0.00785472709685564,-0.009758355095982552,0.002354234457015991
1761315838953328400,7.772328369140625,0.006555104628205299,-0.007534348871558905,0.0016935041639953852
1761315838963375400,7.782375244140625,0.009317868389189243,-0.008257663808763027,0.0009816411184147
1761315838973422300,7.79242236328125,0.009414540603756905,-0.006559898145496845,0.0036882117856293917
1761315838983469600,7.802469482421875,0.006355633959174156,-0.009006012231111526,0.002255164785310626
1761315838993516500,7.8125166015625,0.007634217385202646,-0.006874683778733015,0.002368881832808256
1761315839003563500,7.8225634765625,0.008037419989705086,-0.006885869428515434,0.0008109325426630676
1761315839013610200,7.8326103515625,0.009246495552361012,-0.008318915963172913,0.0016492956783622503
1761315839023657200,7.8426572265625,0.006570817437022924,-0.008282696828246117,0.0012298477813601494
1761315839033704400,7.852704345703125,0.007930893450975418,-0.007670969236642122,0.00018082863243762404
1761315839043751400,7.86275146484375,0.007641674485057592,-0.004537760280072689,0.00007297061529243365
1761315839053798400,7.87279833984375,0.006960171274840832,-0.008835569024085999,0.0027393274940550327
1761315839063845400,7.882845458984375,0.006564159411936998,-0.007616906892508268,0.0020719394087791443
1761315839073892400,7.892892333984375,0.006301305256783962,-0.006523679476231337,0.0028423918411135674
1761315839083939300,7.902939208984375,0.006559898145496845,-0.009836118668317795,-0.0010655306978151202
1761315839093986600,7.912986572265625,0.004677576012909412,-0.007354585453867912,0.003162770066410303
1761315839104033500,7.923033447265625,0.006976150441914797,-0.006420348770916462,0.0012897689593955874
1761315839114080500,7.93308056640625,0.004680505488067865,-0.006490922532975674,-0.00012650014832615852
1761315839124127500,7.94312744140625,0.007876831106841564,-0.00851545762270689,0.0013411679537966847
1761315839134174500,7.953174560546875,0.008267783559858799,-0.00711623253300786,0.0003121224872302264
1761315839144221200,7.96322119140625,0.007114368490874767,-0.007065100129693747,0.0006343649583868682
1761315839154268400,7.973268310546875,0.0065106297843158245,-0.008747951127588749,0.003349723992869258
1761315839164315400,7.9833154296875,0.007240602280944586,-0.006631004624068737,0.0017409083666279912
1761315839174362400,7.9933623046875,0.0070736221969127655,-0.006596649996936321,-0.00038216362008824944
1761315839184409300,8.003409423828124,0.007988683879375458,-0.005784652195870876,0.004493285436183214
1761315839194456300,8.013456298828125,0.006991330534219742,-0.006958573590964079,0.0038898130878806114
1761315839204503300,8.02350341796875,0.005723932292312384,-0.005923935677856207,0.002540655666962266
1761315839214550500,8.033550537109376,0.008747684769332409,-0.005802229046821594,0.0041524008847773075
1761315839224597500,8.043597412109374,0.010062487795948982,-0.009822537191212177,-0.00046392265358008444
1761315839234644500,8.05364453125,0.008078166283667088,-0.009858489967882633,0.0018887137994170189
1761315839244692200,8.063692138671875,0.006835002917796373,-0.008610532619059086,0.0012333098566159606
1761315839254739200,8.0737392578125,0.006356965284794569,-0.008565258234739304,0.004139084834605455
1761315839264786400,8.083786376953125,0.008776181377470493,-0.007391070947051048,0.003665042342618108
1761315839274833400,8.09383349609375,0.009095760062336922,-0.005839246790856123,0.0006655239267274737
1761315839284880400,8.10388037109375,0.004664526786655188,-0.008195345290005207,0.003573429537937045
1761315839294927400,8.11392724609375,0.006191849708557129,-0.008642223663628101,0.0013198626693338156
1761315839304974300,8.123974365234375,0.0059902481734752655,-0.009040899574756622,0.004810201469808817
1761315839315021600,8.134021484375,0.007105047348886728,-0.009134376421570778,0.0020871192682534456
1761315839325068500,8.144068603515626,0.005061604082584381,-0.004793956410139799,0.0021086910273879766
1761315839335115500,8.154115478515624,0.00714685907587409,-0.00839614775031805,0.0012697952333837748
1761315839345162500,8.16416259765625,0.00672341650351882,-0.00484402384608984,0.00045380264054983854
1761315839355209500,8.17420947265625,0.006852579768747091,-0.0068901302292943,0.001725462032482028
1761315839365256200,8.184256103515626,0.004226170480251312,-0.009007343091070652,0.0025888588279485703
1761315839375303400,8.194303466796875,0.005450425669550896,-0.007632353343069553,0.0005765743553638458
1761315839385350400,8.204350341796875,0.009352223016321659,-0.005857356358319521,0.0009898969437927008
1761315839395397400,8.2143974609375,0.0038687740452587605,-0.0070557789877057076,0.0023704797495156527
1761315839405444400,8.2244443359375,0.006590791046619415,-0.009210809133946896,0.0025244103744626045
1761315839415491300,8.2344912109375,0.007469367701560259,-0.008079764433205128,0.002686330582946539
1761315839425538300,8.244538330078125,0.007781223859637976,-0.007380950730293989,0.002746518002822995
1761315839435585500,8.25458544921875,0.009047556668519974,-0.007892011664807796,0.0014764565275982022
1761315839445632500,8.264632568359374,0.008007326163351536,-0.007198257837444544,0.0020956413354724646
1761315839455679500,8.274679443359375,0.006416087504476309,-0.006134591531008482,0.00088976213010028
1761315839465726500,8.2847265625,0.00771704176440835,-0.0070616379380226135,0.0022972426377236843
1761315839475773400,8.2947734375,0.007026217877864838,-0.009632387198507786,0.000743554555810988
1761315839485820400,8.3048203125,0.007988417521119118,-0.007027283310890198,0.001731853699311614
1761315839495867400,8.314867431640625,0.009049421176314354,-0.006686931010335684,0.00267727579921484
1761315839505914400,8.324914306640625,0.00884915143251419,-0.007520766928792,0.00020746025256812572
1761315839515961300,8.33496142578125,0.007528489921241999,-0.008903746493160725,-0.0002069276088150218
1761315839526008300,8.34500830078125,0.006554838269948959,-0.007757255341857672,0.0023702133912593126
1761315839536055300,8.35505517578125,0.006072273477911949,-0.006177468225359917,0.003628823207691312
1761315839546102300,8.365102294921876,0.006598514039069414,-0.008341286331415176,0.0010359697043895721
1761315839556149500,8.3751494140625,0.0063034361228346825,-0.005843241699039936,0.0007776430575177073
1761315839566196500,8.385196533203125,0.009189503267407417,-0.008801480755209923,0.0029174929950386286
1761315839576243500,8.395243408203125,0.007078415714204311,-0.0067697553895413876,0.0009145294898189604
1761315839586290400,8.40529052734375,0.01034504920244217,-0.008027033880352974,0.0023435817565768957
1761315839596338400,8.41533837890625,0.0072869411669671535,-0.007437143474817276,0.0012500877492129803
1761315839606385400,8.425385498046875,0.008139685727655888,-0.008215852081775665,0.001130511867813766
1761315839616432400,8.435432373046876,0.006474677007645369,-0.00986461527645588,0.0011821772204712033
1761315839626479400,8.445479248046874,0.007626228034496307,-0.006493052933365107,0.0019406455103307962
1761315839636526300,8.4555263671875,0.0049276468344032764,-0.005849899724125862,0.0006026733317412436
1761315839646573300,8.4655732421875,0.00572979124262929,-0.0089966906234622,0.002615224104374647
1761315839656620500,8.47562060546875,0.007989482954144478,-0.010040650144219398,0.0024527714122086763
1761315839666667500,8.48566748046875,0.00703926756978035,-0.007167365401983261,-0.0005984122981317341
1761315839676714500,8.495714599609375,0.006262955721467733,-0.0075484635308384895,-0.0002926813904196024
1761315839686761500,8.505761474609375,0.006127933505922556,-0.007601993158459663,0.003495132550597191
1761315839696808400,8.515808349609374,0.006127667147666216,-0.007588677573949099,0.00025752768851816654
1761315839706855400,8.52585546875,0.0073133064433932304,-0.008402006700634956,0.000004793690095539205
1761315839716902400,8.53590234375,0.009278452955186367,-0.008405469357967377,0.0005254416610114276
1761315839726949400,8.545949462890626,0.007956460118293762,-0.007540207821875811,0.0014591459184885025
1761315839736996400,8.555996337890624,0.008286958560347557,-0.006399309728294611,0.002156095113605261
1761315839747043300,8.566043212890625,0.008963934145867825,-0.00869016069918871,-0.0011518171522766352
1761315839757090300,8.57609033203125,0.008652077987790108,-0.007041397970169783,0.0036847495939582586
1761315839767137300,8.58613720703125,0.007380684372037649,-0.008298676460981369,0.00023808660625945777
1761315839777184500,8.5961845703125,0.0082102594897151,-0.005053347907960415,-0.00014674017438665032
1761315839787231500,8.6062314453125,0.008674448356032372,-0.008099205791950226,0.0028597023338079453
1761315839797278500,8.616278564453125,0.00794181227684021,-0.008509865030646324,0.002080195117741823
1761315839807325400,8.626325439453124,0.005513009615242481,-0.006837932392954826,0.001671666163019836
1761315839817372400,8.636372314453125,0.0090555464848876,-0.0065529742278158665,0.003425091505050659
1761315839827419400,8.64641943359375,0.008824916556477547,-0.006579872220754623,0.000060453756304923445
1761315839837466400,8.65646630859375,0.0062246061861515045,-0.006278402172029018,0.004490622319281101
1761315839847513300,8.666513427734374,0.007155114784836769,-0.008183361031115055,0.0029169602785259485
1761315839857560300,8.676560302734375,0.009032377041876316,-0.007650729268789291,0.0016740630380809307
1761315839867607300,8.686607177734375,0.0063124909065663815,-0.007396130822598934,0.0015443670563399792
1761315839877654300,8.696654296875,0.0063037024810910225,-0.00833942275494337,0.0021851237397640944
1761315839887701500,8.706701416015624,0.007673099637031555,-0.00632074661552906,0.00245117349550128
1761315839897748500,8.71674853515625,0.007247793022543192,-0.0064925202168524265,0.0006199838826432824
1761315839907791600,8.72679150390625,0.007984689436852932,-0.007121559232473373,0.0028391960076987743
1761315839917838600,8.736838623046875,0.007799067068845034,-0.0070304786786437035,0.0011984225129708648
1761315839927885800,8.7468857421875,0.008077899925410748,-0.008435296826064587,0.0018359832465648651
1761315839937932800,8.756932861328124,0.007129814941436052,-0.008615858852863312,0.0009885653853416443
1761315839947979800,8.766979736328125,0.0051934304647147655,-0.006472546607255936,0.000627707049716264
1761315839958026800,8.77702685546875,0.008622250519692898,-0.00848429836332798,0.00018482338055036962
1761315839968073700,8.78707373046875,0.006621683482080698,-0.0073074474930763245,0.0004290352517273277
1761315839978120400,8.797120361328124,0.009851831942796707,-0.0064983791671693325,0.0018519621808081865
1761315839988167700,8.807167724609375,0.008550611324608326,-0.009724798612296581,0.002046905690804124
1761315839998214700,8.817214599609375,0.0057622818276286125,-0.006792924832552671,0.0019124159589409828
1761315840008261600,8.82726171875,0.007056844420731068,-0.005652559455484152,0.0007113303290680051
1761315840018309600,8.8373095703125,0.008801214396953583,-0.007530886679887772,0.0010732539230957627
1761315840028356600,8.847356689453125,0.006690925918519497,-0.008582835085690022,0.001988049829378724
1761315840038403800,8.85740380859375,0.007376423571258783,-0.008888832293450832,0.0005243764026090503
1761315840048450800,8.867450927734374,0.007585481740534306,-0.008329568430781364,0.0030117689166218042
1761315840058497800,8.877497802734375,0.008816927671432495,-0.007865113206207752,0.001978995045647025
1761315840068544500,8.88754443359375,0.007315969560295343,-0.0062456452287733555,0.004802212119102478
1761315840078591500,8.897591552734376,0.006548180244863033,-0.005717540625482798,0.0034088462125509977
1761315840088638500,8.907638427734375,0.0034503915812820196,-0.006159359123557806,0.002840527566149831
1761315840098685700,8.917685791015625,0.009980728849768639,-0.007222226355224848,0.0030064424499869347
1761315840108732700,8.927732666015626,0.008143680170178413,-0.005321261938661337,-0.0014096111990511417
1761315840118779600,8.937779541015624,0.010645187459886074,-0.005135905928909779,0.0014231932582333684
1761315840128826600,8.94782666015625,0.008331166580319405,-0.0070643010549247265,0.0005520732956938446
1761315840138873600,8.95787353515625,0.012293151579797268,-0.007077882997691631,0.0019566244445741177
1761315840148920600,8.967920654296876,0.008358065038919449,-0.008835037238895893,0.0015627428656443954
1761315840158966500,8.977966552734374,0.008920257911086082,-0.007531153038144112,-0.00004926848123432137
1761315840169013800,8.988013671875,0.006090383045375347,-0.006358829792588949,0.0023036343045532703
1761315840179060700,8.998060791015625,0.00848349928855896,-0.008684568107128143,0.0033633061684668064
1761315840189107700,9.008107666015626,0.00911227148026228,-0.007734085898846388,0.002846652874723077
1761315840199154700,9.01815478515625,0.0060051619075238705,-0.007818507961928844,0.0025473134592175484
1761315840209201700,9.02820166015625,0.005730057135224342,-0.00768721429631114,0.0016916398890316486
1761315840219248600,9.03824853515625,0.005407548509538174,-0.00618226220831275,0.0006900250446051359
1761315840229295600,9.048295654296876,0.0075971996411681175,-0.007874434813857079,0.00005459480235003866
1761315840239342600,9.058342529296874,0.006990265101194382,-0.009883522987365723,0.004056260455399752
1761315840249389600,9.0683896484375,0.007749532349407673,-0.00974743627011776,0.0019358517602086067
1761315840259436500,9.0784365234375,0.005119128152728081,-0.00717562111094594,0.0021017666440457106
1761315840269483500,9.0884833984375,0.005317533854395151,-0.00660384027287364,0.0037286917213350534
1761315840279530800,9.09853076171875,0.008723982609808445,-0.0060331248678267,0.0058656120672822
1761315840289577700,9.10857763671875,0.008138886652886868,-0.008039284497499466,-0.000529702752828598
1761315840299624700,9.118624755859376,0.007678958587348461,-0.005986253265291452,0.003771568648517132
1761315840309671700,9.128671630859374,0.00717642018571496,-0.007149255834519863,0.0017036241479218006
1761315840319718700,9.13871875,0.011185009963810444,-0.008038485422730446,0.0015448997728526592
1761315840329765600,9.148765625,0.008317585103213787,-0.007174556143581867,0.0032740901224315166
1761315840339812900,9.158812744140626,0.008620918728411198,-0.008882175199687481,-0.00032863407977856696
1761315840349859800,9.16885986328125,0.011068630032241344,-0.008412659168243408,0.0033015208318829536
1761315840359906600,9.178906494140625,0.009093363769352436,-0.0073141055181622505,0.0008141283178701997
1761315840369953500,9.18895361328125,0.011213505640625954,-0.008547681383788586,0.002296443795785308
1761315840380000500,9.19900048828125,0.008655539713799953,-0.008431834168732166,0.0003475425182841718
1761315840390047500,9.209047607421875,0.008343949913978577,-0.0077471355907619,0.0020604876335710287
1761315840400094700,9.2190947265625,0.008820123039186,-0.006844057701528072,0.0035308189690113068
1761315840410141700,9.2291416015625,0.005332979839295149,-0.007089600898325443,0.0034466630313545465
1761315840420188700,9.239188720703124,0.008646219037473202,-0.008735435083508492,0.0015954998089000583
1761315840430235600,9.249235595703125,0.008884038776159286,-0.007965780794620514,0.0013787185307592154
1761315840440283600,9.25928369140625,0.008161789737641811,-0.008905344642698765,0.0008780442294664681
1761315840450330600,9.26933056640625,0.008443818427622318,-0.0070674968883395195,0.0010871023405343294
1761315840460377600,9.279377685546875,0.007898936048150063,-0.006824882701039314,0.001900964416563511
1761315840470424600,9.289424560546875,0.007509315386414528,-0.009272061288356781,0.004530569538474083
1761315840480471600,9.299471435546875,0.0057590859942138195,-0.00720518222078681,0.00021012341312598437
1761315840490518500,9.3095185546875,0.006253102328628302,-0.007986820302903652,0.0033630398102104664
1761315840500565800,9.319565673828125,0.00552126532420516,-0.0073439329862594604,0.002460228279232979
1761315840510612700,9.32961279296875,0.006713829003274441,-0.01076662726700306,0.003909253980964422
1761315840520659700,9.33965966796875,0.007876831106841564,-0.0078046596609056,0.0029973878990858793
1761315840530706700,9.349706787109374,0.00574843306094408,-0.0054421694949269295,0.001796834752894938
1761315840540753700,9.359753662109375,0.0060293967835605145,-0.007422229740768671,-0.00152306177187711
1761315840550800600,9.369800537109375,0.005363872740417719,-0.0075756278820335865,0.0012309130979701877
1761315840560848000,9.379847900390626,0.0071157002821564674,-0.008905611000955105,0.001654622028581798
1761315840570894600,9.38989453125,0.0073234266601502895,-0.008612396195530891,0.0010546117555350065
1761315840580941600,9.399941650390625,0.008941829204559326,-0.00893943291157484,-0.0005600627628155053
1761315840590988500,9.409988525390625,0.007183078210800886,-0.00866406224668026,0.0027337349019944668
1761315840601035500,9.420035400390624,0.008888034150004387,-0.007702394388616085,0.0006825681775808334
1761315840611082500,9.43008251953125,0.008297344669699669,-0.005878928117454052,0.0011286477092653513
1761315840621129700,9.440129638671875,0.008163387887179852,-0.008383364416658878,0.0008178567513823509
1761315840631176700,9.4501767578125,0.009549829177558422,-0.0068150293081998825,0.0017028251895681024
1761315840641223700,9.4602236328125,0.008726379834115505,-0.007739944849163294,0.0024628913961350918
1761315840651270700,9.470270751953125,0.0068331388756632805,-0.006990531459450722,0.0006820355774834752
1761315840661317600,9.480317626953125,0.008150071837008,-0.009179383516311646,0.0007273092633113265
1761315840671364600,9.490364501953126,0.008102134801447392,-0.005832056514918804,0.0005752427969127893
1761315840681411800,9.500411865234375,0.008535963483154774,-0.009810020215809345,0.0017454357584938407
1761315840691458800,9.510458740234375,0.0065138256177306175,-0.008803345263004303,-0.0005073322099633515
1761315840701505500,9.520505615234375,0.006081328261643648,-0.008435562252998352,0.0020266654901206493
1761315840711552500,9.530552490234374,0.007245129905641079,-0.008599613793194294,0.003427754621952772
1761315840721599500,9.540599609375,0.006380667444318533,-0.007870705798268318,-0.000051132694352418184
1761315840731646500,9.550646484375,0.006954845041036606,-0.006336192600429058,0.001790975802578032
1761315840741693700,9.560693603515626,0.006907973438501358,-0.005804625805467367,0.0015701997326686978
1761315840751740700,9.57074072265625,0.006066947244107723,-0.008315986953675747,-0.00006684534309897572
1761315840761788700,9.58078857421875,0.006079996936023235,-0.007306648883968592,0.004787032026797533
1761315840771835600,9.590835693359375,0.006127134896814823,-0.006394782569259405,0.0022234732750803232
1761315840781883000,9.6008828125,0.005717806983739138,-0.008666192181408405,0.0009571401169523597
1761315840791929600,9.6109296875,0.007648066151887178,-0.00902944803237915,-0.0008356999605894089
1761315840801976600,9.6209765625,0.008843026123940945,-0.007837949320673943,-0.0016841830220073462
1761315840812023600,9.6310234375,0.007389472797513008,-0.006623547989875078,0.00010279801790602505
1761315840822070500,9.641070556640624,0.005139101762324572,-0.008142348378896713,0.001927862293086946
1761315840832117500,9.651117431640625,0.005312207154929638,-0.00621208967640996,-0.000428502622526139
1761315840842164700,9.661164794921875,0.007786284200847149,-0.004238953348249197,0.0027409254107624292
1761315840852211700,9.671211669921876,0.008846755139529705,-0.009403621777892113,0.002898584585636854
1761315840862258700,9.6812587890625,0.006423810962587595,-0.008957542479038239,0.0010966897243633866
1761315840872305700,9.6913056640625,0.009751164354383945,-0.008389489725232124,0.001091629732400179
1761315840882352600,9.7013525390625,0.007661648094654083,-0.0070981234312057495,0.0018096179701387882
1761315840892399600,9.711399658203124,0.007967378944158554,-0.006976150441914797,0.0017363809747621417
1761315840902446800,9.72144677734375,0.009045426733791828,-0.006827545817941427,0.0007337008719332516
1761315840912497400,9.731497314453126,0.007089867256581783,-0.007498130202293396,0.002222141483798623
1761315840922544400,9.74154443359375,0.008696286007761955,-0.007144728675484657,-0.00010865696822293103
1761315840932591400,9.75159130859375,0.006737797521054745,-0.008318116888403893,0.0027023095171898603
1761315840942638300,9.761638427734376,0.005962285213172436,-0.006564425770193338,0.00016777914424892515
1761315840952685300,9.771685302734374,0.008650213479995728,-0.006266151554882526,-0.0007352987886406481
1761315840962732500,9.781732666015625,0.007580687757581472,-0.01059272326529026,0.0021726067643612623
1761315840972779500,9.791779541015625,0.006158027332276106,-0.0067753479816019535,0.0018074874533340335
1761315840982826500,9.801826416015626,0.007903729565441608,-0.007278685458004475,0.0011464908020570874
1761315840992873500,9.81187353515625,0.00797563511878252,-0.009665942750871181,0.0013616742799058557
1761315841002920400,9.82192041015625,0.006132993847131729,-0.007745271548628807,0.0008503473363816738
1761315841012967400,9.831967529296875,0.006269081030040979,-0.009373527951538563,-0.0006655239267274737
1761315841023014700,9.8420146484375,0.0039020637050271034,-0.006405435036867857,0.001517469179816544
1761315841033061600,9.8520615234375,0.006458165589720011,-0.008629174903035164,0.0021379857789725065
1761315841043108400,9.8621083984375,0.005273059010505676,-0.0075881448574364185,0.001088700257241726
1761315841053155300,9.8721552734375,0.007959921844303608,-0.007663245778530836,0.0019382486352697015
1761315841063202300,9.882202392578124,0.006820089183747768,-0.006856574676930904,0.0011102718999609351
1761315841073249300,9.892249267578125,0.0033981935121119022,-0.006337790749967098,0.001597363967448473
1761315841083296500,9.902296630859375,0.007705057505518198,-0.005905559752136469,0.004191549029201269
1761315841093343500,9.912343505859376,0.005386775825172663,-0.007306116167455912,0.001580319833010435
1761315841103390500,9.922390380859374,0.007216633763164282,-0.009998838417232037,0.0007307713967747986
1761315841113437400,9.9324375,0.00908803753554821,-0.00977699737995863,0.002162220422178507
1761315841123484400,9.942484375,0.006169478874653578,-0.007248059380799532,0.002141980454325676
1761315841133531400,9.952531494140626,0.007547931279987097,-0.00896819494664669,0.00195129809435457
1761315841143579400,9.962579345703125,0.0070549799129366875,-0.008584699593484402,0.0038368161767721176
1761315841153626400,9.97262646484375,0.0060264673084020615,-0.007257113698869944,0.002519616624340415
1761315841163673300,9.98267333984375,0.008465123362839222,-0.007641674485057592,0.001612544059753418
1761315841173720300,9.99272021484375,0.005849633365869522,-0.004806739278137684,0.004176901653409004
1761315841183767600,10.002767578125,0.00806165486574173,-0.008866195566952229,0.0031907332595437765
1761315841193814500,10.012814453125,0.006509564816951752,-0.008146077394485474,-0.00018429075134918094
1761315841203861500,10.022861572265626,0.006947388406842947,-0.006738862954080105,0.0012066783383488655
1761315841213908500,10.032908447265624,0.009580722078680992,-0.007556719705462456,0.0029766152147203684
1761315841223955500,10.04295556640625,0.008204134181141853,-0.008233162574470043,0.003477822057902813
1761315841234002400,10.05300244140625,0.007876831106841564,-0.008960471488535404,0.0036738307680934668
1761315841244049700,10.063049560546874,0.008403871208429337,-0.007880293764173985,0.0034679684322327375
1761315841254096400,10.073096435546875,0.008666991256177425,-0.006368150934576988,0.002284725895151496
1761315841264143400,10.083143310546875,0.009786051698029041,-0.00791171845048666,0.004730040207505226
1761315841274190300,10.0931904296875,0.006446181330829859,-0.005950300954282284,0.003479952458292246
1761315841284237300,10.1032373046875,0.0070914654061198235,-0.008470982313156128,0.0009928264189511538
1761315841294284300,10.1132841796875,0.008607602678239346,-0.008953015320003033,0.0026815368328243494
1761315841304331500,10.12333154296875,0.009138370864093304,-0.005105013493448496,0.001455151243135333
1761315841314378500,10.13337841796875,0.005315935704857111,-0.007392934989184141,0.0007664577569812536
1761315841324425500,10.143425537109374,0.0071037160232663155,-0.005195294506847858,0.0008945558220148087
1761315841334472400,10.153472412109375,0.007863515987992287,-0.007950867526233196,0.0032613070216029882
1761315841344519400,10.16351953125,0.0051779840141534805,-0.008961270563304424,0.0029260150622576475
1761315841354566400,10.17356640625,0.007141799200326204,-0.006532734259963036,0.003698864486068487
1761315841364613600,10.183613525390625,0.007709318771958351,-0.010238789021968842,0.0038860845379531384
1761315841374660600,10.19366064453125,0.006477074231952429,-0.007758853491395712,0.001540638622827828
1761315841384707300,10.203707275390625,0.008475510403513908,-0.008362059481441975,0.0035451999865472317
1761315841394754300,10.21375439453125,0.008142348378896713,-0.00812157616019249,0.0027505126781761646
1761315841404801300,10.22380126953125,0.008275773376226425,-0.00777536490932107,0.002798982197418809
1761315841414848300,10.23384814453125,0.009367935359477997,-0.00526560191065073,0.002671683207154274
1761315841424895500,10.2438955078125,0.00908830389380455,-0.010012419894337654,0.002626675646752119
1761315841434942500,10.2539423828125,0.00854155607521534,-0.00759879732504487,0.002267149044200778
1761315841444989400,10.263989501953125,0.007448062766343355,-0.00628985371440649,0.002808569697663188
1761315841455036400,10.274036376953125,0.010236658155918121,-0.008027300238609314,0.0009784454014152288
1761315841465083400,10.28408349609375,0.0057191383093595505,-0.007719704881310463,0.002680471632629633
1761315841475130600,10.294130615234375,0.008668056689202785,-0.0054672034457325935,0.0017398431664332747
1761315841485177600,10.304177490234375,0.00723607512190938,-0.005054946057498455,0.0006463492172770202
1761315841495224600,10.314224609375,0.006682936567813158,-0.007679757662117481,0.0027025758754462004
1761315841505271600,10.324271484375,0.007949003018438816,-0.0068059745244681835,0.005459746345877647
1761315841515318300,10.334318359375,0.008888034150004387,-0.007836617529392242,0.0024413196370005608
1761315841525365200,10.344365234375,0.007121559232473373,-0.006220079027116299,0.0034234935883432627
1761315841535412500,10.35441259765625,0.007499994244426489,-0.006877879612147808,0.0012503541074693203
1761315841545459500,10.36445947265625,0.003225354477763176,-0.007953263819217682,0.004685565363615751
1761315841555506400,10.37450634765625,0.006503705866634846,-0.006905043963342905,0.0016463662032037973
1761315841565553400,10.384553466796875,0.0073015885427594185,-0.009815346449613571,0.001874066423624754
1761315841575600400,10.394600341796876,0.007841677404940128,-0.007594802882522345,0.0006082659820094705
1761315841585647400,10.4046474609375,0.0062523032538592815,-0.008827846497297287,0.005869074258953333
1761315841595694600,10.414694580078125,0.005839779507368803,-0.00782543234527111,0.002466087229549885
1761315841605741600,10.424741455078125,0.00706856232136488,-0.008378570899367332,0.002865294925868511
1761315841615788500,10.43478857421875,0.007765245158225298,-0.01002094242721796,0.0023036343045532703
1761315841625835500,10.44483544921875,0.00774793466553092,-0.008821987546980381,0.0005693838465958834
1761315841635882500,10.454882568359375,0.008470715954899788,-0.006194512825459242,0.0012442287988960743
1761315841645929200,10.46492919921875,0.008125304244458675,-0.008340488187968731,-0.0004492752777878195
1761315841655976400,10.4749765625,0.007191866636276245,-0.0059569585137069225,0.0033989925868809223
1761315841666023400,10.4850234375,0.006399576086550951,-0.006469617132097483,0.0017281252657994628
1761315841676070400,10.4950703125,0.010134659707546234,-0.006213953718543053,-0.00014620754518546164
1761315841686117400,10.505117431640626,0.007464574184268713,-0.009854760952293873,0.002981142606586218
1761315841696164400,10.515164306640624,0.007559382822364569,-0.009640110656619072,0.0037257622461766005
1761315841706211300,10.52521142578125,0.006957241799682379,-0.006777212489396334,0.00037976677413098514
1761315841716258600,10.535258544921875,0.009857690893113613,-0.008287224918603897,0.001142496126703918
1761315841726305500,10.545305419921876,0.007918642833828926,-0.006983873434364796,0.0008490157779306173
1761315841736352500,10.5553525390625,0.00814767461270094,-0.007284278050065041,0.0008231831016018987
1761315841746399500,10.5653994140625,0.006376939360052347,-0.009909089654684067,0.0006199838826432824
1761315841756446500,10.575446533203126,0.00643819198012352,-0.008540225215256214,0.001300155185163021
1761315841766493400,10.585493408203124,0.007754592224955559,-0.008757539093494415,0.0019952403381466866
1761315841776540400,10.59554052734375,0.007978830486536026,-0.007256315089762211,0.0006820355774834752
1761315841786587400,10.60558740234375,0.007902131415903568,-0.00845447089523077,0.0024642229545861483
1761315841796634400,10.61563427734375,0.007041930686682463,-0.00851279404014349,-0.0001608549355296418
1761315841806681300,10.625681396484374,0.010121610015630722,-0.008584699593484402,0.003482881933450699
1761315841816728300,10.635728271484375,0.007926099933683872,-0.008274441584944725,0.003381948219612241
1761315841826775600,10.645775634765625,0.00791491474956274,-0.006816893350332975,0.0017238641157746315
1761315841836822500,10.655822509765626,0.007407050114125013,-0.006947388406842947,0.0009494169498793781
1761315841846869500,10.665869384765625,0.006529538426548243,-0.00720544857904315,-0.0014405038673430681
1761315841856916500,10.67591650390625,0.006579605862498283,-0.006803844124078751,-0.00018508969515096396
1761315841866963500,10.68596337890625,0.010388991795480251,-0.006347378250211477,0.00009241169027518481
1761315841877010400,10.696010498046874,0.003641073824837804,-0.008430236019194126,0.002883404493331909
1761315841887057700,10.7060576171875,0.005755091086030006,-0.006520750001072884,0.0026756778825074434
1761315841897104400,10.7161044921875,0.007458182517439127,-0.008134892210364342,0.003296993440017104
1761315841907151400,10.7261513671875,0.006567088887095451,-0.0076147764921188354,0.002427204977720976
1761315841917194800,10.73619482421875,0.005535114090889692,-0.006127134896814823,0.001457814360037446
1761315841927241700,10.74624169921875,0.007908523082733154,-0.006608900614082813,-0.00027563716867007315
1761315841937288700,10.756288818359375,0.0065319351851940155,-0.006996923126280308,0.0013156015193089843
1761315841947335700,10.766335693359375,0.007870972156524658,-0.008975385688245296,0.001585646066814661
1761315841957382700,10.776382568359375,0.006888266187161207,-0.004172374494373798,0.0006596649764105678
1761315841967430000,10.786429931640624,0.007877630181610584,-0.006115682888776064,0.001318264752626419
1761315841977476900,10.796476806640625,0.005764145869761705,-0.006685599684715271,0.003088201628997922
1761315841987523800,10.80652392578125,0.007503456436097622,-0.011118165217339993,0.001901230658404529
1761315841997570800,10.81657080078125,0.007062170654535294,-0.009808954782783985,0.0036599822342395782
1761315842007617800,10.82661767578125,0.00863290298730135,-0.008556736633181572,0.0018314558546990156
1761315842017664800,10.836664794921875,0.008741825819015503,-0.009149822406470776,0.0013198626693338156
1761315842027711700,10.846711669921875,0.010207629762589931,-0.008293616585433483,0.0005968143814243376
1761315842037758700,10.8567587890625,0.006028064992278814,-0.008340221829712391,-0.00040000680019147694
1761315842047805700,10.8668056640625,0.005970008205622435,-0.008009190671145916,0.002370745874941349
1761315842057853700,10.876853759765625,0.007753793615847826,-0.007266434840857983,0.002487925114110112
